DATE,TIME,ax,ay,az,gx,gy,gz,ma,mg,label
09/07/2020, 21:37:27,-2.3042881,2.6799614,9.1669035,-0.01099,-0.0036633340000000003,0.013432221999999999,9.82466574,0.017737664,crawl
09/07/2020, 21:37:27,-2.3042881,2.6799614,9.1669035,0.004884445,0.0036633340000000003,0.023201112000000003,9.82466574,0.023991027,crawl
09/07/2020, 21:37:27,-2.2468605,2.7613173,9.186047,0.004884445,0.0036633340000000003,0.023201112000000003,9.851736255,0.023991027,crawl
09/07/2020, 21:37:27,-2.2468605,2.7613173,9.186047,0.004884445,0.01099,0.012211111,9.851736255,0.017139111999999998,crawl
09/07/2020, 21:37:27,-2.239682,2.8522446,9.15494,0.004884445,0.01099,0.012211111,9.847050048,0.017139111999999998,crawl
09/07/2020, 21:37:27,-2.239682,2.8522446,9.15494,-0.004884445,0.015874445,0.007326666999999999,9.847050048,0.018153123,crawl
09/07/2020, 21:37:27,-2.2492533,2.8953154,9.15494,-0.004884445,0.015874445,0.007326666999999999,9.861790487999999,0.018153123,crawl
09/07/2020, 21:37:27,-2.2492533,2.8953154,9.15494,-0.018316668,0.008547778,0.006105556,9.861790487999999,0.021114986000000002,crawl
09/07/2020, 21:37:27,-2.2492533,2.9168507999999997,9.145369,-0.018316668,0.008547778,0.006105556,9.859255819,0.021114986000000002,crawl
09/07/2020, 21:37:28,-2.2492533,2.9168507999999997,9.145369,-0.039075557000000004,0.002442222,0.001221111,9.859255819,0.03917084,crawl
09/07/2020, 21:37:28,-2.2468605,2.8929226000000003,9.1669035,-0.039075557000000004,0.002442222,0.001221111,9.871651494,0.03917084,crawl
09/07/2020, 21:37:28,-2.2468605,2.8929226000000003,9.1669035,-0.036633335,-0.001221111,0.0,9.871651494,0.036653681,crawl
09/07/2020, 21:37:28,-2.201397,2.8378878,9.205189,-0.036633335,-0.001221111,0.0,9.881055379,0.036653681,crawl
09/07/2020, 21:37:28,-2.201397,2.8378878,9.205189,-0.02075889,0.004884445,-0.009768889000000001,9.881055379,0.023456779,crawl
09/07/2020, 21:37:28,-2.1583259999999997,2.7230322,9.174082,-0.02075889,0.004884445,-0.009768889000000001,9.810048533,0.023456779,crawl
09/07/2020, 21:37:28,-2.1583259999999997,2.7230322,9.174082,-0.0036633340000000003,0.014653333999999999,-0.014653333999999999,9.810048533,0.021044248999999998,crawl
09/07/2020, 21:37:28,-2.1631117000000004,2.7158537,9.188439,-0.0036633340000000003,0.014653333999999999,-0.014653333999999999,9.822542007000001,0.021044248999999998,crawl
09/07/2020, 21:37:28,-2.1631117000000004,2.7158537,9.188439,0.0036633340000000003,0.019537778999999998,-0.025643334,9.822542007000001,0.03244573,crawl
09/07/2020, 21:37:28,-2.1631117000000004,2.7182465000000002,9.224331,0.0036633340000000003,0.019537778999999998,-0.025643334,9.856784292,0.03244573,crawl
09/07/2020, 21:37:28,-2.1631117000000004,2.7182465000000002,9.224331,0.009768889000000001,0.025643334,-0.026864445,9.856784292,0.038401955,crawl
09/07/2020, 21:37:28,-2.2037897,2.7661029999999998,9.212367,0.009768889000000001,0.025643334,-0.026864445,9.867913755,0.038401955,crawl
09/07/2020, 21:37:28,-2.2037897,2.7661029999999998,9.212367,0.007326666999999999,0.02198,-0.03174889,9.867913755,0.039303849,crawl
09/07/2020, 21:37:28,-2.2301106,2.804388,9.202796000000001,0.007326666999999999,0.02198,-0.03174889,9.875699454,0.039303849,crawl
09/07/2020, 21:37:28,-2.2301106,2.804388,9.202796000000001,0.006105556,0.017095556,-0.034191112999999995,9.875699454,0.038711342999999995,crawl
09/07/2020, 21:37:28,-2.2301106,2.7996025,9.226724,0.006105556,0.017095556,-0.034191112999999995,9.896645765,0.038711342999999995,crawl
09/07/2020, 21:37:28,-2.2301106,2.7996025,9.226724,0.007326666999999999,0.014653333999999999,-0.03052778,9.896645765,0.034646004,crawl
09/07/2020, 21:37:28,-2.2348964,2.8019952999999997,9.195618,0.007326666999999999,0.014653333999999999,-0.03052778,9.869413558,0.034646004,crawl
09/07/2020, 21:37:28,-2.2348964,2.8019952999999997,9.195618,0.006105556,0.012211111,-0.03052778,9.869413558,0.033441507,crawl
09/07/2020, 21:37:28,-2.2468605,2.7828526,9.186047,0.006105556,0.012211111,-0.03052778,9.85779403,0.033441507,crawl
09/07/2020, 21:37:29,1.0408778,-4.7425747000000005,8.573483,-0.7888378,0.10501556,0.6838223000000001,9.852921399,1.0492407879999999,crawl
09/07/2020, 21:37:29,0.8925228999999999,-4.87418,8.456235000000001,-0.7888378,0.10501556,0.6838223000000001,9.801129292999999,1.0492407879999999,crawl
09/07/2020, 21:37:29,0.8925228999999999,-4.87418,8.456235000000001,-0.61788225,0.14409111,0.70336,9.801129292999999,0.947236003,crawl
09/07/2020, 21:37:29,0.8207382,-4.910072,8.425129,-0.61788225,0.14409111,0.70336,9.785970282000001,0.947236003,crawl
09/07/2020, 21:37:29,0.8207382,-4.910072,8.425129,-0.46646446,0.17950334,0.7558678000000001,9.785970282000001,0.9061714190000001,crawl
09/07/2020, 21:37:29,0.7728816999999999,-4.8933225,8.4347,-0.46646446,0.17950334,0.7558678000000001,9.781927988,0.9061714190000001,crawl
09/07/2020, 21:37:29,0.7728816999999999,-4.8933225,8.4347,-0.3394689,0.18316667,0.7986066999999999,9.781927988,0.8868832,crawl
09/07/2020, 21:37:29,0.63888365,-4.9340005,8.4682,-0.3394689,0.18316667,0.7986066999999999,9.821554858999999,0.8868832,crawl
09/07/2020, 21:37:29,0.63888365,-4.9340005,8.4682,-0.24055889,0.17217667,0.7900589,9.821554858999999,0.8436269740000001,crawl
09/07/2020, 21:37:29,0.41874397,-5.0775695,8.606983,-0.24055889,0.17217667,0.7900589,10.00186072,0.8436269740000001,crawl
09/07/2020, 21:37:29,0.41874397,-5.0775695,8.606983,-0.13798556,0.16729222,0.7680789000000001,10.00186072,0.798105215,crawl
09/07/2020, 21:37:29,0.25124636,-5.2235317000000006,8.788837,-0.13798556,0.16729222,0.7680789000000001,10.22702654,0.798105215,crawl
09/07/2020, 21:37:29,0.25124636,-5.2235317000000006,8.788837,-0.008547778,0.17584,0.7485411,10.22702654,0.768964613,crawl
09/07/2020, 21:37:29,0.15792629,-5.3383875,8.913264,-0.008547778,0.17584,0.7485411,10.3908422,0.768964613,crawl
09/07/2020, 21:37:29,0.15792629,-5.3383875,8.913264,0.13310112,0.20026223,0.7351089,10.3908422,0.773437769,crawl
09/07/2020, 21:37:29,0.04785645400000001,-5.3790655,9.0233345,0.13310112,0.20026223,0.7351089,10.5051036,0.773437769,crawl
09/07/2020, 21:37:29,0.04785645400000001,-5.3790655,9.0233345,0.2503278,0.22834780000000002,0.7216767,10.5051036,0.797260302,crawl
09/07/2020, 21:37:29,-0.038285162000000005,-5.347958599999999,8.973084,0.2503278,0.22834780000000002,0.7216767,10.44597392,0.797260302,crawl
09/07/2020, 21:37:29,-0.038285162000000005,-5.347958599999999,8.973084,0.3162678,0.23689556,0.71557117,10.44597392,0.817427008,crawl
09/07/2020, 21:37:29,-0.15314065,-5.2737813,8.863014999999999,0.3162678,0.23689556,0.71557117,10.31451692,0.817427008,crawl
09/07/2020, 21:37:30,-7.2406809999999995,-6.71426,4.6707897,-1.8402145,0.41395667,-1.8072445,10.92359964,2.612256175,crawl
09/07/2020, 21:37:30,-7.2406809999999995,-6.71426,4.6707897,-1.5972133999999998,0.43837890000000007,-1.8646368000000002,10.92359964,2.494020245,crawl
09/07/2020, 21:37:30,-7.2406809999999995,-6.7334027,4.625326,-1.5972133999999998,0.43837890000000007,-1.8646368000000002,10.91603491,2.494020245,crawl
09/07/2020, 21:37:30,-7.2406809999999995,-6.7334027,4.625326,-1.3517700000000001,0.46524334,-1.9037123,10.91603491,2.380725526,crawl
09/07/2020, 21:37:30,-7.3292155,-6.625725699999999,4.646861599999999,-1.3517700000000001,0.46524334,-1.9037123,10.91837736,2.380725526,crawl
09/07/2020, 21:37:30,-7.3292155,-6.625725699999999,4.646861599999999,-1.1539501,0.48478112,-1.9537779,10.91837736,2.320314994,crawl
09/07/2020, 21:37:30,-7.4919275999999995,-6.3792653,4.7138605,-1.1539501,0.48478112,-1.9537779,10.91075095,2.320314994,crawl
09/07/2020, 21:37:30,-7.4919275999999995,-6.3792653,4.7138605,-1.0025322,0.5043189,-2.012391,10.91075095,2.30415415,crawl
09/07/2020, 21:37:30,-7.757531,-6.1064834999999995,4.7569313,-1.0025322,0.5043189,-2.012391,10.95886972,2.30415415,crawl
09/07/2020, 21:37:30,-7.757531,-6.1064834999999995,4.7569313,-0.8950745000000001,0.5226356,-2.064899,10.95886972,2.310435897,crawl
09/07/2020, 21:37:30,-8.063811999999999,-5.8360944,4.759323999999999,-0.8950745000000001,0.5226356,-2.064899,11.03341431,2.310435897,crawl
09/07/2020, 21:37:30,-8.063811999999999,-5.8360944,4.759323999999999,-0.8535567,0.5030978,-2.108859,11.03341431,2.330011361,crawl
09/07/2020, 21:37:30,-8.360522,-5.5513487,4.7928239999999995,-0.8535567,0.5030978,-2.108859,11.12146415,2.330011361,crawl
09/07/2020, 21:37:30,-8.360522,-5.5513487,4.7928239999999995,-0.8645466999999999,0.47501224,-2.152819,11.12146415,2.368059744,crawl
09/07/2020, 21:37:30,-8.635697,-5.3024949999999995,4.814359,-0.8645466999999999,0.47501224,-2.152819,11.21917005,2.368059744,crawl
09/07/2020, 21:37:30,-8.635697,-5.3024949999999995,4.814359,-0.90240115,0.46402225,-2.2053267999999995,11.21917005,2.427573018,crawl
09/07/2020, 21:37:30,-8.930014,-5.1062837,4.8119664,-0.90240115,0.46402225,-2.2053267999999995,11.35668515,2.427573018,crawl
09/07/2020, 21:37:30,-8.930014,-5.1062837,4.8119664,-0.9304867,0.45181113,-2.27493,11.35668515,2.499048873,crawl
09/07/2020, 21:37:30,-9.221938,-5.0679984000000005,4.783252200000001,-0.9304867,0.45181113,-2.27493,11.55890362,2.499048873,crawl
09/07/2020, 21:37:30,-9.221938,-5.0679984000000005,4.783252200000001,-0.92438114,0.4261678,-2.3543024,11.55890362,2.564924811,crawl
09/07/2020, 21:37:31,-7.826923,-5.1014976999999995,3.5772698,0.23811668,-0.06227667,0.19049335,10.00414211,0.311232473,crawl
09/07/2020, 21:37:31,-7.826923,-5.1014976999999995,3.5772698,0.32115224,-0.025643334,0.058613338,10.00414211,0.327462769,crawl
09/07/2020, 21:37:31,-7.8604226,-5.103891,3.5796626000000002,0.32115224,-0.025643334,0.058613338,10.03244387,0.327462769,crawl
09/07/2020, 21:37:31,-7.8604226,-5.103891,3.5796626000000002,0.39686114,0.019537778999999998,-0.07693,10.03244387,0.404720535,crawl
09/07/2020, 21:37:31,-7.8436728,-5.0416775000000005,3.5629129999999996,0.39686114,0.019537778999999998,-0.07693,9.981786545,0.404720535,crawl
09/07/2020, 21:37:31,-7.8436728,-5.0416775000000005,3.5629129999999996,0.42250445,0.06716111,-0.21613668,9.981786545,0.479307515,crawl
09/07/2020, 21:37:31,-7.8723865,-4.8909297,3.546163,0.42250445,0.06716111,-0.21613668,9.92325221,0.479307515,crawl
09/07/2020, 21:37:31,-7.8723865,-4.8909297,3.546163,0.38953447,0.091583334,-0.35900667,9.92325221,0.537596879,crawl
09/07/2020, 21:37:31,-8.001599,-4.682754,3.5150563999999997,0.38953447,0.091583334,-0.35900667,9.915109593,0.537596879,crawl
09/07/2020, 21:37:31,-8.001599,-4.682754,3.5150563999999997,0.31260446,0.102573335,-0.49943447,9.915109593,0.5980615579999999,crawl
09/07/2020, 21:37:31,-8.147561,-4.510471,3.4743786,0.31260446,0.102573335,-0.49943447,9.939738701,0.5980615579999999,crawl
09/07/2020, 21:37:31,-8.147561,-4.510471,3.4743786,0.21491556,0.09891000400000001,-0.64108336,9.939738701,0.68334454,crawl
09/07/2020, 21:37:31,-8.271988,-4.3740797,3.4265220000000003,0.21491556,0.09891000400000001,-0.64108336,9.964908954,0.68334454,crawl
09/07/2020, 21:37:31,-8.271988,-4.3740797,3.4265220000000003,0.1306589,0.09524667,-0.7754055999999999,9.964908954,0.792084274,crawl
09/07/2020, 21:37:31,-8.386844,-4.2927237,3.4073794,0.1306589,0.09524667,-0.7754055999999999,10.01882516,0.792084274,crawl
09/07/2020, 21:37:31,-8.386844,-4.2927237,3.4073794,0.05617111,0.09891000400000001,-0.8999589,10.01882516,0.907118746,crawl
09/07/2020, 21:37:31,-8.482556,-4.225724700000001,3.3930225,0.05617111,0.09891000400000001,-0.8999589,10.06593827,0.907118746,crawl
09/07/2020, 21:37:31,-8.482556,-4.225724700000001,3.3930225,-0.025643334,0.106236674,-1.0293967,10.06593827,1.0351817620000001,crawl
09/07/2020, 21:37:31,-8.647661,-4.213761,3.400201,-0.025643334,0.106236674,-1.0293967,10.20290117,1.0351817620000001,crawl
09/07/2020, 21:37:31,-8.647661,-4.213761,3.400201,-0.10745778,0.11844778,-1.1624979,10.20290117,1.173447216,crawl
09/07/2020, 21:37:32,-8.233703,-4.15394,3.6705900000000002,0.102573335,0.04029667,0.93537116,9.925840472,0.94184092,crawl
09/07/2020, 21:37:32,-8.233703,-4.15394,3.6705900000000002,0.07326667,0.029306669,0.85599893,9.925840472,0.859628443,crawl
09/07/2020, 21:37:32,-8.092526,-4.1898327,3.6586258000000003,0.07326667,0.029306669,0.85599893,9.819838343999999,0.859628443,crawl
09/07/2020, 21:37:32,-8.092526,-4.1898327,3.6586258000000003,0.057392225,0.025643334,0.77296335,9.819838343999999,0.7755151709999999,crawl
09/07/2020, 21:37:32,-7.960921000000001,-4.211368,3.6801612,0.057392225,0.025643334,0.77296335,9.729104174,0.7755151709999999,crawl
09/07/2020, 21:37:32,-7.960921000000001,-4.211368,3.6801612,0.05372889,0.024422223,0.69481224,9.729104174,0.697314337,crawl
09/07/2020, 21:37:32,-7.8604226,-4.2329035,3.6921253,0.05372889,0.024422223,0.69481224,9.661030219,0.697314337,crawl
09/07/2020, 21:37:32,-7.8604226,-4.2329035,3.6921253,0.06716111,0.025643334,0.60811335,9.661030219,0.612347973,crawl
09/07/2020, 21:37:32,-7.771888000000001,-4.2711883,3.7064822,0.06716111,0.025643334,0.60811335,9.611623114,0.612347973,crawl
09/07/2020, 21:37:32,-7.771888000000001,-4.2711883,3.7064822,0.07448778,0.029306669,0.5324045000000001,9.611623114,0.53838819,crawl
09/07/2020, 21:37:32,-7.755138400000001,-4.2951164,3.7208392999999997,0.07448778,0.029306669,0.5324045000000001,9.614304004,0.53838819,crawl
09/07/2020, 21:37:32,-7.755138400000001,-4.2951164,3.7208392999999997,0.07326667,0.023201112000000003,0.45181113,9.614304004,0.458300773,crawl
09/07/2020, 21:37:32,-7.776674000000001,-4.299902400000001,3.723232,0.07326667,0.023201112000000003,0.45181113,9.634743019,0.458300773,crawl
09/07/2020, 21:37:32,-7.776674000000001,-4.299902400000001,3.723232,0.064718895,0.013432221999999999,0.3712178,9.634743019,0.377056502,crawl
09/07/2020, 21:37:32,-7.836494,-4.2951164,3.7136607,0.064718895,0.013432221999999999,0.3712178,9.677289845,0.377056502,crawl
09/07/2020, 21:37:32,-7.836494,-4.2951164,3.7136607,0.051286668,0.001221111,0.28696109999999997,9.677289845,0.291510705,crawl
09/07/2020, 21:37:32,-7.884351,-4.3166519999999995,3.6801612,0.051286668,0.001221111,0.28696109999999997,9.712880976000001,0.291510705,crawl
09/07/2020, 21:37:32,-7.884351,-4.3166519999999995,3.6801612,0.037854444,-0.015874445,0.20514667,9.712880976000001,0.20921308100000002,crawl
09/07/2020, 21:37:32,-7.925028999999999,-4.304688,3.6514472999999996,0.037854444,-0.015874445,0.20514667,9.729824635,0.20921308100000002,crawl
09/07/2020, 21:37:32,-7.925028999999999,-4.304688,3.6514472999999996,0.036633335,-0.03174889,0.11234222,9.729824635,0.122355092,crawl
09/07/2020, 21:37:33,-9.042477,-2.902494,3.1441689,0.10013112,0.28818223,1.8621945,10.00383191,1.887019803,crawl
09/07/2020, 21:37:33,-9.147761000000001,-2.9192436,3.2135607999999998,0.10013112,0.28818223,1.8621945,10.12573424,1.887019803,crawl
09/07/2020, 21:37:33,-9.147761000000001,-2.9192436,3.2135607999999998,0.12089001,0.29306668,1.8597523,10.12573424,1.886579201,crawl
09/07/2020, 21:37:33,-9.272188,-3.089134,3.3044882000000007,0.12089001,0.29306668,1.8597523,10.31677588,1.886579201,crawl
09/07/2020, 21:37:33,-9.272188,-3.089134,3.3044882000000007,0.15508112,0.28818223,1.8524256000000001,10.31677588,1.8811112840000002,crawl
09/07/2020, 21:37:33,-9.327223,-3.2039895,3.3930225,0.15508112,0.28818223,1.8524256000000001,10.42953673,1.8811112840000002,crawl
09/07/2020, 21:37:33,-9.327223,-3.2039895,3.3930225,0.21125223,0.28696109999999997,1.8475412,10.42953673,1.881590475,crawl
09/07/2020, 21:37:33,-9.329616,-3.2422748,3.4456646,0.21125223,0.28696109999999997,1.8475412,10.4607207,1.881590475,crawl
09/07/2020, 21:37:33,-9.329616,-3.2422748,3.4456646,0.28818223,0.29795113,1.8353301,10.4607207,1.881558013,crawl
09/07/2020, 21:37:33,-9.274581,-3.1441689,3.455236,0.28818223,0.29795113,1.8353301,10.38471498,1.881558013,crawl
09/07/2020, 21:37:33,-9.274581,-3.1441689,3.455236,0.36267,0.32237336,1.834109,10.38471498,1.897211046,crawl
09/07/2020, 21:37:33,-9.195618,-2.928815,3.4097722000000004,0.36267,0.32237336,1.834109,10.23542316,1.897211046,crawl
09/07/2020, 21:37:33,-9.195618,-2.928815,3.4097722000000004,0.3931978,0.33092109999999997,1.7974756,10.23542316,1.8695004000000002,crawl
09/07/2020, 21:37:33,-9.174082,-2.7565317000000005,3.400201,0.3931978,0.33092109999999997,1.7974756,10.16482225,1.8695004000000002,crawl
09/07/2020, 21:37:33,-9.174082,-2.7565317000000005,3.400201,0.39808223,0.3260367,1.7400835,10.16482225,1.814568769,crawl
09/07/2020, 21:37:33,-9.238688,-2.6751757,3.438486,0.39808223,0.3260367,1.7400835,10.21435833,1.814568769,crawl
09/07/2020, 21:37:33,-9.238688,-2.6751757,3.438486,0.40296668,0.31138334,1.691239,10.21435833,1.76624774,crawl
09/07/2020, 21:37:33,-9.32483,-2.6201408,3.5102708,0.40296668,0.31138334,1.691239,10.30240723,1.76624774,crawl
09/07/2020, 21:37:33,-9.32483,-2.6201408,3.5102708,0.39686114,0.3052778,1.6497210999999998,10.30240723,1.724028176,crawl
09/07/2020, 21:37:33,-9.322436999999999,-2.5052852999999997,3.5820556000000003,0.39686114,0.3052778,1.6497210999999998,10.29637865,1.724028176,crawl
09/07/2020, 21:37:34,-8.477771,-3.9026937000000004,2.8666015,0.19171445,0.05250778,0.83890337,9.76324845,0.8621312879999999,crawl
09/07/2020, 21:37:34,-8.477771,-3.9026937000000004,2.8666015,0.17950334,0.037854444,0.8914110999999999,9.76324845,0.9100924140000001,crawl
09/07/2020, 21:37:34,-8.583055,-3.8452660000000005,2.8235307,0.17950334,0.037854444,0.8914110999999999,9.819736359,0.9100924140000001,crawl
09/07/2020, 21:37:34,-8.583055,-3.8452660000000005,2.8235307,0.15019667,0.02075889,0.9317078000000001,9.819736359,0.943964721,crawl
09/07/2020, 21:37:34,-8.58784,-3.8165522000000003,2.7972097000000002,0.15019667,0.02075889,0.9317078000000001,9.805174653,0.943964721,crawl
09/07/2020, 21:37:34,-8.58784,-3.8165522000000003,2.7972097000000002,0.11844778,0.012211111,0.97078335,9.805174653,0.9780589479999999,crawl
09/07/2020, 21:37:34,-8.520842,-3.7974095,2.737389,0.11844778,0.012211111,0.97078335,9.722055325,0.9780589479999999,crawl
09/07/2020, 21:37:34,-8.520842,-3.7974095,2.737389,0.08669889,0.013432221999999999,1.0074167,9.722055325,1.011229737,crawl
09/07/2020, 21:37:34,-8.456235000000001,-3.792624,2.6751757,0.08669889,0.013432221999999999,1.0074167,9.64616353,1.011229737,crawl
09/07/2020, 21:37:34,-8.456235000000001,-3.792624,2.6751757,0.06349778,0.03174889,1.0416079,9.64616353,1.044024371,crawl
09/07/2020, 21:37:34,-8.492127,-3.818945,2.6536402999999997,0.06349778,0.03174889,1.0416079,9.682064613,1.044024371,crawl
09/07/2020, 21:37:34,-8.492127,-3.818945,2.6536402999999997,0.06105556,0.05250778,1.0794622999999999,9.682064613,1.082461862,crawl
09/07/2020, 21:37:34,-8.652447,-3.8428730000000004,2.6249263,0.06105556,0.05250778,1.0794622999999999,9.824599054,1.082461862,crawl
09/07/2020, 21:37:34,-8.652447,-3.8428730000000004,2.6249263,0.064718895,0.06960334,1.1063266999999999,9.824599054,1.110401696,crawl
09/07/2020, 21:37:34,-8.913264,-3.897908,2.6177479999999997,0.064718895,0.06960334,1.1063266999999999,10.07435215,1.110401696,crawl
09/07/2020, 21:37:34,-8.913264,-3.897908,2.6177479999999997,0.07204556,0.07326667,1.1331911,10.07435215,1.137840347,crawl
09/07/2020, 21:37:34,-9.157332,-3.912265,2.6129622,0.07204556,0.07326667,1.1331911,10.29515064,1.137840347,crawl
09/07/2020, 21:37:34,-9.157332,-3.912265,2.6129622,0.059834447,0.06838222599999999,1.1515079,10.29515064,1.155087282,crawl
09/07/2020, 21:37:34,-9.293723,-3.8668015,2.5818555,0.059834447,0.06838222599999999,1.1515079,10.39189208,1.155087282,crawl
09/07/2020, 21:37:34,-9.293723,-3.8668015,2.5818555,0.009768889000000001,0.070824444,1.1698245,10.39189208,1.172007188,crawl
09/07/2020, 21:37:35,-9.793823,-4.067798600000001,2.5316064,0.8205867,0.2942878,-2.1760201,10.9029808,2.34414835,crawl
09/07/2020, 21:37:35,-9.793823,-4.067798600000001,2.5316064,0.8962956,0.33214223,-2.1894524,10.9029808,2.3890094459999998,crawl
09/07/2020, 21:37:35,-9.927821,-4.022335,2.6225336,0.8962956,0.33214223,-2.1894524,11.02807755,2.3890094459999998,crawl
09/07/2020, 21:37:35,-9.927821,-4.022335,2.6225336,0.92560226,0.35778558,-2.2102112999999997,11.02807755,2.422763701,crawl
09/07/2020, 21:37:35,-10.0881405,-3.991228,2.7206392000000004,0.92560226,0.35778558,-2.2102112999999997,11.18491654,2.422763701,crawl
09/07/2020, 21:37:35,-10.0881405,-3.991228,2.7206392000000004,0.9304867,0.3492378,-2.2224223999999997,11.18491654,2.434529452,crawl
09/07/2020, 21:37:35,-10.236495,-3.952943,2.7397819,0.9304867,0.3492378,-2.2224223999999997,11.31008373,2.434529452,crawl
09/07/2020, 21:37:35,-10.236495,-3.952943,2.7397819,0.90362227,0.31871,-2.2224223999999997,11.31008373,2.420179833,crawl
09/07/2020, 21:37:35,-10.253245,-3.8811584000000003,2.7062824,0.90362227,0.31871,-2.2224223999999997,11.29231574,2.420179833,crawl
09/07/2020, 21:37:35,-10.253245,-3.8811584000000003,2.7062824,0.85722005,0.28574002,-2.20899,11.29231574,2.386652641,crawl
09/07/2020, 21:37:35,-10.150352999999999,-3.7950168,2.5914268,0.85722005,0.28574002,-2.20899,11.14214163,2.386652641,crawl
09/07/2020, 21:37:35,-10.150352999999999,-3.7950168,2.5914268,0.78395337,0.26620224,-2.1931157000000003,11.14214163,2.344184942,crawl
09/07/2020, 21:37:35,-9.9756775,-3.6873398,2.4502504000000003,0.78395337,0.26620224,-2.1931157000000003,10.91395176,2.344184942,crawl
09/07/2020, 21:37:35,-9.9756775,-3.6873398,2.4502504000000003,0.6801589,0.2613178,-2.162588,10.91395176,2.2820362569999997,crawl
09/07/2020, 21:37:35,-9.772287,-3.5174494,2.321038,0.6801589,0.2613178,-2.162588,10.6422398,2.2820362569999997,crawl
09/07/2020, 21:37:35,-9.772287,-3.5174494,2.321038,0.55316335,0.2503278,-2.1296180000000002,10.6422398,2.2144810280000002,crawl
09/07/2020, 21:37:35,-9.62154,-3.385844,2.239682,0.55316335,0.2503278,-2.1296180000000002,10.44289941,2.2144810280000002,crawl
09/07/2020, 21:37:35,-9.62154,-3.385844,2.239682,0.44692668,0.25277,-2.0917635,10.44289941,2.15385948,crawl
09/07/2020, 21:37:35,-9.556933,-3.4049866,2.172683,0.44692668,0.25277,-2.0917635,10.37542584,2.15385948,crawl
09/07/2020, 21:37:35,-9.556933,-3.4049866,2.172683,0.38831335,0.26620224,-2.053909,10.37542584,2.1071766259999998,crawl
09/07/2020, 21:37:36,-8.379665,-4.3070807,3.3690943999999994,0.1526389,0.04151778,-1.1270856000000002,10.00602485,1.138131905,crawl
09/07/2020, 21:37:36,-8.487342,-4.2568316,3.4073794,0.1526389,0.04151778,-1.1270856000000002,10.08790475,1.138131905,crawl
09/07/2020, 21:37:36,-8.487342,-4.2568316,3.4073794,0.16851334,0.05250778,-1.1783723,10.08790475,1.191517942,crawl
09/07/2020, 21:37:36,-8.678768,-4.194618,3.4600215,0.16851334,0.05250778,-1.1783723,10.24146413,1.191517942,crawl
09/07/2020, 21:37:36,-8.678768,-4.194618,3.4600215,0.1526389,0.047623335999999995,-1.2247745,10.24146413,1.235167657,crawl
09/07/2020, 21:37:36,-8.834301,-4.1611185,3.4337006000000003,0.1526389,0.047623335999999995,-1.2247745,10.35133232,1.235167657,crawl
09/07/2020, 21:37:36,-8.834301,-4.1611185,3.4337006000000003,0.1306589,0.026864445,-1.2662921999999999,10.35133232,1.273298636,crawl
09/07/2020, 21:37:36,-8.932407000000001,-4.168297,3.3690943999999994,0.1306589,0.026864445,-1.2662921999999999,10.41697638,1.273298636,crawl
09/07/2020, 21:37:36,-8.932407000000001,-4.168297,3.3690943999999994,0.109900005,0.01099,-1.2980411,10.41697638,1.302731554,crawl
09/07/2020, 21:37:36,-8.91805,-4.1491546999999995,3.3068809999999997,0.109900005,0.01099,-1.2980411,10.37702069,1.302731554,crawl
09/07/2020, 21:37:36,-8.91805,-4.1491546999999995,3.3068809999999997,0.10135223,0.004884445,-1.339559,10.37702069,1.3433965669999999,crawl
09/07/2020, 21:37:36,-8.874979,-4.139583,3.2015967,0.10135223,0.004884445,-1.339559,10.30299095,1.3433965669999999,crawl
09/07/2020, 21:37:36,-8.874979,-4.139583,3.2015967,0.12211112,0.017095556,-1.3700867,10.30299095,1.37562381,crawl
09/07/2020, 21:37:36,-8.831908,-4.1467614,3.1274192000000003,0.12211112,0.017095556,-1.3700867,10.24592525,1.37562381,crawl
09/07/2020, 21:37:36,-8.831908,-4.1467614,3.1274192000000003,0.16607112,0.036633335,-1.4018356,10.24592525,1.412113507,crawl
09/07/2020, 21:37:36,-8.803194,-4.165904,3.0364918999999997,0.16607112,0.036633335,-1.4018356,10.20153247,1.412113507,crawl
09/07/2020, 21:37:36,-8.803194,-4.165904,3.0364918999999997,0.22590557,0.06594,-1.4299212,10.20153247,1.449156963,crawl
09/07/2020, 21:37:36,-8.829514999999999,-4.197011,2.9599216,0.22590557,0.06594,-1.4299212,10.21451812,1.449156963,crawl
09/07/2020, 21:37:36,-8.829514999999999,-4.197011,2.9599216,0.29673,0.08792,-1.4470167,10.21451812,1.47974187,crawl
09/07/2020, 21:37:36,-8.851051,-4.197011,2.8881368999999997,0.29673,0.08792,-1.4470167,10.21260718,1.47974187,crawl
09/07/2020, 21:37:37,-8.422736,-4.017549,3.2590244,-0.23079000000000002,-0.014653333999999999,0.74976224,9.884554858,0.78461593,crawl
09/07/2020, 21:37:37,-8.4012,-3.991228,3.2709884999999996,-0.23079000000000002,-0.014653333999999999,0.74976224,9.859484454,0.78461593,crawl
09/07/2020, 21:37:37,-8.4012,-3.991228,3.2709884999999996,-0.25277,-0.028085556,0.68260115,9.859484454,0.72844067,crawl
09/07/2020, 21:37:37,-8.276773,-3.9984066,3.3236306000000004,-0.25277,-0.028085556,0.68260115,9.774392804,0.72844067,crawl
09/07/2020, 21:37:37,-8.276773,-3.9984066,3.3236306000000004,-0.27108666,-0.03052778,0.6117767,9.774392804,0.6698437629999999,crawl
09/07/2020, 21:37:37,-8.1738825,-4.034299,3.3260236000000005,-0.27108666,-0.03052778,0.6117767,9.703110599,0.6698437629999999,crawl
09/07/2020, 21:37:37,-8.1738825,-4.034299,3.3260236000000005,-0.25887558,-0.024422223,0.54095227,9.703110599,0.600201936,crawl
09/07/2020, 21:37:37,-8.123632,-4.106084,3.35713,-0.25887558,-0.024422223,0.54095227,9.701734422000001,0.600201936,crawl
09/07/2020, 21:37:37,-8.123632,-4.106084,3.35713,-0.21980001,-0.014653333999999999,0.47012780000000004,9.701734422000001,0.519179068,crawl
09/07/2020, 21:37:37,-7.989635000000001,-4.1491546999999995,3.37388,-0.21980001,-0.014653333999999999,0.47012780000000004,9.614198737,0.519179068,crawl
09/07/2020, 21:37:37,-7.989635000000001,-4.1491546999999995,3.37388,-0.15630223,0.001221111,0.38953447,9.614198737,0.419724891,crawl
09/07/2020, 21:37:37,-7.896314599999999,-4.216153599999999,3.3906297999999997,-0.15630223,0.001221111,0.38953447,9.572048171,0.419724891,crawl
09/07/2020, 21:37:37,-7.896314599999999,-4.216153599999999,3.3906297999999997,-0.085477784,0.023201112000000003,0.31138334,9.572048171,0.323734962,crawl
09/07/2020, 21:37:37,-7.850851,-4.2687955,3.4313076000000002,-0.085477784,0.023201112000000003,0.31138334,9.572478719,0.323734962,crawl
09/07/2020, 21:37:37,-7.850851,-4.2687955,3.4313076000000002,-0.02075889,0.048844445,0.23445335,9.572478719,0.24038528399999998,crawl
09/07/2020, 21:37:37,-7.8484583,-4.223332,3.438486,-0.02075889,0.048844445,0.23445335,9.552906195,0.24038528399999998,crawl
09/07/2020, 21:37:37,-7.8484583,-4.223332,3.438486,0.019537778999999998,0.06349778,0.16729222,9.552906195,0.18000105800000002,crawl
09/07/2020, 21:37:37,-7.953742500000001,-4.206582,3.4863427000000002,0.019537778999999998,0.06349778,0.16729222,9.649452717,0.18000105800000002,crawl
09/07/2020, 21:37:37,-7.953742500000001,-4.206582,3.4863427000000002,0.042738892,0.06716111,0.085477784,9.649452717,0.116806163,crawl
09/07/2020, 21:37:37,-8.118847,-4.173083,3.493521,0.042738892,0.06716111,0.085477784,9.774199915,0.116806163,crawl
09/07/2020, 21:37:38,-8.807981,-3.912265,3.1417759999999997,-0.16729222,-0.19293556,1.4970822,10.13691748,1.51870538,crawl
09/07/2020, 21:37:38,-8.736196000000001,-3.8907297,3.1226335,-0.16729222,-0.19293556,1.4970822,10.06030467,1.51870538,crawl
09/07/2020, 21:37:38,-8.736196000000001,-3.8907297,3.1226335,-0.15508112,-0.18072446,1.4958612,10.06030467,1.5146986930000002,crawl
09/07/2020, 21:37:38,-8.717052,-3.8620156999999997,3.0675986,-0.15508112,-0.18072446,1.4958612,10.01560433,1.5146986930000002,crawl
09/07/2020, 21:37:38,-8.717052,-3.8620156999999997,3.0675986,-0.14287001,-0.1746189,1.4873134,10.01560433,1.504328661,crawl
09/07/2020, 21:37:38,-8.685946000000001,-3.8691942999999998,3.0747771,-0.14287001,-0.1746189,1.4873134,9.993527138,1.504328661,crawl
09/07/2020, 21:37:38,-8.685946000000001,-3.8691942999999998,3.0747771,-0.12943779,-0.16240779,1.4751023,9.993527138,1.48965004,crawl
09/07/2020, 21:37:38,-8.7266245,-3.8859440000000003,3.0795627,-0.12943779,-0.16240779,1.4751023,10.03684418,1.48965004,crawl
09/07/2020, 21:37:38,-8.7266245,-3.8859440000000003,3.0795627,-0.12821667,-0.1306589,1.4677756000000002,10.03684418,1.479147195,crawl
09/07/2020, 21:37:38,-8.717052,-3.818945,2.9479575000000002,-0.12821667,-0.1306589,1.4677756000000002,9.963021504,1.479147195,crawl
09/07/2020, 21:37:38,-8.717052,-3.818945,2.9479575000000002,-0.29673,-0.12577444,1.4287001,9.963021504,1.464599555,crawl
09/07/2020, 21:37:38,-8.956335000000001,-3.3164523,2.8833512999999997,-0.29673,-0.12577444,1.4287001,9.976397562999999,1.464599555,crawl
09/07/2020, 21:37:38,-8.956335000000001,-3.3164523,2.8833512999999997,-0.36755446,-0.37610224,1.3517700000000001,9.976397562999999,1.450459039,crawl
09/07/2020, 21:37:38,-9.315259,-3.9290147000000006,3.3690943999999994,-0.36755446,-0.37610224,1.3517700000000001,10.65654743,1.450459039,crawl
09/07/2020, 21:37:38,-9.315259,-3.9290147000000006,3.3690943999999994,-0.3052778,-0.25765446,1.28583,10.65654743,1.346454305,crawl
09/07/2020, 21:37:38,-8.987442,-4.682754,3.5389847999999997,-0.3052778,-0.25765446,1.28583,10.73437062,1.346454305,crawl
09/07/2020, 21:37:38,-8.987442,-4.682754,3.5389847999999997,-0.12821667,-0.12943779,1.27484,10.73437062,1.287792947,crawl
09/07/2020, 21:37:38,-8.69791,-4.508078,3.3547373,-0.12821667,-0.12943779,1.27484,10.35522448,1.287792947,crawl
09/07/2020, 21:37:38,-8.69791,-4.508078,3.3547373,-0.04396,-0.11234222,1.3139156,10.35522448,1.319442112,crawl
09/07/2020, 21:37:38,-8.413164,-3.9074793,3.4169507000000006,-0.04396,-0.11234222,1.3139156,9.885609607000001,1.319442112,crawl
09/07/2020, 21:37:39,-8.458628,-3.2231321,2.6177479999999997,0.017095556,0.035412222,-0.42494670000000007,9.42282166,0.42676220299999995,crawl
09/07/2020, 21:37:39,-8.458628,-3.2231321,2.6177479999999997,-0.02198,0.014653333999999999,-0.3614489,9.42282166,0.362412966,crawl
09/07/2020, 21:37:39,-8.458628,-3.2566316000000004,2.6321049,-0.02198,0.014653333999999999,-0.3614489,9.438326552000001,0.362412966,crawl
09/07/2020, 21:37:39,-8.458628,-3.2566316000000004,2.6321049,-0.05250778,-0.0036633340000000003,-0.29306668,9.438326552000001,0.29775588399999997,crawl
09/07/2020, 21:37:39,-8.439486,-3.2829528,2.6488547000000002,-0.05250778,-0.0036633340000000003,-0.29306668,9.434994792000001,0.29775588399999997,crawl
09/07/2020, 21:37:39,-8.439486,-3.2829528,2.6488547000000002,-0.070824444,-0.007326666999999999,-0.23567446,9.434994792000001,0.24619551399999998,crawl
09/07/2020, 21:37:39,-8.382058,-3.3475589999999995,2.6656044,-0.070824444,-0.007326666999999999,-0.23567446,9.411189956,0.24619551399999998,crawl
09/07/2020, 21:37:39,-8.382058,-3.3475589999999995,2.6656044,-0.07448778,-0.013432221999999999,-0.17339778,9.411189956,0.18919736899999998,crawl
09/07/2020, 21:37:39,-8.379665,-3.3619158,2.6751757,-0.07448778,-0.013432221999999999,-0.17339778,9.416890924,0.18919736899999998,crawl
09/07/2020, 21:37:39,-8.379665,-3.3619158,2.6751757,-0.081814446,-0.028085556,-0.10867889,9.416890924,0.138901057,crawl
09/07/2020, 21:37:39,-8.367701,-3.37388,2.6321049,-0.081814446,-0.028085556,-0.10867889,9.398375107,0.138901057,crawl
09/07/2020, 21:37:39,-8.367701,-3.37388,2.6321049,-0.08914111599999999,-0.035412222,-0.046402223,9.398375107,0.10655200699999999,crawl
09/07/2020, 21:37:39,-8.331808,-3.3786657,2.6560330000000003,-0.08914111599999999,-0.035412222,-0.046402223,9.374909033,0.10655200699999999,crawl
09/07/2020, 21:37:39,-8.331808,-3.3786657,2.6560330000000003,-0.091583334,-0.046402223,0.025643334,9.374909033,0.105821803,crawl
09/07/2020, 21:37:39,-8.260024000000001,-3.3954153,2.6727830000000004,-0.091583334,-0.046402223,0.025643334,9.32204973,0.105821803,crawl
09/07/2020, 21:37:39,-8.260024000000001,-3.3954153,2.6727830000000004,-0.09036223,-0.042738892,0.09891000400000001,9.32204973,0.140624088,crawl
09/07/2020, 21:37:39,-8.228917,-3.3954153,2.6679974,-0.09036223,-0.042738892,0.09891000400000001,9.293122834,0.140624088,crawl
09/07/2020, 21:37:39,-8.228917,-3.3954153,2.6679974,-0.08914111599999999,-0.04396,0.16485001,9.293122834,0.19249453600000002,crawl
09/07/2020, 21:37:39,-8.219346,-3.4217364999999997,2.6416762,-0.08914111599999999,-0.04396,0.16485001,9.286785399,0.19249453600000002,crawl
09/07/2020, 21:37:39,-8.219346,-3.4217364999999997,2.6416762,-0.07937223,-0.04151778,0.23811668,9.286785399,0.254407607,crawl
09/07/2020, 21:37:40,-9.5760765,-3.9026937000000004,3.1752756,-0.064718895,0.015874445,-1.812129,10.81733029,1.8133538319999998,crawl
09/07/2020, 21:37:40,-9.5760765,-3.9026937000000004,3.1752756,-0.017095556,0.03174889,-1.8304456000000002,10.81733029,1.830800786,crawl
09/07/2020, 21:37:40,-9.530613,-3.9074793,3.1250265,-0.017095556,0.03174889,-1.8304456000000002,10.76414269,1.830800786,crawl
09/07/2020, 21:37:40,-9.530613,-3.9074793,3.1250265,0.034191112999999995,0.047623335999999995,-1.8377723000000001,10.76414269,1.838707116,crawl
09/07/2020, 21:37:40,-9.408579,-3.8476589,3.1154552000000004,0.034191112999999995,0.047623335999999995,-1.8377723000000001,10.63164597,1.838707116,crawl
09/07/2020, 21:37:40,-9.408579,-3.8476589,3.1154552000000004,0.07204556,0.06960334,-1.8438778999999998,10.63164597,1.846597124,crawl
09/07/2020, 21:37:40,-9.272188,-3.790231,3.089134,0.07204556,0.06960334,-1.8438778999999998,10.48246505,1.846597124,crawl
09/07/2020, 21:37:40,-9.272188,-3.790231,3.089134,0.091583334,0.081814446,-1.8389933999999997,10.48246505,1.84308924,crawl
09/07/2020, 21:37:40,-9.183653,-3.7136607,3.0412776000000004,0.091583334,0.081814446,-1.8389933999999997,10.36243822,1.84308924,crawl
09/07/2020, 21:37:40,-9.183653,-3.7136607,3.0412776000000004,0.08914111599999999,0.09036223,-1.8267823,10.36243822,1.831186831,crawl
09/07/2020, 21:37:40,-9.097511,-3.6729827000000004,2.9982069,0.08914111599999999,0.09036223,-1.8267823,10.25888678,1.831186831,crawl
09/07/2020, 21:37:40,-9.097511,-3.6729827000000004,2.9982069,0.06960334,0.10135223,-1.8096868000000002,10.25888678,1.8138586330000002,crawl
09/07/2020, 21:37:40,-9.047262,-3.6299120000000005,2.9623144,0.06960334,0.10135223,-1.8096868000000002,10.18845032,1.8138586330000002,crawl
09/07/2020, 21:37:40,-9.047262,-3.6299120000000005,2.9623144,0.064718895,0.117226675,-1.7816011999999999,10.18845032,1.786626271,crawl
09/07/2020, 21:37:40,-9.080762,-3.6634114,2.9383862,0.064718895,0.117226675,-1.7816011999999999,10.22325453,1.786626271,crawl
09/07/2020, 21:37:40,-9.080762,-3.6634114,2.9383862,0.07204556,0.11966889,-1.7486311999999997,10.22325453,1.754201361,crawl
09/07/2020, 21:37:40,-9.06162,-3.6466617999999995,2.8977082000000003,0.07204556,0.11966889,-1.7486311999999997,10.18861165,1.754201361,crawl
09/07/2020, 21:37:40,-9.06162,-3.6466617999999995,2.8977082000000003,0.081814446,0.11234222,-1.7181034,10.18861165,1.723715087,crawl
09/07/2020, 21:37:40,-9.016156,-3.6873398,2.9168507999999997,0.081814446,0.11234222,-1.7181034,10.16836102,1.723715087,crawl
09/07/2020, 21:37:40,-9.016156,-3.6873398,2.9168507999999997,0.09036223,0.11966889,-1.6863544999999998,10.16836102,1.6930084280000002,crawl
09/07/2020, 21:37:41,-8.269594999999999,-2.2564318,3.8333017999999996,-0.057392225,0.012211111,-0.32359445,9.38998887,0.328871323,crawl
09/07/2020, 21:37:41,-8.269594999999999,-2.2564318,3.8333017999999996,-0.07448778,-0.001221111,-0.38587109999999997,9.38998887,0.39299673799999996,crawl
09/07/2020, 21:37:41,-8.30788,-2.2923240000000003,3.8261235,-0.07448778,-0.001221111,-0.38587109999999997,9.429466965,0.39299673799999996,crawl
09/07/2020, 21:37:41,-8.30788,-2.2923240000000003,3.8261235,-0.07815111400000001,-0.017095556,-0.4591378,9.429466965,0.466055117,crawl
09/07/2020, 21:37:41,-8.362915,-2.3234307999999997,3.8333017999999996,-0.07815111400000001,-0.017095556,-0.4591378,9.488460417,0.466055117,crawl
09/07/2020, 21:37:41,-8.362915,-2.3234307999999997,3.8333017999999996,-0.06227667,-0.02198,-0.53851,9.488460417,0.542544515,crawl
09/07/2020, 21:37:41,-8.391629,-2.3545375,3.8428730000000004,-0.06227667,-0.02198,-0.53851,9.52528012,0.542544515,crawl
09/07/2020, 21:37:41,-8.391629,-2.3545375,3.8428730000000004,-0.037854444,-0.028085556,-0.60933447,9.52528012,0.611154851,crawl
09/07/2020, 21:37:41,-8.403592999999999,-2.400001,3.8644084999999997,-0.037854444,-0.028085556,-0.60933447,9.555837713999999,0.611154851,crawl
09/07/2020, 21:37:41,-8.403592999999999,-2.400001,3.8644084999999997,-0.007326666999999999,-0.034191112999999995,-0.6838223000000001,9.555837713999999,0.684715718,crawl
09/07/2020, 21:37:41,-8.410771,-2.4598217,3.8572302000000005,-0.007326666999999999,-0.034191112999999995,-0.6838223000000001,9.574446331,0.684715718,crawl
09/07/2020, 21:37:41,-8.410771,-2.4598217,3.8572302000000005,0.024422223,-0.028085556,-0.77052116,9.574446331,0.771419541,crawl
09/07/2020, 21:37:41,-8.441877999999999,-2.4885356,3.8787656000000004,0.024422223,-0.028085556,-0.77052116,9.617844958,0.771419541,crawl
09/07/2020, 21:37:41,-8.441877999999999,-2.4885356,3.8787656000000004,0.048844445,-0.02198,-0.8498934000000001,9.617844958,0.8515795190000001,crawl
09/07/2020, 21:37:41,-8.46102,-2.5220351,3.8763726000000003,0.048844445,-0.02198,-0.8498934000000001,9.642395599,0.8515795190000001,crawl
09/07/2020, 21:37:41,-8.46102,-2.5220351,3.8763726000000003,0.047623335999999995,-0.03052778,-0.9292655999999999,9.642395599,0.9309857770000001,crawl
09/07/2020, 21:37:41,-8.559127,-2.524428,3.804588,0.047623335999999995,-0.03052778,-0.9292655999999999,9.700839093999999,0.9309857770000001,crawl
09/07/2020, 21:37:41,-8.559127,-2.524428,3.804588,0.026864445,-0.04151778,-1.0061955,9.700839093999999,1.007409996,crawl
09/07/2020, 21:37:41,-8.659625,-2.5674987000000002,3.8021949999999998,0.026864445,-0.04151778,-1.0061955,9.799889945,1.007409996,crawl
09/07/2020, 21:37:41,-8.659625,-2.5674987000000002,3.8021949999999998,0.006105556,-0.05250778,-1.0941156,9.799889945,1.095391858,crawl
09/07/2020, 21:37:42,-9.016156,-2.1511476000000003,4.168297,-0.05617111,0.20392556,1.1295278,10.16332657,1.1491622590000001,crawl
09/07/2020, 21:37:42,-9.016156,-2.1511476000000003,4.168297,-0.18438779,0.19415668,1.075799,10.16332657,1.108620375,crawl
09/07/2020, 21:37:42,-8.965906,-1.9669002,4.194618,-0.18438779,0.19415668,1.075799,10.09212522,1.108620375,crawl
09/07/2020, 21:37:42,-8.965906,-1.9669002,4.194618,-0.34557447,0.15141778,1.0232911,10.09212522,1.09062998,crawl
09/07/2020, 21:37:42,-8.91805,-1.8496519,4.06062,-0.34557447,0.15141778,1.0232911,9.972033802,1.09062998,crawl
09/07/2020, 21:37:42,-8.91805,-1.8496519,4.06062,-0.5189722,0.10135223,0.9646778,9.972033802,1.100094412,crawl
09/07/2020, 21:37:42,-8.793623,-1.7994026,4.0127635,-0.5189722,0.10135223,0.9646778,9.831984822999999,1.100094412,crawl
09/07/2020, 21:37:42,-8.793623,-1.7994026,4.0127635,-0.6655055999999999,0.06594,0.9231600000000001,9.831984822999999,1.139943063,crawl
09/07/2020, 21:37:42,-8.688339,-1.8592232,3.9290147000000006,-0.6655055999999999,0.06594,0.9231600000000001,9.71499388,1.139943063,crawl
09/07/2020, 21:37:42,-8.688339,-1.8592232,3.9290147000000006,-0.7656367,0.046402223,0.8779789000000001,9.71499388,1.165847195,crawl
09/07/2020, 21:37:42,-8.585447,-1.9381863000000001,3.9170506,-0.7656367,0.046402223,0.8779789000000001,9.633782072999999,1.165847195,crawl
09/07/2020, 21:37:42,-8.585447,-1.9381863000000001,3.9170506,-0.81570226,0.024422223,0.8230289000000001,9.633782072999999,1.159026845,crawl
09/07/2020, 21:37:42,-8.5016985,-2.0865414,3.95055,-0.81570226,0.024422223,0.8230289000000001,9.604133396,1.159026845,crawl
09/07/2020, 21:37:42,-8.5016985,-2.0865414,3.95055,-0.8205867,0.015874445,0.7570889000000001,9.604133396,1.116601138,crawl
09/07/2020, 21:37:42,-8.4705925,-2.254039,4.063013,-0.8205867,0.015874445,0.7570889000000001,9.661247568,1.116601138,crawl
09/07/2020, 21:37:42,-8.4705925,-2.254039,4.063013,-0.77906895,0.015874445,0.69603336,9.661247568,1.044826712,crawl
09/07/2020, 21:37:42,-8.415557000000002,-2.3856442,4.1515474,-0.77906895,0.015874445,0.69603336,9.682367602000001,1.044826712,crawl
09/07/2020, 21:37:42,-8.415557000000002,-2.3856442,4.1515474,-0.70580226,0.01099,0.6191034000000001,9.682367602000001,0.93891778,crawl
09/07/2020, 21:37:42,-8.370092999999999,-2.5435705,4.228117500000001,-0.70580226,0.01099,0.6191034000000001,9.71623337,0.93891778,crawl
09/07/2020, 21:37:42,-8.370092999999999,-2.5435705,4.228117500000001,-0.61299783,0.012211111,0.5458367,9.71623337,0.8208855829999999,crawl
09/07/2020, 21:37:43,-8.848659,-3.2015967,3.6849468,-0.20026223,0.059834447,1.174709,10.10583063,1.193158108,crawl
09/07/2020, 21:37:43,-8.939586,-3.1920254,3.7064822,-0.20026223,0.059834447,1.174709,10.19034978,1.193158108,crawl
09/07/2020, 21:37:43,-8.939586,-3.1920254,3.7064822,-0.21003112,0.058613338,1.1954678,10.19034978,1.215192136,crawl
09/07/2020, 21:37:43,-9.013762,-3.1776686,3.6490544999999996,-0.21003112,0.058613338,1.1954678,10.23040031,1.215192136,crawl
09/07/2020, 21:37:43,-9.013762,-3.1776686,3.6490544999999996,-0.21980001,0.06349778,1.2089001,10.23040031,1.230359074,crawl
09/07/2020, 21:37:43,-9.056833000000001,-3.1776686,3.6418760000000003,-0.21980001,0.06349778,1.2089001,10.26582033,1.230359074,crawl
09/07/2020, 21:37:43,-9.056833000000001,-3.1776686,3.6418760000000003,-0.22102112,0.07570889,1.229659,10.26582033,1.251656235,crawl
09/07/2020, 21:37:43,-9.075975999999999,-3.1513473999999997,3.6179477999999996,-0.22102112,0.07570889,1.229659,10.26615234,1.251656235,crawl
09/07/2020, 21:37:43,-9.075975999999999,-3.1513473999999997,3.6179477999999996,-0.21491556,0.09524667,1.2504178,10.26615234,1.272322825,crawl
09/07/2020, 21:37:43,-9.109475999999999,-3.101098,3.6179477999999996,-0.21491556,0.09524667,1.2504178,10.28051118,1.272322825,crawl
09/07/2020, 21:37:43,-9.109475999999999,-3.101098,3.6179477999999996,-0.21980001,0.11356334,1.2589656,10.28051118,1.28304446,crawl
09/07/2020, 21:37:43,-9.157332,-3.0867412,3.5892339,-0.21980001,0.11356334,1.2589656,10.3086036,1.28304446,crawl
09/07/2020, 21:37:43,-9.157332,-3.0867412,3.5892339,-0.22834780000000002,0.13310112,1.2723978999999999,10.3086036,1.299559532,crawl
09/07/2020, 21:37:43,-9.176475,-2.969493,3.5198421000000004,-0.22834780000000002,0.13310112,1.2723978999999999,10.26717402,1.299559532,crawl
09/07/2020, 21:37:43,-9.176475,-2.969493,3.5198421000000004,-0.25521225,0.15019667,1.2846090000000001,10.26717402,1.318299098,crawl
09/07/2020, 21:37:43,-9.21476,-2.900101,3.4528432000000002,-0.25521225,0.15019667,1.2846090000000001,10.25887471,1.318299098,crawl
09/07/2020, 21:37:43,-9.21476,-2.900101,3.4528432000000002,-0.29306668,0.14897557,1.2882723,10.25887471,1.3295590320000001,crawl
09/07/2020, 21:37:43,-9.200403,-2.8546374,3.385844,-0.29306668,0.14897557,1.2882723,10.21079397,1.3295590320000001,crawl
09/07/2020, 21:37:43,-9.200403,-2.8546374,3.385844,-0.30161446,0.15141778,1.2785034,10.21079397,1.322297099,crawl
09/07/2020, 21:37:43,-9.195618,-2.8809586,3.4504502,-0.30161446,0.15141778,1.2785034,10.23547327,1.322297099,crawl
09/07/2020, 21:37:44,-7.745566999999999,-3.5629129999999996,3.0077782,0.14531223,0.10501556,0.11234222,9.040734698,0.211576674,crawl
09/07/2020, 21:37:44,-7.745566999999999,-3.5629129999999996,3.0077782,0.15996556,0.10501556,0.18683001,9.040734698,0.26743728699999997,crawl
09/07/2020, 21:37:44,-7.812566,-3.574877,3.0412776000000004,0.15996556,0.10501556,0.18683001,9.114016672,0.26743728699999997,crawl
09/07/2020, 21:37:44,-7.812566,-3.574877,3.0412776000000004,0.17217667,0.102573335,0.27108666,9.114016672,0.33712620000000004,crawl
09/07/2020, 21:37:44,-7.91785,-3.5485559999999996,3.0484560000000003,0.17217667,0.102573335,0.27108666,9.196612579,0.33712620000000004,crawl
09/07/2020, 21:37:44,-7.91785,-3.5485559999999996,3.0484560000000003,0.15874445,0.091583334,0.35900667,9.196612579,0.403079521,crawl
09/07/2020, 21:37:44,-8.068598,-3.481557,3.0077782,0.15874445,0.091583334,0.35900667,9.288177337999999,0.403079521,crawl
09/07/2020, 21:37:44,-8.068598,-3.481557,3.0077782,0.13188,0.064718895,0.43227336,9.288177337999999,0.45655353,crawl
09/07/2020, 21:37:44,-8.233703,-3.4432718999999996,2.9742785,0.13188,0.064718895,0.43227336,9.407247897000001,0.45655353,crawl
09/07/2020, 21:37:44,-8.233703,-3.4432718999999996,2.9742785,0.09036223,0.026864445,0.52019334,9.407247897000001,0.528666379,crawl
09/07/2020, 21:37:44,-8.322237,-3.3690943999999994,2.9048867,0.09036223,0.026864445,0.52019334,9.436566785,0.528666379,crawl
09/07/2020, 21:37:44,-8.322237,-3.3690943999999994,2.9048867,0.05006556,0.001221111,0.6068922,9.436566785,0.608955029,crawl
09/07/2020, 21:37:44,-8.286344999999999,-3.3092737000000003,2.8498517999999997,0.05006556,0.001221111,0.6068922,9.366773924,0.608955029,crawl
09/07/2020, 21:37:44,-8.286344999999999,-3.3092737000000003,2.8498517999999997,0.017095556,-0.02198,0.69237006,9.366773924,0.6929297759999999,crawl
09/07/2020, 21:37:44,-8.226524000000001,-3.2877383,2.8474588,0.017095556,-0.02198,0.69237006,9.305533196,0.6929297759999999,crawl
09/07/2020, 21:37:44,-8.226524000000001,-3.2877383,2.8474588,-0.017095556,-0.042738892,0.76930004,9.305533196,0.770675955,crawl
09/07/2020, 21:37:44,-8.1738825,-3.2805598,2.8498517999999997,-0.017095556,-0.042738892,0.76930004,9.25721788,0.770675955,crawl
09/07/2020, 21:37:44,-8.1738825,-3.2805598,2.8498517999999997,-0.042738892,-0.05006556,0.84623003,9.25721788,0.8487864490000001,crawl
09/07/2020, 21:37:44,-8.092526,-3.2925239,2.8474588,-0.042738892,-0.05006556,0.84623003,9.188999909,0.8487864490000001,crawl
09/07/2020, 21:37:44,-8.092526,-3.2925239,2.8474588,-0.05617111,-0.051286668,0.9280444999999999,9.188999909,0.9311563279999999,crawl
09/07/2020, 21:37:45,-8.834301,-3.400201,3.17049,0.2820767,0.047623335999999995,-1.5996556,9.9828978,1.625033344,crawl
09/07/2020, 21:37:45,-8.642876,-3.3284163,3.0364918999999997,0.2820767,0.047623335999999995,-1.5996556,9.746688573,1.625033344,crawl
09/07/2020, 21:37:45,-8.642876,-3.3284163,3.0364918999999997,0.27963445,0.059834447,-1.5349368,9.746688573,1.561347662,crawl
09/07/2020, 21:37:45,-8.465807,-3.2446675,2.9240294,0.27963445,0.059834447,-1.5349368,9.526158855,1.561347662,crawl
09/07/2020, 21:37:45,-8.465807,-3.2446675,2.9240294,0.28085557,0.07204556,-1.4702178,9.526158855,1.49853624,crawl
09/07/2020, 21:37:45,-8.298309,-3.2231321,2.8929226000000003,0.28085557,0.07204556,-1.4702178,9.36052989,1.49853624,crawl
09/07/2020, 21:37:45,-8.298309,-3.2231321,2.8929226000000003,0.30161446,0.08059334,-1.4030566999999998,9.36052989,1.43737079,crawl
09/07/2020, 21:37:45,-8.262417,-3.278167,2.969493,0.30161446,0.08059334,-1.4030566999999998,9.371862095,1.43737079,crawl
09/07/2020, 21:37:45,-8.262417,-3.278167,2.969493,0.33214223,0.08303556,-1.3310111999999998,9.371862095,1.3743377019999998,crawl
09/07/2020, 21:37:45,-8.219346,-3.3403803999999995,3.0556345,0.33214223,0.08303556,-1.3310111999999998,9.383639647999999,1.3743377019999998,crawl
09/07/2020, 21:37:45,-8.219346,-3.3403803999999995,3.0556345,0.3602278,0.08914111599999999,-1.2540811,9.383639647999999,1.307833966,crawl
09/07/2020, 21:37:45,-8.257631,-3.3188449999999996,3.1561332,0.3602278,0.08914111599999999,-1.2540811,9.442689431,1.307833966,crawl
09/07/2020, 21:37:45,-8.257631,-3.3188449999999996,3.1561332,0.35900667,0.08914111599999999,-1.1661612,9.442689431,1.223422996,crawl
09/07/2020, 21:37:45,-8.30788,-3.3092737000000003,3.1633115000000003,0.35900667,0.08914111599999999,-1.1661612,9.485710772000001,1.223422996,crawl
09/07/2020, 21:37:45,-8.30788,-3.3092737000000003,3.1633115000000003,0.33580557,0.06960334,-1.0745778,9.485710772000001,1.127974941,crawl
09/07/2020, 21:37:45,-8.300702000000001,-3.2685957,3.1585259999999997,0.33580557,0.06960334,-1.0745778,9.463702195,1.127974941,crawl
09/07/2020, 21:37:45,-8.300702000000001,-3.2685957,3.1585259999999997,0.28696109999999997,0.04396,-0.99398446,9.463702195,1.035511597,crawl
09/07/2020, 21:37:45,-8.221739,-3.2015967,3.101098,0.28696109999999997,0.04396,-0.99398446,9.352220057,1.035511597,crawl
09/07/2020, 21:37:45,-8.221739,-3.2015967,3.101098,0.22590557,0.013432221999999999,-0.90362227,9.352220057,0.9315293640000001,crawl
09/07/2020, 21:37:45,-8.056633999999999,-3.1393833,3.0436704,0.22590557,0.013432221999999999,-0.90362227,9.166733758,0.9315293640000001,crawl
09/07/2020, 21:37:46,-8.204988499999999,-4.2927237,3.493521,-0.012211111,0.042738892,-0.06716111,9.897171371,0.080537813,crawl
09/07/2020, 21:37:46,-8.252846,-4.23051,3.4504502,-0.012211111,0.042738892,-0.06716111,9.895063745,0.080537813,crawl
09/07/2020, 21:37:46,-8.252846,-4.23051,3.4504502,-0.009768889000000001,0.04029667,-0.13798556,9.895063745,0.144080765,crawl
09/07/2020, 21:37:46,-8.312666,-4.2352962,3.455236,-0.009768889000000001,0.04029667,-0.13798556,9.948708703,0.144080765,crawl
09/07/2020, 21:37:46,-8.312666,-4.2352962,3.455236,-0.01099,0.026864445,-0.21491556,9.948708703,0.21686672399999998,crawl
09/07/2020, 21:37:46,-8.391629,-4.168297,3.4648072999999995,-0.01099,0.026864445,-0.21491556,9.989946382000001,0.21686672399999998,crawl
09/07/2020, 21:37:46,-8.391629,-4.168297,3.4648072999999995,-0.025643334,0.02198,-0.29306668,9.989946382000001,0.29500640699999997,crawl
09/07/2020, 21:37:46,-8.46102,-4.130012000000001,3.4432718999999996,-0.025643334,0.02198,-0.29306668,10.02506798,0.29500640699999997,crawl
09/07/2020, 21:37:46,-8.46102,-4.130012000000001,3.4432718999999996,-0.04396,0.008547778,-0.36633334,10.02506798,0.369060509,crawl
09/07/2020, 21:37:46,-8.496913000000001,-4.082155,3.4600215,-0.04396,0.008547778,-0.36633334,10.04157706,0.369060509,crawl
09/07/2020, 21:37:46,-8.496913000000001,-4.082155,3.4600215,-0.06105556,-0.004884445,-0.4493689,10.04157706,0.453524026,crawl
09/07/2020, 21:37:46,-8.46102,-4.048655999999999,3.5054849999999997,-0.06105556,-0.004884445,-0.4493689,10.01343638,0.453524026,crawl
09/07/2020, 21:37:46,-8.46102,-4.048655999999999,3.5054849999999997,-0.07204556,-0.019537778999999998,-0.5189722,10.01343638,0.524313313,crawl
09/07/2020, 21:37:46,-8.413164,-4.031905999999999,3.5054849999999997,-0.07204556,-0.019537778999999998,-0.5189722,9.966244194,0.524313313,crawl
09/07/2020, 21:37:46,-8.413164,-4.031905999999999,3.5054849999999997,-0.08303556,-0.026864445,-0.5910178,9.966244194,0.597426666,crawl
09/07/2020, 21:37:46,-8.372486,-4.041477700000001,3.4624143,-0.08303556,-0.026864445,-0.5910178,9.920704517,0.597426666,crawl
09/07/2020, 21:37:46,-8.372486,-4.041477700000001,3.4624143,-0.08059334,-0.024422223,-0.64841,9.920704517,0.653855709,crawl
09/07/2020, 21:37:46,-8.329415,-4.06062,3.4049866,-0.08059334,-0.024422223,-0.64841,9.872270605,0.653855709,crawl
09/07/2020, 21:37:46,-8.329415,-4.06062,3.4049866,-0.08059334,-0.026864445,-0.70458114,9.872270605,0.7096841340000001,crawl
09/07/2020, 21:37:46,-8.319844,-4.017549,3.37388,-0.08059334,-0.026864445,-0.70458114,9.835831139,0.7096841340000001,crawl
09/07/2020, 21:37:47,-8.250452000000001,-4.3094735,2.9982069,-0.13676445,0.09768889,0.9194966999999998,9.779098384,0.9347308940000001,crawl
09/07/2020, 21:37:47,-8.250452000000001,-4.3094735,2.9982069,-0.048844445,0.13188,0.8743155999999999,9.779098384,0.885554017,crawl
09/07/2020, 21:37:47,-8.260024000000001,-4.3932223,3.0484560000000003,-0.048844445,0.13188,0.8743155999999999,9.839790842000001,0.885554017,crawl
09/07/2020, 21:37:47,-8.260024000000001,-4.3932223,3.0484560000000003,0.019537778999999998,0.15141778,0.83768225,9.839790842000001,0.851481424,crawl
09/07/2020, 21:37:47,-8.300702000000001,-4.3740797,3.117848,0.019537778999999998,0.15141778,0.83768225,9.88712315,0.851481424,crawl
09/07/2020, 21:37:47,-8.300702000000001,-4.3740797,3.117848,0.06594,0.15386,0.7949434,9.88712315,0.8123767479999999,crawl
09/07/2020, 21:37:47,-8.384451,-4.3070807,3.1728827999999996,0.06594,0.15386,0.7949434,9.945709974,0.8123767479999999,crawl
09/07/2020, 21:37:47,-8.384451,-4.3070807,3.1728827999999996,0.09646778,0.14653334,0.7387723,9.945709974,0.759317143,crawl
09/07/2020, 21:37:47,-8.437092999999999,-4.319045,3.2135607999999998,0.09646778,0.14653334,0.7387723,10.00827947,0.759317143,crawl
09/07/2020, 21:37:47,-8.437092999999999,-4.319045,3.2135607999999998,0.11112112,0.13188,0.6801589,10.00827947,0.701681113,crawl
09/07/2020, 21:37:47,-8.420342,-4.259224400000001,3.2949169,0.11112112,0.13188,0.6801589,9.994980574,0.701681113,crawl
09/07/2020, 21:37:47,-8.420342,-4.259224400000001,3.2949169,0.10379445,0.12699556,0.62643003,9.994980574,0.647545943,crawl
09/07/2020, 21:37:47,-8.420342,-4.1635113,3.278167,0.10379445,0.12699556,0.62643003,9.949038747000001,0.647545943,crawl
09/07/2020, 21:37:47,-8.420342,-4.1635113,3.278167,0.06105556,0.11966889,0.5604899999999999,9.949038747000001,0.576365751,crawl
09/07/2020, 21:37:47,-8.463413000000001,-4.0701914,3.2350962000000005,0.06105556,0.11966889,0.5604899999999999,9.932858052,0.576365751,crawl
09/07/2020, 21:37:47,-8.463413000000001,-4.0701914,3.2350962000000005,-0.007326666999999999,0.09402556,0.5018767,9.932858052,0.510661062,crawl
09/07/2020, 21:37:47,-8.482556,-3.9744785000000005,3.2087752999999997,-0.007326666999999999,0.09402556,0.5018767,9.90184226,0.510661062,crawl
09/07/2020, 21:37:47,-8.482556,-3.9744785000000005,3.2087752999999997,-0.07448778,0.06960334,0.42983112,9.90184226,0.441755412,crawl
09/07/2020, 21:37:47,-8.458628,-3.9720855000000004,3.1680973,-0.07448778,0.06960334,0.42983112,9.867253207000001,0.441755412,crawl
09/07/2020, 21:37:47,-8.458628,-3.9720855000000004,3.1680973,-0.11844778,0.05617111,0.3602278,9.867253207000001,0.38333945,crawl
09/07/2020, 21:37:48,-9.083155,-4.043870399999999,3.0077782,0.117226675,0.1856089,1.0635878,10.38765212,1.086007242,crawl
09/07/2020, 21:37:48,-9.346364999999999,-3.9433718,2.9742785,0.117226675,0.1856089,1.0635878,10.57123699,1.086007242,crawl
09/07/2020, 21:37:48,-9.346364999999999,-3.9433718,2.9742785,0.03052778,0.15386,1.0330601000000001,10.57123699,1.0449009340000002,crawl
09/07/2020, 21:37:48,-9.4229355,-3.8620156999999997,2.9718857000000005,0.03052778,0.15386,1.0330601000000001,10.60843924,1.0449009340000002,crawl
09/07/2020, 21:37:48,-9.4229355,-3.8620156999999997,2.9718857000000005,-0.06838222599999999,0.11356334,0.9964267,10.60843924,1.005205915,crawl
09/07/2020, 21:37:48,-9.315259,-3.8237305,2.9623144,-0.06838222599999999,0.11356334,0.9964267,10.49620269,1.005205915,crawl
09/07/2020, 21:37:48,-9.315259,-3.8237305,2.9623144,-0.15386,0.08303556,0.9549089,10.49620269,0.9707825840000001,crawl
09/07/2020, 21:37:48,-9.123833,-3.8261235,2.9192436,-0.15386,0.08303556,0.9549089,10.31530548,0.9707825840000001,crawl
09/07/2020, 21:37:48,-9.123833,-3.8261235,2.9192436,-0.19415668,0.07570889,0.9182756,10.31530548,0.9416255720000001,crawl
09/07/2020, 21:37:48,-8.882157000000001,-3.8739797999999994,2.87378,-0.19415668,0.07570889,0.9182756,10.10737601,0.9416255720000001,crawl
09/07/2020, 21:37:48,-8.882157000000001,-3.8739797999999994,2.87378,-0.19293556,0.09524667,0.8743155999999999,10.10737601,0.900402055,crawl
09/07/2020, 21:37:48,-8.640483,-3.9074793,2.8474588,-0.19293556,0.09524667,0.8743155999999999,9.901230277,0.900402055,crawl
09/07/2020, 21:37:48,-8.640483,-3.9074793,2.8474588,-0.15386,0.12577444,0.8303556000000001,9.901230277,0.853804725,crawl
09/07/2020, 21:37:48,-8.508878,-3.9601214,2.8570302000000005,-0.15386,0.12577444,0.8303556000000001,9.81051392,0.853804725,crawl
09/07/2020, 21:37:48,-8.508878,-3.9601214,2.8570302000000005,-0.09891000400000001,0.16118668,0.7949434,9.81051392,0.817128712,crawl
09/07/2020, 21:37:48,-8.499305999999999,-3.9816568,2.8881368999999997,-0.09891000400000001,0.16118668,0.7949434,9.82003682,0.817128712,crawl
09/07/2020, 21:37:48,-8.499305999999999,-3.9816568,2.8881368999999997,-0.059834447,0.1856089,0.76075226,9.82003682,0.785350129,crawl
09/07/2020, 21:37:48,-8.595019,-4.0127635,2.914458,-0.059834447,0.1856089,0.76075226,9.923240097,0.785350129,crawl
09/07/2020, 21:37:48,-8.595019,-4.0127635,2.914458,-0.036633335,0.19904111,0.7326666999999999,9.923240097,0.760105136,crawl
09/07/2020, 21:37:48,-8.772088,-3.9768712999999996,3.0125637000000003,-0.036633335,0.19904111,0.7326666999999999,10.09160908,0.760105136,crawl
09/07/2020, 21:37:49,-8.087741000000001,-3.7854455000000002,3.1872396000000003,-0.19904111,0.018316668,-0.7619734,9.48154242,0.7877539579999999,crawl
09/07/2020, 21:37:49,-8.087741000000001,-3.7854455000000002,3.1872396000000003,-0.15874445,0.025643334,-0.70336,9.48154242,0.721507243,crawl
09/07/2020, 21:37:49,-8.032705,-3.7830527000000003,3.1896327,-0.15874445,0.025643334,-0.70336,9.434489844,0.721507243,crawl
09/07/2020, 21:37:49,-8.032705,-3.7830527000000003,3.1896327,-0.11478445,0.029306669,-0.6337567,9.434489844,0.644733978,crawl
09/07/2020, 21:37:49,-7.9944205,-3.7854455000000002,3.1944182,-0.11478445,0.029306669,-0.6337567,9.404502349,0.644733978,crawl
09/07/2020, 21:37:49,-7.9944205,-3.7854455000000002,3.1944182,-0.07815111400000001,0.034191112999999995,-0.5568267,9.404502349,0.563322833,crawl
09/07/2020, 21:37:49,-7.958528,-3.7591242999999994,3.1561332,-0.07815111400000001,0.034191112999999995,-0.5568267,9.350420341,0.563322833,crawl
09/07/2020, 21:37:49,-7.958528,-3.7591242999999994,3.1561332,-0.05006556,0.03174889,-0.48600224,9.350420341,0.489604663,crawl
09/07/2020, 21:37:49,-7.9226356,-3.737589,3.1561332,-0.05006556,0.03174889,-0.48600224,9.311224485,0.489604663,crawl
09/07/2020, 21:37:49,-7.9226356,-3.737589,3.1561332,-0.03052778,0.029306669,-0.40296668,9.311224485,0.405182638,crawl
09/07/2020, 21:37:49,-7.858029400000001,-3.7136607,3.17049,-0.03052778,0.029306669,-0.40296668,9.251589509,0.405182638,crawl
09/07/2020, 21:37:49,-7.858029400000001,-3.7136607,3.17049,-0.017095556,0.029306669,-0.32359445,9.251589509,0.325368265,crawl
09/07/2020, 21:37:49,-7.8173512999999994,-3.6849468,3.1465619,-0.017095556,0.029306669,-0.32359445,9.197318429,0.325368265,crawl
09/07/2020, 21:37:49,-7.8173512999999994,-3.6849468,3.1465619,-0.013432221999999999,0.03052778,-0.25399113,9.197318429,0.256171549,crawl
09/07/2020, 21:37:49,-7.7742805,-3.6729827000000004,3.1609187000000003,-0.013432221999999999,0.03052778,-0.25399113,9.160875887000001,0.256171549,crawl
09/07/2020, 21:37:49,-7.7742805,-3.6729827000000004,3.1609187000000003,-0.008547778,0.02075889,-0.16973445,9.160875887000001,0.17121267199999998,crawl
09/07/2020, 21:37:49,-7.745566999999999,-3.6610186000000002,3.1609187000000003,-0.008547778,0.02075889,-0.16973445,9.131717808,0.17121267199999998,crawl
09/07/2020, 21:37:49,-7.745566999999999,-3.6610186000000002,3.1609187000000003,-0.001221111,0.015874445,-0.08669889,9.131717808,0.08814866199999999,crawl
09/07/2020, 21:37:49,-7.721638700000001,-3.6562330000000003,3.1345978,-0.001221111,0.015874445,-0.08669889,9.100409189,0.08814866199999999,crawl
09/07/2020, 21:37:49,-7.721638700000001,-3.6562330000000003,3.1345978,0.0,0.012211111,-0.002442222,9.100409189,0.012452939,crawl
09/07/2020, 21:37:50,-9.025727,-3.723232,3.0819557,0.37366003,-0.10867889,-0.8877478000000001,10.23839149,0.9692931020000001,crawl
09/07/2020, 21:37:50,-9.025727,-3.723232,3.0819557,0.29184556,-0.12943779,-0.92560226,10.23839149,0.979115678,crawl
09/07/2020, 21:37:50,-8.982656500000001,-3.682554,3.0556345,0.29184556,-0.12943779,-0.92560226,10.17773175,0.979115678,crawl
09/07/2020, 21:37:50,-8.982656500000001,-3.682554,3.0556345,0.23689556,-0.14287001,-0.96712005,10.17773175,1.005908813,crawl
09/07/2020, 21:37:50,-8.913264,-3.7184464999999998,3.0412776000000004,0.23689556,-0.14287001,-0.96712005,10.12533921,1.005908813,crawl
09/07/2020, 21:37:50,-8.913264,-3.7184464999999998,3.0412776000000004,0.20636779,-0.13920668,-1.0061955,10.12533921,1.036530578,crawl
09/07/2020, 21:37:50,-8.879764999999999,-3.7447673999999997,3.0245278,0.20636779,-0.13920668,-1.0061955,10.10055791,1.036530578,crawl
09/07/2020, 21:37:50,-8.879764999999999,-3.7447673999999997,3.0245278,0.20148334,-0.12943779,-1.0367234,10.10055791,1.064023042,crawl
09/07/2020, 21:37:50,-8.8701935,-3.8261235,3.0317062999999997,0.20148334,-0.12943779,-1.0367234,10.12476155,1.064023042,crawl
09/07/2020, 21:37:50,-8.8701935,-3.8261235,3.0317062999999997,0.19782001,-0.123332225,-1.0672511999999998,10.12476155,1.092414175,crawl
09/07/2020, 21:37:50,-8.898908,-3.8931224,3.0508490000000004,0.19782001,-0.123332225,-1.0672511999999998,10.18109224,1.092414175,crawl
09/07/2020, 21:37:50,-8.898908,-3.8931224,3.0508490000000004,0.20270446,-0.10867889,-1.0941156,10.18109224,1.118029149,crawl
09/07/2020, 21:37:50,-8.992227999999999,-3.9553358999999997,3.07717,0.20270446,-0.10867889,-1.0941156,10.29435829,1.118029149,crawl
09/07/2020, 21:37:50,-8.992227999999999,-3.9553358999999997,3.07717,0.20881,-0.09768889,-1.1246433,10.29435829,1.14802759,crawl
09/07/2020, 21:37:50,-9.150153999999999,-4.005585,3.1872396000000003,0.20881,-0.09768889,-1.1246433,10.48468071,1.14802759,crawl
09/07/2020, 21:37:50,-9.150153999999999,-4.005585,3.1872396000000003,0.21980001,-0.08792,-1.1539501,10.48468071,1.17798251,crawl
09/07/2020, 21:37:50,-9.312864999999999,-3.9625144,3.1944182,0.21980001,-0.08792,-1.1539501,10.6129773,1.17798251,crawl
09/07/2020, 21:37:50,-9.312864999999999,-3.9625144,3.1944182,0.21003112,-0.09402556,-1.1832566999999998,10.6129773,1.205425404,crawl
09/07/2020, 21:37:50,-9.353543,-3.8883370000000004,3.1848468999999997,0.21003112,-0.09402556,-1.1832566999999998,10.61843611,1.205425404,crawl
09/07/2020, 21:37:50,-9.353543,-3.8883370000000004,3.1848468999999997,0.16851334,-0.102573335,-1.2137845,10.61843611,1.22971165,crawl
09/07/2020, 21:37:51,-8.382058,-3.9146578,3.0675986,-0.38587109999999997,-0.039075557000000004,0.40052447,9.746466319,0.557533195,crawl
09/07/2020, 21:37:51,-8.26481,-3.991228,3.07717,-0.38587109999999997,-0.039075557000000004,0.40052447,9.680183583,0.557533195,crawl
09/07/2020, 21:37:51,-8.26481,-3.991228,3.07717,-0.3174889,-0.015874445,0.35534334,9.680183583,0.476780973,crawl
09/07/2020, 21:37:51,-8.157132,-4.074977,3.0939197999999997,-0.3174889,-0.015874445,0.35534334,9.62894497,0.476780973,crawl
09/07/2020, 21:37:51,-8.157132,-4.074977,3.0939197999999997,-0.24666445,0.0036633340000000003,0.30649891,9.62894497,0.393444222,crawl
09/07/2020, 21:37:51,-8.161918,-4.074977,3.1561332,-0.24666445,0.0036633340000000003,0.30649891,9.653160821,0.393444222,crawl
09/07/2020, 21:37:51,-8.161918,-4.074977,3.1561332,-0.19293556,0.014653333999999999,0.26864445,9.653160821,0.331072032,crawl
09/07/2020, 21:37:51,-8.233703,-4.0390844,3.2303107000000004,-0.19293556,0.014653333999999999,0.26864445,9.723320916,0.331072032,crawl
09/07/2020, 21:37:51,-8.233703,-4.0390844,3.2303107000000004,-0.16973445,0.015874445,0.21857889999999996,9.723320916,0.27719761600000004,crawl
09/07/2020, 21:37:51,-8.343772999999999,-3.9338005,3.2997023999999997,-0.16973445,0.015874445,0.21857889999999996,9.797008116,0.27719761600000004,crawl
09/07/2020, 21:37:51,-8.343772999999999,-3.9338005,3.2997023999999997,-0.18683001,0.001221111,0.17706113,9.797008116,0.257405492,crawl
09/07/2020, 21:37:51,-8.429914,-3.8261235,3.3427732000000003,-0.18683001,0.001221111,0.17706113,9.842601869,0.257405492,crawl
09/07/2020, 21:37:51,-8.429914,-3.8261235,3.3427732000000003,-0.23445335,-0.02198,0.14164889,9.842601869,0.274801568,crawl
09/07/2020, 21:37:51,-8.46102,-3.7256248,3.3403803999999995,-0.23445335,-0.02198,0.14164889,9.829918054,0.274801568,crawl
09/07/2020, 21:37:51,-8.46102,-3.7256248,3.3403803999999995,-0.2845189,-0.054950003,0.09891000400000001,9.829918054,0.306192251,crawl
09/07/2020, 21:37:51,-8.453842,-3.6275190999999998,3.3188449999999996,-0.2845189,-0.054950003,0.09891000400000001,9.77962549,0.306192251,crawl
09/07/2020, 21:37:51,-8.453842,-3.6275190999999998,3.3188449999999996,-0.32970002,-0.08059334,0.054950003,9.77962549,0.34382683799999997,crawl
09/07/2020, 21:37:51,-8.410771,-3.5988052,3.2470603,-0.32970002,-0.08059334,0.054950003,9.707516387,0.34382683799999997,crawl
09/07/2020, 21:37:51,-8.410771,-3.5988052,3.2470603,-0.33092109999999997,-0.09768889,0.02075889,9.707516387,0.345662891,crawl
09/07/2020, 21:37:51,-8.319844,-3.6418760000000003,3.225525,-0.33092109999999997,-0.09768889,0.02075889,9.637794345,0.345662891,crawl
09/07/2020, 21:37:52,-7.858029400000001,-3.9744785000000005,3.3284163,0.10501556,-0.12577444,0.8327978000000001,9.414003405,0.8487636279999999,crawl
09/07/2020, 21:37:52,-7.858029400000001,-3.9744785000000005,3.3284163,0.10013112,-0.12821667,0.8718734,9.414003405,0.8869210470000001,crawl
09/07/2020, 21:37:52,-7.948957000000001,-3.9984066,3.3499517,0.10013112,-0.12821667,0.8718734,9.507646884,0.8869210470000001,crawl
09/07/2020, 21:37:52,-7.948957000000001,-3.9984066,3.3499517,0.09891000400000001,-0.13554333,0.9194966999999998,9.507646884,0.9346814390000001,crawl
09/07/2020, 21:37:52,-8.049456,-4.007978,3.4025939,0.09891000400000001,-0.13554333,0.9194966999999998,9.614326207000001,0.9346814390000001,crawl
09/07/2020, 21:37:52,-8.049456,-4.007978,3.4025939,0.10135223,-0.13676445,0.9512456,9.614326207000001,0.9663565559999999,crawl
09/07/2020, 21:37:52,-8.082955,-4.034299,3.385844,0.10135223,-0.13676445,0.9512456,9.647469849,0.9663565559999999,crawl
09/07/2020, 21:37:52,-8.082955,-4.034299,3.385844,0.09768889,-0.13798556,0.97688895,9.647469849,0.991410693,crawl
09/07/2020, 21:37:52,-8.145168,-4.065405999999999,3.3882367999999996,0.09768889,-0.13798556,0.97688895,9.713466927,0.991410693,crawl
09/07/2020, 21:37:52,-8.145168,-4.065405999999999,3.3882367999999996,0.09646778,-0.14042778,1.00009,9.713466927,1.01449791,crawl
09/07/2020, 21:37:52,-8.178668,-4.041477700000001,3.3523445,0.09646778,-0.14042778,1.00009,9.719175181,1.01449791,crawl
09/07/2020, 21:37:52,-8.178668,-4.041477700000001,3.3523445,0.08059334,-0.14287001,1.0074167,9.719175181,1.0206838809999998,crawl
09/07/2020, 21:37:52,-8.219346,-4.0127635,3.3355947,0.08059334,-0.14287001,1.0074167,9.735815941,1.0206838809999998,crawl
09/07/2020, 21:37:52,-8.219346,-4.0127635,3.3355947,0.048844445,-0.14531223,1.0159645,9.735815941,1.027465477,crawl
09/07/2020, 21:37:52,-8.252846,-3.9768712999999996,3.3092737000000003,0.048844445,-0.14531223,1.0159645,9.740444585,1.027465477,crawl
09/07/2020, 21:37:52,-8.252846,-3.9768712999999996,3.3092737000000003,0.009768889000000001,-0.14287001,1.0123011999999998,9.740444585,1.022380068,crawl
09/07/2020, 21:37:52,-8.286344999999999,-3.9649072,3.2949169,0.009768889000000001,-0.14287001,1.0123011999999998,9.759122485,1.022380068,crawl
09/07/2020, 21:37:52,-8.286344999999999,-3.9649072,3.2949169,-0.024422223,-0.13798556,1.0049745,9.759122485,1.014697085,crawl
09/07/2020, 21:37:52,-8.374879,-3.9840497999999998,3.3164523,-0.024422223,-0.13798556,1.0049745,9.849370777999999,1.014697085,crawl
09/07/2020, 21:37:52,-8.374879,-3.9840497999999998,3.3164523,-0.05250778,-0.13798556,1.0025322,9.849370777999999,1.013344947,crawl
09/07/2020, 21:37:53,-8.980264,-3.912265,3.0508490000000004,0.13920668,-0.06838222599999999,-1.1356333,10.25956303,1.146175262,crawl
09/07/2020, 21:37:53,-8.987442,-3.9577286,3.0412776000000004,0.13920668,-0.06838222599999999,-1.1356333,10.28042312,1.146175262,crawl
09/07/2020, 21:37:53,-8.987442,-3.9577286,3.0412776000000004,0.13798556,-0.05372889,-1.1624979,10.28042312,1.171890833,crawl
09/07/2020, 21:37:53,-8.949157000000001,-3.9840497999999998,3.0963125,0.13798556,-0.05372889,-1.1624979,10.27361722,1.171890833,crawl
09/07/2020, 21:37:53,-8.949157000000001,-3.9840497999999998,3.0963125,0.16485001,-0.03174889,-1.18692,10.27361722,1.198733797,crawl
09/07/2020, 21:37:53,-8.930014,-4.005585,3.089134,0.16485001,-0.03174889,-1.18692,10.26316741,1.198733797,crawl
09/07/2020, 21:37:53,-8.930014,-4.005585,3.089134,0.18805112,-0.006105556,-1.2089001,10.26316741,1.223454102,crawl
09/07/2020, 21:37:53,-8.879764999999999,-4.0007997,3.0723844,0.18805112,-0.006105556,-1.2089001,10.21254925,1.223454102,crawl
09/07/2020, 21:37:53,-8.879764999999999,-4.0007997,3.0723844,0.1965989,0.01099,-1.2382066999999999,10.21254925,1.2537654679999999,crawl
09/07/2020, 21:37:53,-8.872586,-3.979264,3.0460632000000003,0.1965989,0.01099,-1.2382066999999999,10.18998674,1.2537654679999999,crawl
09/07/2020, 21:37:53,-8.872586,-3.979264,3.0460632000000003,0.19904111,0.024422223,-1.2479756000000002,10.18998674,1.263984524,crawl
09/07/2020, 21:37:53,-8.874979,-3.9338005,3.0723844,0.19904111,0.024422223,-1.2479756000000002,10.18231724,1.263984524,crawl
09/07/2020, 21:37:53,-8.874979,-3.9338005,3.0723844,0.18072446,0.039075557000000004,-1.2626289,10.18231724,1.2760956079999999,crawl
09/07/2020, 21:37:53,-8.910871499999999,-3.818945,3.129812,0.18072446,0.039075557000000004,-1.2626289,10.18742826,1.2760956079999999,crawl
09/07/2020, 21:37:53,-8.910871499999999,-3.818945,3.129812,0.15019667,0.035412222,-1.2675134,10.18742826,1.276872457,crawl
09/07/2020, 21:37:53,-8.997013,-3.7328032999999996,3.1848468999999997,0.15019667,0.035412222,-1.2675134,10.24808836,1.276872457,crawl
09/07/2020, 21:37:53,-8.997013,-3.7328032999999996,3.1848468999999997,0.11112112,0.03297,-1.2846090000000001,10.24808836,1.2898275479999999,crawl
09/07/2020, 21:37:53,-9.044869,-3.7088752,3.1369905,0.11112112,0.03297,-1.2846090000000001,10.26674864,1.2898275479999999,crawl
09/07/2020, 21:37:53,-9.044869,-3.7088752,3.1369905,0.057392225,0.028085556,-1.2931567,10.26674864,1.294734346,crawl
09/07/2020, 21:37:53,-9.049655,-3.6586258000000003,3.1274192000000003,0.057392225,0.028085556,-1.2931567,10.25000239,1.294734346,crawl
09/07/2020, 21:37:54,-8.279166,-3.9361932,3.979264,0.014653333999999999,0.064718895,0.06594,9.993635605,0.09354859199999999,crawl
09/07/2020, 21:37:54,-8.279166,-3.9361932,3.979264,0.015874445,0.057392225,-0.02198,9.993635605,0.063474293,crawl
09/07/2020, 21:37:54,-8.303094999999999,-3.9170506,4.0007997,0.015874445,0.057392225,-0.02198,10.01454281,0.063474293,crawl
09/07/2020, 21:37:54,-8.303094999999999,-3.9170506,4.0007997,0.002442222,0.045181114,-0.12455334,10.01454281,0.13251728699999998,crawl
09/07/2020, 21:37:54,-8.327022999999999,-3.9146578,3.9984066,0.002442222,0.045181114,-0.12455334,10.03250249,0.13251728699999998,crawl
09/07/2020, 21:37:54,-8.327022999999999,-3.9146578,3.9984066,-0.014653333999999999,0.034191112999999995,-0.22102112,10.03250249,0.22412961899999997,crawl
09/07/2020, 21:37:54,-8.300702000000001,-3.8835511,3.9601214,-0.014653333999999999,0.034191112999999995,-0.22102112,9.983295349,0.22412961899999997,crawl
09/07/2020, 21:37:54,-8.300702000000001,-3.8835511,3.9601214,-0.025643334,0.023201112000000003,-0.3162678,9.983295349,0.318152772,crawl
09/07/2020, 21:37:54,-8.367701,-3.8261235,3.9744785000000005,-0.025643334,0.023201112000000003,-0.3162678,10.02267993,0.318152772,crawl
09/07/2020, 21:37:54,-8.367701,-3.8261235,3.9744785000000005,-0.03297,0.019537778999999998,-0.41639890000000007,10.02267993,0.41815882200000004,crawl
09/07/2020, 21:37:54,-8.379665,-3.7878382000000004,4.0007997,-0.03297,0.019537778999999998,-0.41639890000000007,10.02860449,0.41815882200000004,crawl
09/07/2020, 21:37:54,-8.379665,-3.7878382000000004,4.0007997,-0.04029667,0.019537778999999998,-0.51775116,10.02860449,0.519684334,crawl
09/07/2020, 21:37:54,-8.439486,-3.751946,3.9864426,-0.04029667,0.019537778999999998,-0.51775116,10.05950989,0.519684334,crawl
09/07/2020, 21:37:54,-8.439486,-3.751946,3.9864426,-0.059834447,0.002442222,-0.60933447,10.05950989,0.612270055,crawl
09/07/2020, 21:37:54,-8.496913000000001,-3.7304106,3.9673,-0.059834447,0.002442222,-0.60933447,10.09222283,0.612270055,crawl
09/07/2020, 21:37:54,-8.496913000000001,-3.7304106,3.9673,-0.07448778,-0.02075889,-0.6935911,10.09222283,0.697888243,crawl
09/07/2020, 21:37:54,-8.5112705,-3.739982,3.9601214,-0.07448778,-0.02075889,-0.6935911,10.10503597,0.697888243,crawl
09/07/2020, 21:37:54,-8.5112705,-3.739982,3.9601214,-0.08303556,-0.035412222,-0.77906895,10.10503597,0.784281425,crawl
09/07/2020, 21:37:54,-8.504091,-3.7878382000000004,3.9242291,-0.08303556,-0.035412222,-0.77906895,10.10281451,0.784281425,crawl
09/07/2020, 21:37:54,-8.504091,-3.7878382000000004,3.9242291,-0.07448778,-0.04029667,-0.8486723,10.10281451,0.852887375,crawl
09/07/2020, 21:37:55,-8.145168,-3.6227336,4.2041892999999995,-0.04151778,-0.13798556,0.5604899999999999,9.856123633,0.578716506,crawl
09/07/2020, 21:37:55,-8.200203,-3.6514472999999996,4.213761,-0.04151778,-0.13798556,0.5604899999999999,9.916258174,0.578716506,crawl
09/07/2020, 21:37:55,-8.200203,-3.6514472999999996,4.213761,-0.07448778,-0.15508112,0.6068922,9.916258174,0.630806437,crawl
09/07/2020, 21:37:55,-8.255239,-3.6993039,4.194618,-0.07448778,-0.15508112,0.6068922,9.971390795,0.630806437,crawl
09/07/2020, 21:37:55,-8.255239,-3.6993039,4.194618,-0.09768889,-0.17584,0.6435255999999999,9.971390795,0.674231433,crawl
09/07/2020, 21:37:55,-8.341380000000001,-3.7663028,4.194618,-0.09768889,-0.17584,0.6435255999999999,10.06769494,0.674231433,crawl
09/07/2020, 21:37:55,-8.341380000000001,-3.7663028,4.194618,-0.11356334,-0.20148334,0.67283225,10.06769494,0.711474107,crawl
09/07/2020, 21:37:55,-8.350951,-3.790231,4.139583,-0.11356334,-0.20148334,0.67283225,10.06182812,0.711474107,crawl
09/07/2020, 21:37:55,-8.350951,-3.790231,4.139583,-0.12089001,-0.23079000000000002,0.71435004,10.06182812,0.760377805,crawl
09/07/2020, 21:37:55,-8.331808,-3.8237305,4.0965123,-0.12089001,-0.23079000000000002,0.71435004,10.04098371,0.760377805,crawl
09/07/2020, 21:37:55,-8.331808,-3.8237305,4.0965123,-0.12577444,-0.24666445,0.7424356,10.04098371,0.792384467,crawl
09/07/2020, 21:37:55,-8.279166,-3.8117663999999998,4.0366917,-0.12577444,-0.24666445,0.7424356,9.968401873,0.792384467,crawl
09/07/2020, 21:37:55,-8.279166,-3.8117663999999998,4.0366917,-0.12577444,-0.25399113,0.7668578,9.968401873,0.8175583120000001,crawl
09/07/2020, 21:37:55,-8.19781,-3.8380876000000006,4.0031924,-0.12577444,-0.25399113,0.7668578,9.897502581,0.8175583120000001,crawl
09/07/2020, 21:37:55,-8.19781,-3.8380876000000006,4.0031924,-0.10867889,-0.2625389,0.7937223000000001,9.897502581,0.843049717,crawl
09/07/2020, 21:37:55,-8.181061,-3.8237305,3.9481572999999996,-0.10867889,-0.2625389,0.7937223000000001,9.855892477000001,0.843049717,crawl
09/07/2020, 21:37:55,-8.181061,-3.8237305,3.9481572999999996,-0.091583334,-0.2613178,0.8218078000000001,9.855892477000001,0.867203873,crawl
09/07/2020, 21:37:55,-8.228917,-3.8261235,3.9194436,-0.091583334,-0.2613178,0.8218078000000001,9.885157361000001,0.867203873,crawl
09/07/2020, 21:37:55,-8.228917,-3.8261235,3.9194436,-0.085477784,-0.26498112,0.8425666999999999,9.885157361000001,0.8873782379999999,crawl
09/07/2020, 21:37:55,-8.305488,-3.8213377,3.8404803,-0.085477784,-0.26498112,0.8425666999999999,9.916301517,0.8873782379999999,crawl
09/07/2020, 21:37:56,-8.224132,-3.35713,3.3930225,-0.09280445,0.024422223,-0.67283225,9.508904481,0.6796413379999999,crawl
09/07/2020, 21:37:56,-8.224132,-3.35713,3.3930225,-0.10501556,0.029306669,-0.63742,9.508904481,0.646677202,crawl
09/07/2020, 21:37:56,-8.152347,-3.3116665000000003,3.3930225,-0.10501556,0.029306669,-0.63742,9.430826694,0.646677202,crawl
09/07/2020, 21:37:56,-8.152347,-3.3116665000000003,3.3930225,-0.12211112,0.023201112000000003,-0.59834445,9.430826694,0.6111182310000001,crawl
09/07/2020, 21:37:56,-8.092526,-3.2614172000000003,3.4097722000000004,-0.12211112,0.023201112000000003,-0.59834445,9.367623611,0.6111182310000001,crawl
09/07/2020, 21:37:56,-8.092526,-3.2614172000000003,3.4097722000000004,-0.14409111,0.019537778999999998,-0.5641534,9.367623611,0.582591626,crawl
09/07/2020, 21:37:56,-8.082955,-3.2422748,3.4480574,-0.14409111,0.019537778999999998,-0.5641534,9.36672904,0.582591626,crawl
09/07/2020, 21:37:56,-8.082955,-3.2422748,3.4480574,-0.15874445,0.018316668,-0.52141446,9.36672904,0.545351575,crawl
09/07/2020, 21:37:56,-8.102097500000001,-3.2853456,3.5126635999999998,-0.15874445,0.018316668,-0.52141446,9.422116805,0.545351575,crawl
09/07/2020, 21:37:56,-8.102097500000001,-3.2853456,3.5126635999999998,-0.15630223,0.013432221999999999,-0.47012780000000004,9.422116805,0.495611694,crawl
09/07/2020, 21:37:56,-8.087741000000001,-3.278167,3.5653057,-0.15630223,0.013432221999999999,-0.47012780000000004,9.427053441,0.495611694,crawl
09/07/2020, 21:37:56,-8.087741000000001,-3.278167,3.5653057,-0.14164889,0.017095556,-0.42494670000000007,9.427053441,0.448259255,crawl
09/07/2020, 21:37:56,-8.054241000000001,-3.3308089999999995,3.6681972000000003,-0.14164889,0.017095556,-0.42494670000000007,9.456255111,0.448259255,crawl
09/07/2020, 21:37:56,-8.054241000000001,-3.3308089999999995,3.6681972000000003,-0.11844778,0.03174889,-0.37488112,9.456255111,0.394428348,crawl
09/07/2020, 21:37:56,-7.9944205,-3.3762727,3.7974095,-0.11844778,0.03174889,-0.37488112,9.472607664,0.394428348,crawl
09/07/2020, 21:37:56,-7.9944205,-3.3762727,3.7974095,-0.08059334,0.037854444,-0.32359445,9.472607664,0.335621236,crawl
09/07/2020, 21:37:56,-7.9633136,-3.4121652,3.8476589,-0.08059334,0.037854444,-0.32359445,9.479541818,0.335621236,crawl
09/07/2020, 21:37:56,-7.9633136,-3.4121652,3.8476589,-0.037854444,0.05006556,-0.26620224,9.479541818,0.27350165,crawl
09/07/2020, 21:37:56,-7.951349700000001,-3.4456646,3.897908,-0.037854444,0.05006556,-0.26620224,9.502118396,0.27350165,crawl
09/07/2020, 21:37:56,-7.951349700000001,-3.4456646,3.897908,0.0,0.057392225,-0.21003112,9.502118396,0.217731347,crawl
09/07/2020, 21:37:57,-8.283952000000001,-4.017549,3.3427732000000003,0.61544,0.24300112,-1.1319700000000001,9.794829742000001,1.311172048,crawl
09/07/2020, 21:37:57,-8.2145605,-4.1036906,3.3044882000000007,0.61544,0.24300112,-1.1319700000000001,9.759043152,1.311172048,crawl
09/07/2020, 21:37:57,-8.2145605,-4.1036906,3.3044882000000007,0.75831,0.28696109999999997,-1.1283067,9.759043152,1.3894088230000001,crawl
09/07/2020, 21:37:57,-8.147561,-4.173083,3.2877383,0.75831,0.28696109999999997,-1.1283067,9.726592158999999,1.3894088230000001,crawl
09/07/2020, 21:37:57,-8.147561,-4.173083,3.2877383,0.9280444999999999,0.34069002,-1.1356333,9.726592158999999,1.505655798,crawl
09/07/2020, 21:37:57,-8.126026,-4.299902400000001,3.2542388,0.9280444999999999,0.34069002,-1.1356333,9.752514162,1.505655798,crawl
09/07/2020, 21:37:57,-8.126026,-4.299902400000001,3.2542388,1.1136534,0.39686114,-1.1356333,9.752514162,1.639324803,crawl
09/07/2020, 21:37:57,-8.135597,-4.3501515,3.2877383,1.1136534,0.39686114,-1.1356333,9.793925871,1.639324803,crawl
09/07/2020, 21:37:57,-8.135597,-4.3501515,3.2877383,1.3090311000000001,0.46280113,-1.1295278,9.793925871,1.7898548680000002,crawl
09/07/2020, 21:37:57,-8.176275,-4.359723000000001,3.2542388,1.3090311000000001,0.46280113,-1.1295278,9.820831579,1.7898548680000002,crawl
09/07/2020, 21:37:57,-8.176275,-4.359723000000001,3.2542388,1.4726601000000001,0.5104245,-1.1283067,9.820831579,1.92414577,crawl
09/07/2020, 21:37:57,-8.185846000000002,-4.2951164,3.1944182,1.4726601000000001,0.5104245,-1.1283067,9.780614132,1.92414577,crawl
09/07/2020, 21:37:57,-8.185846000000002,-4.2951164,3.1944182,1.6020979,0.5470578,-1.1270856000000002,9.780614132,2.0337924430000003,crawl
09/07/2020, 21:37:57,-8.276773,-4.208975,3.1154552000000004,1.6020979,0.5470578,-1.1270856000000002,9.79420792,2.0337924430000003,crawl
09/07/2020, 21:37:57,-8.276773,-4.208975,3.1154552000000004,1.7034501,0.57514334,-1.10999,9.79420792,2.112962339,crawl
09/07/2020, 21:37:57,-8.3581295,-4.1228333,3.0484560000000003,1.7034501,0.57514334,-1.10999,9.805568137,2.112962339,crawl
09/07/2020, 21:37:57,-8.3581295,-4.1228333,3.0484560000000003,1.7779379000000002,0.5800278,-1.1051056000000001,9.805568137,2.1722692930000003,crawl
09/07/2020, 21:37:57,-8.46102,-3.993621,3.1106694,1.7779379000000002,0.5800278,-1.1051056000000001,9.859723167,2.1722692930000003,crawl
09/07/2020, 21:37:57,-8.46102,-3.993621,3.1106694,1.8328879,0.5678167,-1.0977788999999998,9.859723167,2.210658801,crawl
09/07/2020, 21:37:57,-8.559127,-3.8691942999999998,3.1513473999999997,1.8328879,0.5678167,-1.0977788999999998,9.907588366,2.210658801,crawl
09/07/2020, 21:37:58,-8.52802,-2.7996025,3.1274192000000003,0.02198,0.21247335,0.7558678000000001,9.505032813,0.7854706509999999,crawl
09/07/2020, 21:37:58,-8.52802,-2.7996025,3.1274192000000003,-0.048844445,0.18072446,0.72411895,9.505032813,0.7479273759999999,crawl
09/07/2020, 21:37:58,-8.516055999999999,-2.8187451,3.1944182,-0.048844445,0.18072446,0.72411895,9.522228865,0.7479273759999999,crawl
09/07/2020, 21:37:58,-8.516055999999999,-2.8187451,3.1944182,-0.09646778,0.16118668,0.68504333,9.522228865,0.7103319990000001,crawl
09/07/2020, 21:37:58,-8.458628,-2.8713872000000005,3.2901309999999997,-0.09646778,0.16118668,0.68504333,9.519359741,0.7103319990000001,crawl
09/07/2020, 21:37:58,-8.458628,-2.8713872000000005,3.2901309999999997,-0.12577444,0.14897557,0.63742,9.519359741,0.666571215,crawl
09/07/2020, 21:37:58,-8.437092999999999,-2.9647074,3.3762727,-0.12577444,0.14897557,0.63742,9.558935171,0.666571215,crawl
09/07/2020, 21:37:58,-8.437092999999999,-2.9647074,3.3762727,-0.13554333,0.13798556,0.57270116,9.558935171,0.604482111,crawl
09/07/2020, 21:37:58,-8.4347,-3.0388846000000003,3.4504502,-0.13554333,0.13798556,0.57270116,9.606486902,0.604482111,crawl
09/07/2020, 21:37:58,-8.4347,-3.0388846000000003,3.4504502,-0.12821667,0.12943779,0.5140878,9.606486902,0.545417196,crawl
09/07/2020, 21:37:58,-8.398808,-3.1345978,3.5413775000000003,-0.12821667,0.12943779,0.5140878,9.638829077999999,0.545417196,crawl
09/07/2020, 21:37:58,-8.398808,-3.1345978,3.5413775000000003,-0.10379445,0.12699556,0.44570556,9.638829077999999,0.474925899,crawl
09/07/2020, 21:37:58,-8.396415,-3.2733814999999997,3.5892339,-0.10379445,0.12699556,0.44570556,9.700381788,0.474925899,crawl
09/07/2020, 21:37:58,-8.396415,-3.2733814999999997,3.5892339,-0.06716111,0.123332225,0.37732336,9.700381788,0.402609451,crawl
09/07/2020, 21:37:58,-8.427522,-3.3810585,3.7016966,-0.06716111,0.123332225,0.37732336,9.805979622,0.402609451,crawl
09/07/2020, 21:37:58,-8.427522,-3.3810585,3.7016966,-0.018316668,0.12577444,0.30039334,9.805979622,0.326176135,crawl
09/07/2020, 21:37:58,-8.465807,-3.4600215,3.792624,-0.018316668,0.12577444,0.30039334,9.900789516,0.326176135,crawl
09/07/2020, 21:37:58,-8.465807,-3.4600215,3.792624,0.034191112999999995,0.12455334,0.21857889999999996,9.900789516,0.253888369,crawl
09/07/2020, 21:37:58,-8.566305,-3.5006995,3.8452660000000005,0.034191112999999995,0.12455334,0.21857889999999996,10.02110536,0.253888369,crawl
09/07/2020, 21:37:58,-8.566305,-3.5006995,3.8452660000000005,0.07693,0.11234222,0.14164889,10.02110536,0.1964775,crawl
09/07/2020, 21:37:59,-7.980063400000001,-3.225525,3.6203406000000005,-0.54461557,-0.045181114,0.6203245,9.337681154,0.8267103029999999,crawl
09/07/2020, 21:37:59,-7.987242,-3.2829528,3.5844483,-0.54461557,-0.045181114,0.6203245,9.349977924,0.8267103029999999,crawl
09/07/2020, 21:37:59,-7.987242,-3.2829528,3.5844483,-0.5153089,-0.047623335999999995,0.6874856,9.349977924,0.860492695,crawl
09/07/2020, 21:37:59,-7.9968133,-3.266203,3.5509489000000003,-0.5153089,-0.047623335999999995,0.6874856,9.339504391,0.860492695,crawl
09/07/2020, 21:37:59,-7.9968133,-3.266203,3.5509489000000003,-0.4823389,-0.05006556,0.7485411,9.339504391,0.8918919120000001,crawl
09/07/2020, 21:37:59,-8.049456,-3.2709884999999996,3.5294135000000004,-0.4823389,-0.05006556,0.7485411,9.378158724,0.8918919120000001,crawl
09/07/2020, 21:37:59,-8.049456,-3.2709884999999996,3.5294135000000004,-0.4493689,-0.054950003,0.80471224,9.378158724,0.923316678,crawl
09/07/2020, 21:37:59,-8.142776,-3.2901309999999997,3.5365917999999996,-0.4493689,-0.054950003,0.80471224,9.467694406,0.923316678,crawl
09/07/2020, 21:37:59,-8.142776,-3.2901309999999997,3.5365917999999996,-0.42372558,-0.057392225,0.8523356,9.467694406,0.9535791309999999,crawl
09/07/2020, 21:37:59,-8.221739,-3.2614172000000003,3.5485559999999996,-0.42372558,-0.057392225,0.8523356,9.530271837,0.9535791309999999,crawl
09/07/2020, 21:37:59,-8.221739,-3.2614172000000003,3.5485559999999996,-0.41395667,-0.05250778,0.8975167,9.530271837,0.9897744540000001,crawl
09/07/2020, 21:37:59,-8.29113,-3.2063822999999996,3.4911282,-0.41395667,-0.05250778,0.8975167,9.550481727000001,0.9897744540000001,crawl
09/07/2020, 21:37:59,-8.29113,-3.2063822999999996,3.4911282,-0.42250445,-0.06838222599999999,0.9402556000000001,9.550481727000001,1.03308601,crawl
09/07/2020, 21:37:59,-8.382058,-3.2039895,3.4767714,-0.42250445,-0.06838222599999999,0.9402556000000001,9.623532955,1.03308601,crawl
09/07/2020, 21:37:59,-8.382058,-3.2039895,3.4767714,-0.42861003,-0.07937223,0.98055226,9.623532955,1.0730746629999999,crawl
09/07/2020, 21:37:59,-8.477771,-3.199204,3.4624143,-0.42861003,-0.07937223,0.98055226,9.70029981,1.0730746629999999,crawl
09/07/2020, 21:37:59,-8.477771,-3.199204,3.4624143,-0.43471557,-0.07937223,1.0159645,9.70029981,1.107908596,crawl
09/07/2020, 21:37:59,-8.547162,-3.196811,3.4528432000000002,-0.43471557,-0.07937223,1.0159645,9.756828666,1.107908596,crawl
09/07/2020, 21:37:59,-8.547162,-3.196811,3.4528432000000002,-0.43837890000000007,-0.081814446,1.0501556,9.756828666,1.140919161,crawl
09/07/2020, 21:37:59,-8.673982,-3.2087752999999997,3.495914,-0.43837890000000007,-0.081814446,1.0501556,9.88714374,1.140919161,crawl
09/07/2020, 21:38:00,-9.068798,-1.9980069,3.4097722000000004,0.80471224,-0.16729222,-1.1563921999999998,9.892506065,1.418728807,crawl
09/07/2020, 21:38:00,-8.977871,-1.9286151000000002,3.4073794,0.80471224,-0.16729222,-1.1563921999999998,9.794486057,1.418728807,crawl
09/07/2020, 21:38:00,-8.977871,-1.9286151000000002,3.4073794,0.7021389,-0.17950334,-1.10999,9.794486057,1.325631278,crawl
09/07/2020, 21:38:00,-8.932407000000001,-1.8999012,3.3619158,0.7021389,-0.17950334,-1.10999,9.731392706,1.325631278,crawl
09/07/2020, 21:38:00,-8.932407000000001,-1.8999012,3.3619158,0.61544,-0.1965989,-1.0648090000000001,9.731392706,1.245486117,crawl
09/07/2020, 21:38:00,-8.865408,-1.9645073,3.3427732000000003,0.61544,-0.1965989,-1.0648090000000001,9.676201722,1.245486117,crawl
09/07/2020, 21:38:00,-8.865408,-1.9645073,3.3427732000000003,0.57270116,-0.19782001,-1.0245123,9.676201722,1.190270895,crawl
09/07/2020, 21:38:00,-8.817552000000001,-2.0697916000000003,3.4169507000000006,0.57270116,-0.19782001,-1.0245123,9.680330864,1.190270895,crawl
09/07/2020, 21:38:00,-8.817552000000001,-2.0697916000000003,3.4169507000000006,0.5788066999999999,-0.17217667,-0.97933114,9.680330864,1.150543991,crawl
09/07/2020, 21:38:00,-8.841479,-2.1559331000000004,3.4695928,0.5788066999999999,-0.17217667,-0.97933114,9.739500922000001,1.150543991,crawl
09/07/2020, 21:38:00,-8.841479,-2.1559331000000004,3.4695928,0.61666113,-0.14775445,-0.9268234000000001,9.739500922000001,1.122988825,crawl
09/07/2020, 21:38:00,-8.836694,-2.1463617999999998,3.5413775000000003,0.61666113,-0.14775445,-0.9268234000000001,9.758861649,1.122988825,crawl
09/07/2020, 21:38:00,-8.836694,-2.1463617999999998,3.5413775000000003,0.6325356,-0.14164889,-0.8779789000000001,9.758861649,1.09133526,crawl
09/07/2020, 21:38:00,-8.807981,-2.050649,3.5509489000000003,0.6325356,-0.14164889,-0.8779789000000001,9.715704811,1.09133526,crawl
09/07/2020, 21:38:00,-8.807981,-2.050649,3.5509489000000003,0.63619894,-0.14531223,-0.8437878000000001,9.715704811,1.0666970359999999,crawl
09/07/2020, 21:38:00,-8.702696000000001,-1.969293,3.5509489000000003,0.63619894,-0.14531223,-0.8437878000000001,9.603346692999999,1.0666970359999999,crawl
09/07/2020, 21:38:00,-8.702696000000001,-1.969293,3.5509489000000003,0.63131446,-0.14409111,-0.79616445,9.603346692999999,1.026254368,crawl
09/07/2020, 21:38:00,-8.6141615,-1.969293,3.5581272000000004,0.63131446,-0.14409111,-0.79616445,9.525868046,1.026254368,crawl
09/07/2020, 21:38:00,-8.6141615,-1.969293,3.5581272000000004,0.64963114,-0.12699556,-0.7448778,9.525868046,0.9964895659999999,crawl
09/07/2020, 21:38:00,-8.5016985,-2.0267207999999997,3.5437703000000003,0.64963114,-0.12699556,-0.7448778,9.431054149,0.9964895659999999,crawl
09/07/2020, 21:38:01,-8.82473,-1.174876,4.4339004,1.1392968,-0.27475002,-0.41151446,9.945635428,1.242106621,crawl
09/07/2020, 21:38:01,-8.922835000000001,-1.0025927,4.3836512999999995,1.1392968,-0.27475002,-0.41151446,9.991925796,1.242106621,crawl
09/07/2020, 21:38:01,-8.922835000000001,-1.0025927,4.3836512999999995,1.1624979,-0.33458444,-0.47745445,9.991925796,1.300504065,crawl
09/07/2020, 21:38:01,-9.049655,-1.0815558,4.3118663,1.1624979,-0.33458444,-0.47745445,10.08256955,1.300504065,crawl
09/07/2020, 21:38:01,-9.049655,-1.0815558,4.3118663,1.2162267,-0.36633334,-0.52141446,10.08256955,1.373055181,crawl
09/07/2020, 21:38:01,-9.085547,-1.2323036,4.2568316,1.2162267,-0.36633334,-0.52141446,10.10872694,1.373055181,crawl
09/07/2020, 21:38:01,-9.085547,-1.2323036,4.2568316,1.2723978999999999,-0.37976557,-0.53118336,10.10872694,1.4301657269999999,crawl
09/07/2020, 21:38:01,-9.020942,-1.2107682,4.206582,1.2723978999999999,-0.37976557,-0.53118336,10.02689793,1.4301657269999999,crawl
09/07/2020, 21:38:01,-9.020942,-1.2107682,4.206582,1.2846090000000001,-0.37854445,-0.51164556,10.02689793,1.433630795,crawl
09/07/2020, 21:38:01,-8.941978,-0.9834501,4.1874394,1.2846090000000001,-0.37854445,-0.51164556,9.922741652000001,1.433630795,crawl
09/07/2020, 21:38:01,-8.941978,-0.9834501,4.1874394,1.2491968,-0.41395667,-0.50676113,9.922741652000001,1.410198404,crawl
09/07/2020, 21:38:01,-8.963513,-0.6867401,4.1850467,1.2491968,-0.41395667,-0.50676113,9.916188765,1.410198404,crawl
09/07/2020, 21:38:01,-8.963513,-0.6867401,4.1850467,1.2223322,-0.46158000000000005,-0.5360678000000001,9.916188765,1.412275071,crawl
09/07/2020, 21:38:01,-9.004191,-0.56470615,4.063013,1.2223322,-0.46158000000000005,-0.5360678000000001,9.894565733,1.412275071,crawl
09/07/2020, 21:38:01,-9.004191,-0.56470615,4.063013,1.2186689,-0.48844448,-0.5836911,9.894565733,1.4368115080000001,crawl
09/07/2020, 21:38:01,-8.980264,-0.61016977,3.9720855000000004,1.2186689,-0.48844448,-0.5836911,9.838440246000001,1.4368115080000001,crawl
09/07/2020, 21:38:01,-8.980264,-0.61016977,3.9720855000000004,1.2052367,-0.5018767,-0.60811335,9.838440246000001,1.44023523,crawl
09/07/2020, 21:38:01,-8.937192999999999,-0.66759753,3.940979,1.2052367,-0.5018767,-0.60811335,9.790322733,1.44023523,crawl
09/07/2020, 21:38:01,-8.937192999999999,-0.66759753,3.940979,1.1881411,-0.5250778,-0.6227666999999999,9.790322733,1.440563896,crawl
09/07/2020, 21:38:01,-8.920442999999999,-0.6628119,4.0031924,1.1881411,-0.5250778,-0.6227666999999999,9.799957399,1.440563896,crawl
09/07/2020, 21:38:02,-8.894122,0.05503492,3.952943,-3.3873622,0.4261678,0.6935911,9.733149348,3.4838069089999997,crawl
09/07/2020, 21:38:02,-8.894122,0.05503492,3.952943,-3.7304945,0.41151446,0.7070234000000001,9.733149348,3.819138047,crawl
09/07/2020, 21:38:02,-8.906086,-0.0741775,3.7974095,-3.7304945,0.41151446,0.7070234000000001,9.682158269,3.819138047,crawl
09/07/2020, 21:38:02,-8.906086,-0.0741775,3.7974095,-4.0272245,0.36999667,0.7216767,9.682158269,4.108071604,crawl
09/07/2020, 21:38:02,-8.982656500000001,-0.25842485,3.6490544999999996,-4.0272245,0.36999667,0.7216767,9.698994781,4.108071604,crawl
09/07/2020, 21:38:02,-8.982656500000001,-0.25842485,3.6490544999999996,-4.200622599999999,0.30894113,0.73633003,9.698994781,4.275845696,crawl
09/07/2020, 21:38:02,-9.083155,-0.61016977,3.6203406000000005,-4.200622599999999,0.30894113,0.73633003,9.797084873,4.275845696,crawl
09/07/2020, 21:38:02,-9.083155,-0.61016977,3.6203406000000005,-4.244582,0.2820767,0.7485411,9.797084873,4.319300743,crawl
09/07/2020, 21:38:02,-9.12144,-1.0552348,3.6921253,-4.244582,0.2820767,0.7485411,9.896765952,4.319300743,crawl
09/07/2020, 21:38:02,-9.12144,-1.0552348,3.6921253,-4.2042856,0.29184556,0.7717421999999999,9.896765952,4.284481005,crawl
09/07/2020, 21:38:02,-9.049655,-1.4452649,3.7136607,-4.2042856,0.29184556,0.7717421999999999,9.888191016,4.284481005,crawl
09/07/2020, 21:38:02,-9.049655,-1.4452649,3.7136607,-4.106597,0.31504667,0.80227005,9.888191016,4.196073179,crawl
09/07/2020, 21:38:02,-8.953942,-1.7132610000000001,3.694518,-4.106597,0.31504667,0.80227005,9.836554777,4.196073179,crawl
09/07/2020, 21:38:02,-8.953942,-1.7132610000000001,3.694518,-3.9832647000000003,0.34435335,0.84745115,9.836554777,4.086948768,crawl
09/07/2020, 21:38:02,-8.841479,-1.861616,3.6179477999999996,-3.9832647000000003,0.34435335,0.84745115,9.732775392,4.086948768,crawl
09/07/2020, 21:38:02,-8.841479,-1.861616,3.6179477999999996,-3.8294046,0.37488112,0.8865267,9.732775392,3.9485193410000003,crawl
09/07/2020, 21:38:02,-8.752945,-1.9740787,3.5198421000000004,-3.8294046,0.37488112,0.8865267,9.638481235,3.9485193410000003,crawl
09/07/2020, 21:38:02,-8.752945,-1.9740787,3.5198421000000004,-3.6499012000000004,0.40785113,0.9060645,9.638481235,3.782733649,crawl
09/07/2020, 21:38:02,-8.760123,-2.1128622999999997,3.3906297999999997,-3.6499012000000004,0.40785113,0.9060645,9.62810038,3.782733649,crawl
09/07/2020, 21:38:02,-8.760123,-2.1128622999999997,3.3906297999999997,-3.4655135,0.42250445,0.9268234000000001,9.62810038,3.612103983,crawl
09/07/2020, 21:38:03,-8.135597,-1.8376877,4.3764725,0.2613178,0.08303556,0.085477784,9.419052488,0.28720783899999996,crawl
09/07/2020, 21:38:03,-8.135597,-1.8376877,4.3764725,0.24788557,0.08914111599999999,0.11356334,9.419052488,0.286862381,crawl
09/07/2020, 21:38:03,-8.106883,-1.8017955,4.35733,0.24788557,0.08914111599999999,0.11356334,9.378397684,0.286862381,crawl
09/07/2020, 21:38:03,-8.106883,-1.8017955,4.35733,0.2295689,0.09646778,0.13798556,9.378397684,0.284689173,crawl
09/07/2020, 21:38:03,-8.114061,-1.7635102999999999,4.3740797,0.2295689,0.09646778,0.13798556,9.385122998,0.284689173,crawl
09/07/2020, 21:38:03,-8.114061,-1.7635102999999999,4.3740797,0.20026223,0.11356334,0.15996556,9.385122998,0.280340104,crawl
09/07/2020, 21:38:03,-8.200203,-1.7228323,4.299902400000001,0.20026223,0.11356334,0.15996556,9.418101745,0.280340104,crawl
09/07/2020, 21:38:03,-8.200203,-1.7228323,4.299902400000001,0.16607112,0.13676445,0.17950334,9.418101745,0.280188471,crawl
09/07/2020, 21:38:03,-8.384451,-1.6749758999999997,4.134797600000001,0.16607112,0.13676445,0.17950334,9.497426612,0.280188471,crawl
09/07/2020, 21:38:03,-8.384451,-1.6749758999999997,4.134797600000001,0.12455334,0.13554333,0.19415668,9.497426612,0.26754876899999996,crawl
09/07/2020, 21:38:03,-8.523234,-1.5768701,3.9361932,0.12455334,0.13554333,0.19415668,9.519751072,0.26754876899999996,crawl
09/07/2020, 21:38:03,-8.523234,-1.5768701,3.9361932,0.08059334,0.123332225,0.21857889999999996,9.519751072,0.26359602,crawl
09/07/2020, 21:38:03,-8.556734,-1.4691931,3.8524443999999995,0.08059334,0.123332225,0.21857889999999996,9.498292188999999,0.26359602,crawl
09/07/2020, 21:38:03,-8.556734,-1.4691931,3.8524443999999995,0.02075889,0.13310112,0.23079000000000002,9.498292188999999,0.267228116,crawl
09/07/2020, 21:38:03,-8.465807,-1.4356936000000002,3.7998023,0.02075889,0.13310112,0.23079000000000002,9.389866944,0.267228116,crawl
09/07/2020, 21:38:03,-8.465807,-1.4356936000000002,3.7998023,-0.013432221999999999,0.16118668,0.2503278,9.389866944,0.298036199,crawl
09/07/2020, 21:38:03,-8.384451,-1.3950156,3.8165522000000003,-0.013432221999999999,0.16118668,0.2503278,9.317250454,0.298036199,crawl
09/07/2020, 21:38:03,-8.384451,-1.3950156,3.8165522000000003,-0.018316668,0.20148334,0.27719223,9.317250454,0.343171344,crawl
09/07/2020, 21:38:03,-8.384451,-1.3423735,3.8309089999999997,-0.018316668,0.20148334,0.27719223,9.315409146,0.343171344,crawl
09/07/2020, 21:38:03,-8.384451,-1.3423735,3.8309089999999997,-0.017095556,0.25521225,0.3284789,9.315409146,0.41632191700000004,crawl
09/07/2020, 21:38:04,-8.879764999999999,-0.8662018,3.2015967,0.32115224,-0.5556055999999999,-0.7570889000000001,9.478963332000001,0.992481705,crawl
09/07/2020, 21:38:04,-8.834301,-0.8446664,3.3020952000000006,0.32115224,-0.5556055999999999,-0.7570889000000001,9.469010929,0.992481705,crawl
09/07/2020, 21:38:04,-8.834301,-0.8446664,3.3020952000000006,0.37610224,-0.5018767,-0.7228978,9.469010929,0.957034167,crawl
09/07/2020, 21:38:04,-8.915657000000001,-0.8255238000000001,3.3236306000000004,0.37610224,-0.5018767,-0.7228978,9.550756526,0.957034167,crawl
09/07/2020, 21:38:04,-8.915657000000001,-0.8255238000000001,3.3236306000000004,0.41029334,-0.46280113,-0.6777167,9.550756526,0.917510435,crawl
09/07/2020, 21:38:04,-9.040084,-0.8135597,3.2685957,0.41029334,-0.46280113,-0.6777167,9.647212752,0.917510435,crawl
09/07/2020, 21:38:04,-9.040084,-0.8135597,3.2685957,0.42494670000000007,-0.44448447,-0.64841,9.647212752,0.893633984,crawl
09/07/2020, 21:38:04,-9.138189,-0.7848458,3.2303107000000004,0.42494670000000007,-0.44448447,-0.64841,9.72406263,0.893633984,crawl
09/07/2020, 21:38:04,-9.138189,-0.7848458,3.2303107000000004,0.41639890000000007,-0.43960002,-0.6105556,9.72406263,0.859892063,crawl
09/07/2020, 21:38:04,-9.042477,-0.7680961,3.225525,0.41639890000000007,-0.43960002,-0.6105556,9.631218331,0.859892063,crawl
09/07/2020, 21:38:04,-9.042477,-0.7680961,3.225525,0.39686114,-0.42128336,-0.58124894,9.631218331,0.8202613990000001,crawl
09/07/2020, 21:38:04,-8.886942999999999,-0.7752745,3.2805598,0.39686114,-0.42128336,-0.58124894,9.50478177,0.8202613990000001,crawl
09/07/2020, 21:38:04,-8.886942999999999,-0.7752745,3.2805598,0.39808223,-0.39197668,-0.55438447,9.50478177,0.78705611,crawl
09/07/2020, 21:38:04,-8.7266245,-0.78723866,3.3523445,0.39808223,-0.39197668,-0.55438447,9.381467551,0.78705611,crawl
09/07/2020, 21:38:04,-8.7266245,-0.78723866,3.3523445,0.41273558,-0.3602278,-0.53851,9.381467551,0.768184724,crawl
09/07/2020, 21:38:04,-8.633303999999999,-0.79441714,3.4169507000000006,0.41273558,-0.3602278,-0.53851,9.318829459,0.768184724,crawl
09/07/2020, 21:38:04,-8.633303999999999,-0.79441714,3.4169507000000006,0.44448447,-0.33336335,-0.5250778,9.318829459,0.764463399,crawl
09/07/2020, 21:38:04,-8.5423765,-0.78723866,3.4911282,0.44448447,-0.33336335,-0.5250778,9.261744838,0.764463399,crawl
09/07/2020, 21:38:04,-8.5423765,-0.78723866,3.4911282,0.47134890000000007,-0.3162678,-0.5189722,9.261744838,0.769108103,crawl
09/07/2020, 21:38:04,-8.46102,-0.8063812,3.5796626000000002,0.47134890000000007,-0.3162678,-0.5189722,9.222423875,0.769108103,crawl
09/07/2020, 21:38:05,-8.82473,-0.77766734,4.8215375,0.048844445,-0.006105556,-0.10013112,10.08602243,0.11157642300000001,crawl
09/07/2020, 21:38:05,-8.76491,-0.7369894,4.8239303,0.048844445,-0.006105556,-0.10013112,10.03180439,0.11157642300000001,crawl
09/07/2020, 21:38:05,-8.76491,-0.7369894,4.8239303,0.06227667,-0.054950003,-0.12943779,10.03180439,0.15379215699999998,crawl
09/07/2020, 21:38:05,-8.719446000000001,-0.6652047,4.855037,0.06227667,-0.054950003,-0.12943779,10.00213104,0.15379215699999998,crawl
09/07/2020, 21:38:05,-8.719446000000001,-0.6652047,4.855037,0.054950003,-0.10013112,-0.15874445,10.00213104,0.19556468300000002,crawl
09/07/2020, 21:38:05,-8.71466,-0.6149554,4.843073,0.054950003,-0.10013112,-0.15874445,9.988934815,0.19556468300000002,crawl
09/07/2020, 21:38:05,-8.71466,-0.6149554,4.843073,0.035412222,-0.15019667,-0.18194556,9.988934815,0.238573371,crawl
09/07/2020, 21:38:05,-8.781659,-0.59581286,4.8358946,0.035412222,-0.15019667,-0.18194556,10.04282861,0.238573371,crawl
09/07/2020, 21:38:05,-8.781659,-0.59581286,4.8358946,0.007326666999999999,-0.20881,-0.20514667,10.04282861,0.29281470800000003,crawl
09/07/2020, 21:38:05,-8.843872,-0.5838486999999999,4.8047876,0.007326666999999999,-0.20881,-0.20514667,10.08171299,0.29281470800000003,crawl
09/07/2020, 21:38:05,-8.843872,-0.5838486999999999,4.8047876,-0.02075889,-0.26986557,-0.23323223,10.08171299,0.35728928299999996,crawl
09/07/2020, 21:38:05,-8.9013,-0.6125626000000001,4.740181400000001,-0.02075889,-0.26986557,-0.23323223,10.10335105,0.35728928299999996,crawl
09/07/2020, 21:38:05,-8.9013,-0.6125626000000001,4.740181400000001,-0.04029667,-0.33092109999999997,-0.25399113,10.10335105,0.41909915,crawl
09/07/2020, 21:38:05,-8.982656500000001,-0.64606214,4.6229334,-0.04029667,-0.33092109999999997,-0.25399113,10.12309374,0.41909915,crawl
09/07/2020, 21:38:05,-8.982656500000001,-0.64606214,4.6229334,-0.06349778,-0.3834289,-0.28329778,10.12309374,0.480944198,crawl
09/07/2020, 21:38:05,-9.020942,-0.66999036,4.575076999999999,-0.06349778,-0.3834289,-0.28329778,10.13694268,0.480944198,crawl
09/07/2020, 21:38:05,-9.020942,-0.66999036,4.575076999999999,-0.08425667,-0.43837890000000007,-0.32237336,10.13694268,0.550635842,crawl
09/07/2020, 21:38:05,-9.059227,-0.6652047,4.505685,-0.08425667,-0.43837890000000007,-0.32237336,10.139688699999999,0.550635842,crawl
09/07/2020, 21:38:05,-9.059227,-0.6652047,4.505685,-0.09646778,-0.48966557,-0.35778558,10.139688699999999,0.614075666,crawl
09/07/2020, 21:38:05,-9.066405,-0.64845496,4.421936,-0.09646778,-0.48966557,-0.35778558,10.10810156,0.614075666,crawl
09/07/2020, 21:38:06,-8.449057,-1.4548361,4.4075794,-0.4493689,0.3614489,0.45425335,9.640013609,0.734114312,crawl
09/07/2020, 21:38:06,-8.489735000000001,-1.4117653000000001,4.3740797,-0.4493689,0.3614489,0.45425335,9.654079399,0.734114312,crawl
09/07/2020, 21:38:06,-8.489735000000001,-1.4117653000000001,4.3740797,-0.5140878,0.3370267,0.46524334,9.654079399,0.770924519,crawl
09/07/2020, 21:38:06,-8.535198,-1.3926228,4.3405805,-0.5140878,0.3370267,0.46524334,9.676241296,0.770924519,crawl
09/07/2020, 21:38:06,-8.535198,-1.3926228,4.3405805,-0.59468114,0.30405667,0.47501224,9.676241296,0.819593042,crawl
09/07/2020, 21:38:06,-8.599805,-1.4069797,4.254439,-0.59468114,0.30405667,0.47501224,9.69724115,0.819593042,crawl
09/07/2020, 21:38:06,-8.599805,-1.4069797,4.254439,-0.67161113,0.27475002,0.48722336,9.69724115,0.874034144,crawl
09/07/2020, 21:38:06,-8.652447,-1.3782659,4.206582,-0.67161113,0.27475002,0.48722336,9.719042349,0.874034144,crawl
09/07/2020, 21:38:06,-8.652447,-1.3782659,4.206582,-0.7351089,0.24300112,0.47989670000000006,9.719042349,0.910898179,crawl
09/07/2020, 21:38:06,-8.633303999999999,-1.4165510000000001,4.1898327,-0.7351089,0.24300112,0.47989670000000006,9.700270432,0.910898179,crawl
09/07/2020, 21:38:06,-8.633303999999999,-1.4165510000000001,4.1898327,-0.7802899999999999,0.21980001,0.4823389,9.700270432,0.9433002490000001,crawl
09/07/2020, 21:38:06,-8.6141615,-1.5026926,4.134797600000001,-0.7802899999999999,0.21980001,0.4823389,9.672559856,0.9433002490000001,crawl
09/07/2020, 21:38:06,-8.6141615,-1.5026926,4.134797600000001,-0.80227005,0.20636779,0.47745445,9.672559856,0.9561316129999999,crawl
09/07/2020, 21:38:06,-8.556734,-1.5984055,4.1467614,-0.80227005,0.20636779,0.47745445,9.642003347000001,0.9561316129999999,crawl
09/07/2020, 21:38:06,-8.556734,-1.5984055,4.1467614,-0.79128003,0.20758890000000002,0.47012780000000004,9.642003347000001,0.943523915,crawl
09/07/2020, 21:38:06,-8.496913000000001,-1.7252251,4.1491546999999995,-0.79128003,0.20758890000000002,0.47012780000000004,9.611941314,0.943523915,crawl
09/07/2020, 21:38:06,-8.496913000000001,-1.7252251,4.1491546999999995,-0.7680789000000001,0.21125223,0.46524334,9.611941314,0.922509675,crawl
09/07/2020, 21:38:06,-8.46102,-1.8544376,4.173083,-0.7680789000000001,0.21125223,0.46524334,9.614698459,0.922509675,crawl
09/07/2020, 21:38:06,-8.46102,-1.8544376,4.173083,-0.72778225,0.22224224,0.4493689,9.614698459,0.8837369620000001,crawl
09/07/2020, 21:38:06,-8.446664,-1.9525433,4.1898327,-0.72778225,0.22224224,0.4493689,9.628772166000001,0.8837369620000001,crawl
09/07/2020, 21:38:07,-8.1738825,-2.658426,3.6634114,0.48478112,-0.19171445,-0.58124894,9.34345583,0.780780053,crawl
09/07/2020, 21:38:07,-8.216953,-2.6321049,3.6801612,0.48478112,-0.19171445,-0.58124894,9.380292318,0.780780053,crawl
09/07/2020, 21:38:07,-8.216953,-2.6321049,3.6801612,0.48966557,-0.18072446,-0.55438447,9.380292318,0.761430127,crawl
09/07/2020, 21:38:07,-8.279166,-2.589034,3.6562330000000003,0.48966557,-0.18072446,-0.55438447,9.413592889,0.761430127,crawl
09/07/2020, 21:38:07,-8.279166,-2.589034,3.6562330000000003,0.47623336,-0.17950334,-0.52019334,9.413592889,0.727750488,crawl
09/07/2020, 21:38:07,-8.315059,-2.4909284,3.6394832000000004,0.47623336,-0.17950334,-0.52019334,9.412266662999999,0.727750488,crawl
09/07/2020, 21:38:07,-8.315059,-2.4909284,3.6394832000000004,0.43349445,-0.18072446,-0.49210779999999993,9.412266662999999,0.680256468,crawl
09/07/2020, 21:38:07,-8.293523,-2.4311078,3.5605202000000005,0.43349445,-0.18072446,-0.49210779999999993,9.347197968,0.680256468,crawl
09/07/2020, 21:38:07,-8.293523,-2.4311078,3.5605202000000005,0.37976557,-0.17706113,-0.45547447,9.347197968,0.6188937870000001,crawl
09/07/2020, 21:38:07,-8.30788,-2.3712873,3.5437703000000003,0.37976557,-0.17706113,-0.45547447,9.338211203,0.6188937870000001,crawl
09/07/2020, 21:38:07,-8.30788,-2.3712873,3.5437703000000003,0.31993112,-0.17706113,-0.41639890000000007,9.338211203,0.554161184,crawl
09/07/2020, 21:38:07,-8.30788,-2.3425734,3.5006995,0.31993112,-0.17706113,-0.41639890000000007,9.314688618,0.554161184,crawl
09/07/2020, 21:38:07,-8.30788,-2.3425734,3.5006995,0.2735289,-0.16973445,-0.39197668,9.314688618,0.507221416,crawl
09/07/2020, 21:38:07,-8.32463,-2.2971098,3.507878,0.2735289,-0.16973445,-0.39197668,9.321018355,0.507221416,crawl
09/07/2020, 21:38:07,-8.32463,-2.2971098,3.507878,0.23323223,-0.15874445,-0.35168,9.321018355,0.450861292,crawl
09/07/2020, 21:38:07,-8.286344999999999,-2.2971098,3.5150563999999997,0.23323223,-0.15874445,-0.35168,9.289555456,0.450861292,crawl
09/07/2020, 21:38:07,-8.286344999999999,-2.2971098,3.5150563999999997,0.19782001,-0.14042778,-0.31871,9.289555456,0.400535618,crawl
09/07/2020, 21:38:07,-8.295917,-2.347359,3.5318062000000006,0.19782001,-0.14042778,-0.31871,9.316972726,0.400535618,crawl
09/07/2020, 21:38:07,-8.295917,-2.347359,3.5318062000000006,0.18072446,-0.11966889,-0.28085557,9.316972726,0.354770098,crawl
09/07/2020, 21:38:07,-8.319844,-2.3688943,3.5389847999999997,0.18072446,-0.11966889,-0.28085557,9.346436856,0.354770098,crawl
09/07/2020, 21:38:08,-8.717052,-2.2229322999999996,3.9984066,-0.14042778,-0.18072446,-0.18438779,9.844576552000001,0.29390499800000003,crawl
09/07/2020, 21:38:08,-8.69791,-2.2444677000000004,4.0199419999999995,-0.14042778,-0.18072446,-0.18438779,9.841301300000001,0.29390499800000003,crawl
09/07/2020, 21:38:08,-8.69791,-2.2444677000000004,4.0199419999999995,-0.11966889,-0.19782001,-0.21980001,9.841301300000001,0.319006966,crawl
09/07/2020, 21:38:08,-8.69791,-2.321038,4.034299,-0.11966889,-0.19782001,-0.21980001,9.864908959,0.319006966,crawl
09/07/2020, 21:38:08,-8.69791,-2.321038,4.034299,-0.081814446,-0.21613668,-0.2503278,9.864908959,0.34069439799999995,crawl
09/07/2020, 21:38:08,-8.707481,-2.3904297000000003,4.043870399999999,-0.081814446,-0.21613668,-0.2503278,9.893799805,0.34069439799999995,crawl
09/07/2020, 21:38:08,-8.707481,-2.3904297000000003,4.043870399999999,-0.042738892,-0.23811668,-0.27963445,9.893799805,0.369758827,crawl
09/07/2020, 21:38:08,-8.740981,-2.4095723999999996,4.0390844,-0.042738892,-0.23811668,-0.27963445,9.925975653,0.369758827,crawl
09/07/2020, 21:38:08,-8.740981,-2.4095723999999996,4.0390844,-0.014653333999999999,-0.25765446,-0.31138334,9.925975653,0.40442567,crawl
09/07/2020, 21:38:08,-8.774481,-2.4047867999999997,4.0366917,-0.014653333999999999,-0.25765446,-0.31138334,9.953360886,0.40442567,crawl
09/07/2020, 21:38:08,-8.774481,-2.4047867999999997,4.0366917,0.019537778999999998,-0.27719223,-0.33458444,9.953360886,0.43492989200000004,crawl
09/07/2020, 21:38:08,-8.827123,-2.3784657000000005,4.031905999999999,0.019537778999999998,-0.27719223,-0.33458444,9.991569488,0.43492989200000004,crawl
09/07/2020, 21:38:08,-8.827123,-2.3784657000000005,4.031905999999999,0.06838222599999999,-0.29673,-0.34801668,9.991569488,0.462428846,crawl
09/07/2020, 21:38:08,-8.896514999999999,-2.333002,4.034299,0.06838222599999999,-0.29673,-0.34801668,10.04322874,0.462428846,crawl
09/07/2020, 21:38:08,-8.896514999999999,-2.333002,4.034299,0.117226675,-0.31260446,-0.35778558,10.04322874,0.489360974,crawl
09/07/2020, 21:38:08,-8.949157000000001,-2.2899312999999997,4.0199419999999995,0.117226675,-0.31260446,-0.35778558,10.07428033,0.489360974,crawl
09/07/2020, 21:38:08,-8.949157000000001,-2.2899312999999997,4.0199419999999995,0.13554333,-0.3382478,-0.39075556,10.07428033,0.5342971870000001,crawl
09/07/2020, 21:38:08,-8.932407000000001,-2.2372892,3.991228,0.13554333,-0.3382478,-0.39075556,10.03609816,0.5342971870000001,crawl
09/07/2020, 21:38:08,-8.932407000000001,-2.2372892,3.991228,0.13920668,-0.35656446,-0.41151446,10.03609816,0.562015006,crawl
09/07/2020, 21:38:08,-8.910871499999999,-2.2061825,3.952943,0.13920668,-0.35656446,-0.41151446,9.994830222000001,0.562015006,crawl
09/07/2020, 21:38:09,-8.5423765,-3.0053852,3.5581272000000004,-0.21613668,0.35656446,0.88408446,9.729584033,0.977475635,crawl
09/07/2020, 21:38:09,-8.5423765,-3.0053852,3.5581272000000004,-0.20148334,0.3602278,0.8755367000000001,9.729584033,0.967948386,crawl
09/07/2020, 21:38:09,-8.580662,-2.9790642000000003,3.5437703000000003,-0.20148334,0.3602278,0.8755367000000001,9.749917342,0.967948386,crawl
09/07/2020, 21:38:09,-8.580662,-2.9790642000000003,3.5437703000000003,-0.19904111,0.3614489,0.8621045,9.749917342,0.955765038,crawl
09/07/2020, 21:38:09,-8.580662,-2.914458,3.5557343999999995,-0.19904111,0.3614489,0.8621045,9.73473519,0.955765038,crawl
09/07/2020, 21:38:09,-8.580662,-2.914458,3.5557343999999995,-0.18927222,0.36755446,0.8523356,9.73473519,0.9473099709999999,crawl
09/07/2020, 21:38:09,-8.539984,-2.900101,3.574877,-0.18927222,0.36755446,0.8523356,9.701631495,0.9473099709999999,crawl
09/07/2020, 21:38:09,-8.539984,-2.900101,3.574877,-0.18683001,0.3724389,0.8327978000000001,9.701631495,0.931218778,crawl
09/07/2020, 21:38:09,-8.504091,-2.9192436,3.5389847999999997,-0.18683001,0.3724389,0.8327978000000001,9.662606506,0.931218778,crawl
09/07/2020, 21:38:09,-8.504091,-2.9192436,3.5389847999999997,-0.18683001,0.37854445,0.8205867,9.662606506,0.9228021759999999,crawl
09/07/2020, 21:38:09,-8.506484,-2.9168507999999997,3.5341989999999996,-0.18683001,0.37854445,0.8205867,9.662238445,0.9228021759999999,crawl
09/07/2020, 21:38:09,-8.506484,-2.9168507999999997,3.5341989999999996,-0.17828223,0.38220778,0.8095967,9.662238445,0.912860442,crawl
09/07/2020, 21:38:09,-8.530413000000001,-2.9072795,3.5294135000000004,-0.17828223,0.38220778,0.8095967,9.678686575,0.912860442,crawl
09/07/2020, 21:38:09,-8.530413000000001,-2.9072795,3.5294135000000004,-0.16851334,0.38587109999999997,0.7998278,9.678686575,0.903890366,crawl
09/07/2020, 21:38:09,-8.530413000000001,-2.8785654999999997,3.5365917999999996,-0.16851334,0.38587109999999997,0.7998278,9.672722541,0.903890366,crawl
09/07/2020, 21:38:09,-8.530413000000001,-2.8785654999999997,3.5365917999999996,-0.16240779,0.38709223,0.7766267,9.672722541,0.882816927,crawl
09/07/2020, 21:38:09,-8.554341,-2.9048867,3.5605202000000005,-0.16240779,0.38709223,0.7766267,9.71042873,0.882816927,crawl
09/07/2020, 21:38:09,-8.554341,-2.9048867,3.5605202000000005,-0.14164889,0.3931978,0.7558678000000001,9.71042873,0.8637158220000001,crawl
09/07/2020, 21:38:09,-8.590233,-2.9359933999999996,3.6179477999999996,-0.14164889,0.3931978,0.7558678000000001,9.772497339,0.8637158220000001,crawl
09/07/2020, 21:38:09,-8.590233,-2.9359933999999996,3.6179477999999996,-0.10379445,0.3944189,0.7314456,9.772497339,0.8374677509999999,crawl
09/07/2020, 21:38:10,-8.30788,-2.6751757,3.711268,-0.12455334,-0.09646778,-0.65085226,9.48424754,0.669647844,crawl
09/07/2020, 21:38:10,-8.255239,-2.6392834,3.7471601999999997,-0.12455334,-0.09646778,-0.65085226,9.442244952000001,0.669647844,crawl
09/07/2020, 21:38:10,-8.255239,-2.6392834,3.7471601999999997,-0.123332225,-0.08669889,-0.6007866999999999,9.442244952000001,0.619412768,crawl
09/07/2020, 21:38:10,-8.200203,-2.5914268,3.7734813999999997,-0.123332225,-0.08669889,-0.6007866999999999,9.391378122999999,0.619412768,crawl
09/07/2020, 21:38:10,-8.200203,-2.5914268,3.7734813999999997,-0.12089001,-0.07815111400000001,-0.5372889,9.391378122999999,0.556238579,crawl
09/07/2020, 21:38:10,-8.140383,-2.5603201,3.7686956,-0.12089001,-0.07815111400000001,-0.5372889,9.328672857,0.556238579,crawl
09/07/2020, 21:38:10,-8.140383,-2.5603201,3.7686956,-0.117226675,-0.058613338,-0.47257003,9.328672857,0.49040804600000004,crawl
09/07/2020, 21:38:10,-8.087741000000001,-2.5459633,3.8213377,-0.117226675,-0.058613338,-0.47257003,9.300328151,0.49040804600000004,crawl
09/07/2020, 21:38:10,-8.087741000000001,-2.5459633,3.8213377,-0.10867889,-0.048844445,-0.40052447,9.300328151,0.417871667,crawl
09/07/2020, 21:38:10,-8.037491000000001,-2.5196424,3.8380876000000006,-0.10867889,-0.048844445,-0.40052447,9.256390915,0.417871667,crawl
09/07/2020, 21:38:10,-8.037491000000001,-2.5196424,3.8380876000000006,-0.09402556,-0.04029667,-0.33336335,9.256390915,0.348705826,crawl
09/07/2020, 21:38:10,-8.006385,-2.498107,3.8404803,-0.09402556,-0.04029667,-0.33336335,9.224533911,0.348705826,crawl
09/07/2020, 21:38:10,-8.006385,-2.498107,3.8404803,-0.08425667,-0.026864445,-0.2625389,9.224533911,0.277033508,crawl
09/07/2020, 21:38:10,-7.980063400000001,-2.4837499,3.8380876000000006,-0.08425667,-0.026864445,-0.2625389,9.196811512,0.277033508,crawl
09/07/2020, 21:38:10,-7.980063400000001,-2.4837499,3.8380876000000006,-0.06838222599999999,-0.006105556,-0.18316667,9.196811512,0.195610416,crawl
09/07/2020, 21:38:10,-7.9346,-2.4765713,3.8572302000000005,-0.06838222599999999,-0.006105556,-0.18316667,9.163487623,0.195610416,crawl
09/07/2020, 21:38:10,-7.9346,-2.4765713,3.8572302000000005,-0.042738892,0.01099,-0.10745778,9.163487623,0.11616612,crawl
09/07/2020, 21:38:10,-7.893922,-2.4765713,3.8763726000000003,-0.042738892,0.01099,-0.10745778,9.136392727,0.11616612,crawl
09/07/2020, 21:38:10,-7.893922,-2.4765713,3.8763726000000003,-0.023201112000000003,0.034191112999999995,-0.035412222,9.136392727,0.054418281,crawl
09/07/2020, 21:38:10,-7.862815400000001,-2.4909284,3.8931224,-0.023201112000000003,0.034191112999999995,-0.035412222,9.120580702,0.054418281,crawl
09/07/2020, 21:38:11,-8.796016,-2.8307092000000003,3.3667013999999997,0.10867889,-0.36755446,-0.9842155999999999,9.83450485,1.05621388,crawl
09/07/2020, 21:38:11,-8.796016,-2.8307092000000003,3.3667013999999997,0.08669889,-0.3602278,-0.9854367,9.83450485,1.0527897259999999,crawl
09/07/2020, 21:38:11,-8.7577305,-2.8977082000000003,3.3667013999999997,0.08669889,-0.3602278,-0.9854367,9.819838797000001,1.0527897259999999,crawl
09/07/2020, 21:38:11,-8.7577305,-2.8977082000000003,3.3667013999999997,0.08303556,-0.35412225,-0.9732255999999999,9.819838797000001,1.038973305,crawl
09/07/2020, 21:38:11,-8.729017,-2.9503502999999998,3.3882367999999996,0.08303556,-0.35412225,-0.9732255999999999,9.81735491,1.038973305,crawl
09/07/2020, 21:38:11,-8.729017,-2.9503502999999998,3.3882367999999996,0.085477784,-0.33458444,-0.9646778,9.81735491,1.024625044,crawl
09/07/2020, 21:38:11,-8.669196000000001,-2.9862428,3.438486,0.085477784,-0.33458444,-0.9646778,9.79263979,1.024625044,crawl
09/07/2020, 21:38:11,-8.669196000000001,-2.9862428,3.438486,0.10013112,-0.3174889,-0.9414766999999999,9.79263979,0.998600936,crawl
09/07/2020, 21:38:11,-8.657232,-3.0388846000000003,3.4672,0.10013112,-0.3174889,-0.9414766999999999,9.808362086,0.998600936,crawl
09/07/2020, 21:38:11,-8.657232,-3.0388846000000003,3.4672,0.12577444,-0.30283555,-0.9194966999999998,9.808362086,0.9762186190000001,crawl
09/07/2020, 21:38:11,-8.650053999999999,-3.0484560000000003,3.4791641,0.12577444,-0.30283555,-0.9194966999999998,9.809235471000001,0.9762186190000001,crawl
09/07/2020, 21:38:11,-8.650053999999999,-3.0484560000000003,3.4791641,0.14287001,-0.2942878,-0.8950745000000001,9.809235471000001,0.9529824159999999,crawl
09/07/2020, 21:38:11,-8.609376,-3.0412776000000004,3.481557,0.14287001,-0.2942878,-0.8950745000000001,9.771998896,0.9529824159999999,crawl
09/07/2020, 21:38:11,-8.609376,-3.0412776000000004,3.481557,0.15630223,-0.28085557,-0.8755367000000001,9.771998896,0.932670743,crawl
09/07/2020, 21:38:11,-8.504091,-3.0101709999999997,3.4480574,0.15630223,-0.28085557,-0.8755367000000001,9.657628964,0.932670743,crawl
09/07/2020, 21:38:11,-8.504091,-3.0101709999999997,3.4480574,0.15630223,-0.26376,-0.84623003,9.657628964,0.900058325,crawl
09/07/2020, 21:38:11,-8.4012,-2.9982069,3.4289148000000003,0.15630223,-0.26376,-0.84623003,9.55650916,0.900058325,crawl
09/07/2020, 21:38:11,-8.4012,-2.9982069,3.4289148000000003,0.15386,-0.24788557,-0.81326,9.55650916,0.864009268,crawl
09/07/2020, 21:38:11,-8.334201,-2.9647074,3.3762727,0.15386,-0.24788557,-0.81326,9.468242233,0.864009268,crawl
09/07/2020, 21:38:11,-8.334201,-2.9647074,3.3762727,0.14775445,-0.23567446,-0.77418447,9.468242233,0.822639296,crawl
09/07/2020, 21:38:12,-8.671588999999999,-3.0532417,3.7734813999999997,0.09646778,0.24300112,0.21491556,9.937700977,0.338443899,crawl
09/07/2020, 21:38:12,-8.666803,-3.0029924,3.8309089999999997,0.09646778,0.24300112,0.21491556,9.940186500000001,0.338443899,crawl
09/07/2020, 21:38:12,-8.666803,-3.0029924,3.8309089999999997,0.07937223,0.20758890000000002,0.17828223,9.940186500000001,0.284916925,crawl
09/07/2020, 21:38:12,-8.709874000000001,-2.9216363,3.9242291,0.07937223,0.20758890000000002,0.17828223,9.989866918999999,0.284916925,crawl
09/07/2020, 21:38:12,-8.709874000000001,-2.9216363,3.9242291,0.06349778,0.16851334,0.14164889,9.989866918999999,0.229113777,crawl
09/07/2020, 21:38:12,-8.717052,-2.8594232,3.9146578,0.06349778,0.16851334,0.14164889,9.974359645,0.229113777,crawl
09/07/2020, 21:38:12,-8.717052,-2.8594232,3.9146578,0.036633335,0.12455334,0.10501556,9.974359645,0.16698444,crawl
09/07/2020, 21:38:12,-8.693125,-2.8402805,3.912265,0.036633335,0.12455334,0.10501556,9.947031201,0.16698444,crawl
09/07/2020, 21:38:12,-8.693125,-2.8402805,3.912265,0.0,0.08059334,0.064718895,9.947031201,0.103362574,crawl
09/07/2020, 21:38:12,-8.681161,-2.7708886,3.9338005,0.0,0.08059334,0.064718895,9.92548057,0.103362574,crawl
09/07/2020, 21:38:12,-8.681161,-2.7708886,3.9338005,-0.035412222,0.037854444,0.035412222,9.92548057,0.06277746299999999,crawl
09/07/2020, 21:38:12,-8.695518,-2.7230322,3.9290147000000006,-0.035412222,0.037854444,0.035412222,9.922907146,0.06277746299999999,crawl
09/07/2020, 21:38:12,-8.695518,-2.7230322,3.9290147000000006,-0.07326667,-0.006105556,0.002442222,9.922907146,0.07356118,crawl
09/07/2020, 21:38:12,-8.688339,-2.658426,3.9649072,-0.07326667,-0.006105556,0.002442222,9.913372612,0.07356118,crawl
09/07/2020, 21:38:12,-8.688339,-2.658426,3.9649072,-0.10379445,-0.05250778,-0.035412222,9.913372612,0.121591036,crawl
09/07/2020, 21:38:12,-8.681161,-2.6249263,3.9816568,-0.10379445,-0.05250778,-0.035412222,9.904866686,0.121591036,crawl
09/07/2020, 21:38:12,-8.681161,-2.6249263,3.9816568,-0.10135223,-0.09280445,-0.07204556,9.904866686,0.155162825,crawl
09/07/2020, 21:38:12,-8.669196000000001,-2.6416762,3.9553358999999997,-0.10135223,-0.09280445,-0.07204556,9.888280757,0.155162825,crawl
09/07/2020, 21:38:12,-8.669196000000001,-2.6416762,3.9553358999999997,-0.07570889,-0.12699556,-0.11478445,9.888280757,0.187176865,crawl
09/07/2020, 21:38:12,-8.671588999999999,-2.696711,3.9553358999999997,-0.07570889,-0.12699556,-0.11478445,9.905220154,0.187176865,crawl
09/07/2020, 21:38:13,-8.4347,-3.182454,3.8380876000000006,-0.14409111,0.12455334,0.69481224,9.798116889,0.7204441890000001,crawl
09/07/2020, 21:38:13,-8.4347,-3.182454,3.8380876000000006,-0.15752333,0.12089001,0.7009178,9.798116889,0.728501015,crawl
09/07/2020, 21:38:13,-8.446664,-3.196811,3.8069808,-0.15752333,0.12089001,0.7009178,9.800960861,0.728501015,crawl
09/07/2020, 21:38:13,-8.446664,-3.196811,3.8069808,-0.15996556,0.123332225,0.7021389,9.800960861,0.7306153940000001,crawl
09/07/2020, 21:38:13,-8.463413000000001,-3.1848468999999997,3.7950168,-0.15996556,0.123332225,0.7021389,9.806873382000001,0.7306153940000001,crawl
09/07/2020, 21:38:13,-8.463413000000001,-3.1848468999999997,3.7950168,-0.16362889,0.12455334,0.70336,9.806873382000001,0.732805068,crawl
09/07/2020, 21:38:13,-8.499305999999999,-3.2015967,3.7758741000000002,-0.16362889,0.12455334,0.70336,9.835936406,0.732805068,crawl
09/07/2020, 21:38:13,-8.499305999999999,-3.2015967,3.7758741000000002,-0.16729222,0.11966889,0.7070234000000001,9.835936406,0.73633511,crawl
09/07/2020, 21:38:13,-8.568698,-3.2303107000000004,3.7567315000000003,-0.16729222,0.11966889,0.7070234000000001,9.898006007000001,0.73633511,crawl
09/07/2020, 21:38:13,-8.568698,-3.2303107000000004,3.7567315000000003,-0.1856089,0.11112112,0.6996967,9.898006007000001,0.73237563,crawl
