DATE,TIME,ax,ay,az,gx,gy,gz,lx,ly,lz,mx,my,mz,ma,mg,ml,mm
31/01/2020, 11:03:13,0.28500733,3.3817677,9.275911,0.037034076,0.05886546,-0.01416581,0.5124316,0.33145308,0.053936005,22.837662,-21.396606,-19.031097,9.877252316016103,0.07097418898894282,0.6126633715853298,36.62726074906454
31/01/2020, 11:03:13,0.26105714,3.391348,9.256751,0.037034076,0.05886546,-0.01416581,0.5124316,0.33145308,0.053936005,22.837662,-21.396606,-19.031097,9.861887826543452,0.07097418898894282,0.6126633715853298,36.62726074906454
31/01/2020, 11:03:13,0.32093263,3.408113,9.283096,0.037034076,0.05886546,-0.01416581,0.5124316,0.33145308,0.053936005,22.837662,-21.396606,-19.031097,9.894145195815382,0.07097418898894282,0.6126633715853298,36.62726074906454
31/01/2020, 11:03:13,0.32093263,3.408113,9.283096,0.037034076,0.05886546,-0.01416581,0.5124316,0.33145308,0.053936005,22.799408,-20.962875,-18.66475,9.894145195815382,0.07097418898894282,0.6126633715853298,36.161139467171495
31/01/2020, 11:03:13,0.32093263,3.408113,9.283096,0.037034076,0.05886546,-0.01416581,0.26463157,0.37811637,-0.058387756,22.799408,-20.962875,-18.66475,9.894145195815382,0.07097418898894282,0.4651999422824823,36.161139467171495
31/01/2020, 11:03:13,0.28740236,3.415298,9.271121,0.037034076,0.05886546,-0.01416581,0.26463157,0.37811637,-0.058387756,22.799408,-20.962875,-18.66475,9.884358628971489,0.07097418898894282,0.4651999422824823,36.161139467171495
31/01/2020, 11:03:13,0.1939966,3.4440382,9.153765,0.037034076,0.05886546,-0.01416581,0.26463157,0.37811637,-0.058387756,22.799408,-20.962875,-18.66475,9.782149156048904,0.07097418898894282,0.4651999422824823,36.161139467171495
31/01/2020, 11:03:13,0.1939966,3.4440382,9.153765,0.037034076,0.05886546,-0.01416581,0.26463157,0.37811637,-0.058387756,22.509796,-21.065521,-19.260864,9.782149156048904,0.07097418898894282,0.4651999422824823,36.35145113280995
31/01/2020, 11:03:13,0.1939966,3.4440382,9.153765,0.037034076,0.05886546,-0.01416581,0.3084978,0.38919926,-0.046299934,22.509796,-21.065521,-19.260864,9.782149156048904,0.07097418898894282,0.4987891636576865,36.35145113280995
31/01/2020, 11:03:13,0.33290774,3.5015187,9.139395,0.037034076,0.05886546,-0.01416581,0.3084978,0.38919926,-0.046299934,22.509796,-21.065521,-19.260864,9.792854411936617,0.07097418898894282,0.4987891636576865,36.35145113280995
31/01/2020, 11:03:13,0.5987549,3.5134938,9.2328005,0.037034076,0.05886546,-0.01416581,0.3084978,0.38919926,-0.046299934,22.509796,-21.065521,-19.260864,9.89685559649219,0.07097418898894282,0.4987891636576865,36.35145113280995
31/01/2020, 11:03:13,0.5987549,3.5134938,9.2328005,0.037034076,0.05886546,-0.01416581,0.3084978,0.38919926,-0.046299934,22.994644,-21.077438,-19.238007,9.89685559649219,0.07097418898894282,0.4987891636576865,36.648505637886565
31/01/2020, 11:03:13,0.5987549,3.5134938,9.2328005,-0.060704324,0.01854837,0.04203377,0.3084978,0.38919926,-0.046299934,22.994644,-21.077438,-19.238007,9.89685559649219,0.07613077406814894,0.4987891636576865,36.648505637886565
31/01/2020, 11:03:13,0.5987549,3.5134938,9.2328005,-0.060704324,0.01854837,0.04203377,0.18563549,0.41985774,-0.1738615,22.994644,-21.077438,-19.238007,9.89685559649219,0.07613077406814894,0.49088581215646115,36.648505637886565
31/01/2020, 11:03:13,0.66342044,3.3769777,9.319021,-0.060704324,0.01854837,0.04203377,0.18563549,0.41985774,-0.1738615,22.994644,-21.077438,-19.238007,9.934196572225266,0.07613077406814894,0.49088581215646115,36.648505637886565
31/01/2020, 11:03:13,0.62989014,3.2811768,9.558523,-0.060704324,0.01854837,0.04203377,0.18563549,0.41985774,-0.1738615,22.994644,-21.077438,-19.238007,10.125623347160346,0.07613077406814894,0.49088581215646115,36.648505637886565
31/01/2020, 11:03:13,0.62989014,3.2811768,9.558523,-0.060704324,0.01854837,0.04203377,0.18563549,0.41985774,-0.1738615,22.97844,-20.860092,-18.881607,10.125623347160346,0.07613077406814894,0.49088581215646115,36.327224008282045
31/01/2020, 11:03:13,0.5364844,3.2524366,9.611214,-0.060704324,0.01854837,0.04203377,0.18563549,0.41985774,-0.1738615,22.97844,-20.860092,-18.881607,10.160786785368723,0.07613077406814894,0.49088581215646115,36.327224008282045
31/01/2020, 11:03:13,0.46702883,3.290757,9.560919,-0.060704324,0.01854837,0.04203377,0.18563549,0.41985774,-0.1738615,22.97844,-20.860092,-18.881607,10.122171981413233,0.07613077406814894,0.49088581215646115,36.327224008282045
31/01/2020, 11:03:13,0.46702883,3.290757,9.560919,-0.060704324,0.01854837,0.04203377,0.58248514,0.49634862,-0.09715176,22.97844,-20.860092,-18.881607,10.122171981413233,0.07613077406814894,0.7714203480446454,36.327224008282045
31/01/2020, 11:03:14,1.1424243,1.705254,10.538086,-1.0002147,-0.9820485,0.34990972,-0.24955666,1.2611294,-0.21136093,21.385025,-21.690521,-20.962341,10.73612032691003,1.4447441057219192,1.3028427692783153,36.97590783342378
31/01/2020, 11:03:14,1.2334352,2.1507277,10.078242,-1.0002147,-0.9820485,0.34990972,-0.24955666,1.2611294,-0.21136093,21.385025,-21.690521,-20.962341,10.378726319998119,1.4447441057219192,1.3028427692783153,36.97590783342378
31/01/2020, 11:03:14,1.2334352,2.1507277,10.078242,-1.0002147,-0.9820485,0.34990972,-0.11844081,0.646652,0.4767208,21.385025,-21.690521,-20.962341,10.378726319998119,1.4447441057219192,0.8120651099592051,36.97590783342378
31/01/2020, 11:03:14,1.2334352,2.1507277,10.078242,-1.0002147,-0.9820485,0.34990972,-0.11844081,0.646652,0.4767208,20.85373,-21.275787,-21.927063,10.378726319998119,1.4447441057219192,0.8120651099592051,36.990988664199214
31/01/2020, 11:03:14,1.468147,2.7542725,9.407638,-1.0002147,-0.9820485,0.34990972,-0.11844081,0.646652,0.4767208,20.85373,-21.275787,-21.927063,9.911867516192034,1.4447441057219192,0.8120651099592051,36.990988664199214
31/01/2020, 11:03:14,1.7675245,2.7542725,8.801697,-1.0002147,-0.9820485,0.34990972,-0.11844081,0.646652,0.4767208,20.85373,-21.275787,-21.927063,9.390422021383225,1.4447441057219192,0.8120651099592051,36.990988664199214
31/01/2020, 11:03:14,1.7675245,2.7542725,8.801697,-1.0002147,-0.9820485,0.34990972,-0.016167998,-0.10953808,0.95937157,20.85373,-21.275787,-21.927063,9.390422021383225,1.4447441057219192,0.9657400260423907,36.990988664199214
31/01/2020, 11:03:14,1.7675245,2.7542725,8.801697,-1.0002147,-0.9820485,0.34990972,-0.016167998,-0.10953808,0.95937157,20.16565,-20.996185,-21.675278,9.390422021383225,1.4447441057219192,0.9657400260423907,36.29477754941567
31/01/2020, 11:03:14,1.7675245,2.7542725,8.801697,-1.0002147,-0.9820485,0.34990972,-0.31218803,-0.27665722,1.0450811,20.16565,-20.996185,-21.675278,9.390422021383225,1.4447441057219192,1.1252533809493048,36.29477754941567
31/01/2020, 11:03:14,2.1603076,2.2944288,8.734636,-1.0002147,-0.9820485,0.34990972,-0.31218803,-0.27665722,1.0450811,20.16565,-20.996185,-21.675278,9.285752751965592,1.4447441057219192,1.1252533809493048,36.29477754941567
31/01/2020, 11:03:14,2.6704469,1.9711012,9.048384,-1.0002147,-0.9820485,0.34990972,-0.31218803,-0.27665722,1.0450811,20.16565,-20.996185,-21.675278,9.637934120723918,1.4447441057219192,1.1252533809493048,36.29477754941567
31/01/2020, 11:03:14,2.6704469,1.9711012,9.048384,-1.0002147,-0.9820485,0.34990972,-0.31218803,-0.27665722,1.0450811,19.32724,-20.978516,-23.286346,9.637934120723918,1.4447441057219192,1.1252533809493048,36.82246941454077
31/01/2020, 11:03:14,2.6704469,1.9711012,9.048384,-1.0674099,-1.2569377,0.37923124,-0.31218803,-0.27665722,1.0450811,19.32724,-20.978516,-23.286346,9.637934120723918,1.6920616600820926,1.1252533809493048,36.82246941454077
31/01/2020, 11:03:14,2.6704469,1.9711012,9.048384,-1.0674099,-1.2569377,0.37923124,-0.22331142,0.93455267,-0.07808781,19.32724,-20.978516,-23.286346,9.637934120723918,1.6920616600820926,0.9640302847291758,36.82246941454077
31/01/2020, 11:03:14,3.1278956,1.8250049,9.7142,-1.0674099,-1.2569377,0.37923124,-0.22331142,0.93455267,-0.07808781,19.32724,-20.978516,-23.286346,10.367258841365087,1.6920616600820926,0.9640302847291758,36.82246941454077
31/01/2020, 11:03:14,3.396138,1.4801221,10.36325,-1.0674099,-1.2569377,0.37923124,-0.22331142,0.93455267,-0.07808781,19.32724,-20.978516,-23.286346,11.005519541152033,1.6920616600820926,0.9640302847291758,36.82246941454077
31/01/2020, 11:03:14,3.396138,1.4801221,10.36325,-1.0674099,-1.2569377,0.37923124,-0.22331142,0.93455267,-0.07808781,19.064346,-20.425415,-24.057556,11.005519541152033,1.6920616600820926,0.9640302847291758,36.87021681386347
31/01/2020, 11:03:14,3.396138,1.4801221,10.36325,-1.0674099,-1.2569377,0.37923124,0.21505487,0.6719333,-0.7378473,19.064346,-20.425415,-24.057556,11.005519541152033,1.6920616600820926,1.0208631775974881,36.87021681386347
31/01/2020, 11:03:14,3.1446607,0.852627,10.665023,-1.0674099,-1.2569377,0.37923124,0.21505487,0.6719333,-0.7378473,19.064346,-20.425415,-24.057556,11.151617647087877,1.6920616600820926,1.0208631775974881,36.87021681386347
31/01/2020, 11:03:14,2.8141482,0.55803955,10.92608,-1.0674099,-1.2569377,0.37923124,0.21505487,0.6719333,-0.7378473,19.064346,-20.425415,-24.057556,11.296462139165099,1.6920616600820926,1.0208631775974881,36.87021681386347
31/01/2020, 11:03:15,8.672366,-4.0882983,4.998406,2.006463,-0.31987086,-0.07158712,-1.1292715,0.688256,0.39487314,0.6194458,32.591103,-21.707138,10.812408591063548,2.033060760836927,1.380172196489393,39.16329307670944
31/01/2020, 11:03:15,8.672366,-4.0882983,4.998406,2.006463,-0.31987086,-0.07158712,-1.1292715,0.688256,0.39487314,0.99479675,31.776054,-23.33966,10.812408591063548,2.033060760836927,1.380172196489393,39.4391558186778
31/01/2020, 11:03:15,8.672366,-4.0882983,4.998406,2.006463,-0.31987086,-0.07158712,-0.10349512,-0.5705435,-1.24824,0.99479675,31.776054,-23.33966,10.812408591063548,2.033060760836927,1.3763481535224775,39.4391558186778
31/01/2020, 11:03:15,8.255632,-3.2428565,5.582791,2.006463,-0.31987086,-0.07158712,-0.10349512,-0.5705435,-1.24824,0.99479675,31.776054,-23.33966,10.48041689633795,2.033060760836927,1.3763481535224775,39.4391558186778
31/01/2020, 11:03:15,7.194639,-2.0812721,6.320457,2.006463,-0.31987086,-0.07158712,-0.10349512,-0.5705435,-1.24824,0.99479675,31.776054,-23.33966,9.800137928614177,2.033060760836927,1.3763481535224775,39.4391558186778
31/01/2020, 11:03:15,7.194639,-2.0812721,6.320457,2.006463,-0.31987086,-0.07158712,-0.10349512,-0.5705435,-1.24824,0.54649353,30.758179,-25.446762,9.800137928614177,2.033060760836927,1.3763481535224775,39.92370114858097
31/01/2020, 11:03:15,7.194639,-2.0812721,6.320457,2.006463,-0.31987086,-0.07158712,1.265748,-1.1983509,-0.74187565,0.54649353,30.758179,-25.446762,9.800137928614177,2.033060760836927,1.8943448558444724,39.92370114858097
31/01/2020, 11:03:15,6.047425,-1.5136524,6.217471,2.006463,-0.31987086,-0.07158712,1.265748,-1.1983509,-0.74187565,0.54649353,30.758179,-25.446762,8.804512338167484,2.033060760836927,1.8943448558444724,39.92370114858097
31/01/2020, 11:03:15,5.6714063,-1.5352076,5.1924024,2.006463,-0.31987086,-0.07158712,1.265748,-1.1983509,-0.74187565,0.54649353,30.758179,-25.446762,7.841093918013386,2.033060760836927,1.8943448558444724,39.92370114858097
31/01/2020, 11:03:15,5.6714063,-1.5352076,5.1924024,2.006463,-0.31987086,-0.07158712,1.265748,-1.1983509,-0.74187565,0.35488892,29.587372,-25.405548,7.841093918013386,2.033060760836927,1.8943448558444724,38.9997486115737
31/01/2020, 11:03:15,5.975574,-2.1555176,4.6918435,2.006463,-0.31987086,-0.07158712,1.265748,-1.1983509,-0.74187565,0.35488892,29.587372,-25.405548,7.897286646462542,2.033060760836927,1.8943448558444724,38.9997486115737
31/01/2020, 11:03:15,6.5360084,-3.0129347,4.9313455,2.006463,-0.31987086,-0.07158712,1.265748,-1.1983509,-0.74187565,0.35488892,29.587372,-25.405548,8.724411082928599,2.033060760836927,1.8943448558444724,38.9997486115737
31/01/2020, 11:03:15,6.5360084,-3.0129347,4.9313455,2.006463,-0.31987086,-0.07158712,-0.22087622,0.5262716,0.45861006,0.35488892,29.587372,-25.405548,8.724411082928599,2.033060760836927,0.7321688780484217,38.9997486115737
31/01/2020, 11:03:15,6.5360084,-3.0129347,4.9313455,2.006463,-0.31987086,-0.07158712,-0.22087622,0.5262716,0.45861006,-0.049224854,28.991646,-26.460281,8.724411082928599,2.033060760836927,0.7321688780484217,39.25129858133481
31/01/2020, 11:03:15,6.5360084,-3.0129347,4.9313455,1.9148331,-0.1671546,0.12266795,-0.22087622,0.5262716,0.45861006,-0.049224854,28.991646,-26.460281,8.724411082928599,1.926025380687429,0.7321688780484217,39.25129858133481
31/01/2020, 11:03:15,6.950347,-3.7577858,5.688172,1.9148331,-0.1671546,0.12266795,-0.22087622,0.5262716,0.45861006,-0.049224854,28.991646,-26.460281,9.735685693679113,1.926025380687429,0.7321688780484217,39.25129858133481
31/01/2020, 11:03:15,7.1084185,-3.7122805,6.631809,1.9148331,-0.1671546,0.12266795,-0.22087622,0.5262716,0.45861006,-0.049224854,28.991646,-26.460281,10.40632179935901,1.926025380687429,0.7321688780484217,39.25129858133481
31/01/2020, 11:03:15,7.1084185,-3.7122805,6.631809,1.9148331,-0.1671546,0.12266795,-1.7620602,0.86551034,-0.73283195,-0.049224854,28.991646,-26.460281,10.40632179935901,1.926025380687429,2.0954729435519974,39.25129858133481
31/01/2020, 11:03:15,7.1084185,-3.7122805,6.631809,1.9148331,-0.1671546,0.12266795,-1.7620602,0.86551034,-0.73283195,-0.01574707,26.910133,-28.380478,10.40632179935901,1.926025380687429,2.0954729435519974,39.11019114825037
31/01/2020, 11:03:15,7.1084185,-3.7122805,6.631809,1.9148331,-0.1671546,0.12266795,-0.91605616,-0.8026748,-1.0452085,-0.01574707,26.910133,-28.380478,10.40632179935901,1.926025380687429,1.6049630465496003,39.11019114825037
31/01/2020, 11:03:16,1.1999048,4.981641,9.390872,-0.07414335,-0.013216613,0.06524664,-0.7075367,0.28027344,0.45546818,26.618805,-25.138046,-10.058716,10.697896694963047,0.09964456567185244,0.88691185520469,37.969196856743565
31/01/2020, 11:03:16,1.101709,5.1684523,9.17053,-0.07414335,-0.013216613,0.06524664,-0.7075367,0.28027344,0.45546818,26.618805,-25.138046,-10.058716,10.584199916293153,0.09964456567185244,0.88691185520469,37.969196856743565
31/01/2020, 11:03:16,0.8143067,5.513335,8.859178,-0.07414335,-0.013216613,0.06524664,-0.7075367,0.28027344,0.45546818,26.618805,-25.138046,-10.058716,10.466374169690459,0.09964456567185244,0.88691185520469,37.969196856743565
31/01/2020, 11:03:16,0.8143067,5.513335,8.859178,-0.07414335,-0.013216613,0.06524664,-0.18097574,0.26136732,0.4682932,26.618805,-25.138046,-10.058716,10.466374169690459,0.09964456567185244,0.5660067181788362,37.969196856743565
31/01/2020, 11:03:16,0.8143067,5.513335,8.859178,-0.07414335,-0.013216613,0.06524664,-0.18097574,0.26136732,0.4682932,26.245941,-25.2202,-9.619553,10.466374169690459,0.09964456567185244,0.5660067181788362,37.64895333274312
31/01/2020, 11:03:16,0.57719976,5.7719975,8.691526,-0.07414335,-0.013216613,0.06524664,-0.18097574,0.26136732,0.4682932,26.245941,-25.2202,-9.619553,10.449485419398622,0.09964456567185244,0.5660067181788362,37.64895333274312
31/01/2020, 11:03:16,0.4263135,6.05461,8.528665,-0.07414335,-0.013216613,0.06524664,-0.18097574,0.26136732,0.4682932,26.245941,-25.2202,-9.619553,10.467958845735923,0.09964456567185244,0.5660067181788362,37.64895333274312
31/01/2020, 11:03:16,0.4263135,6.05461,8.528665,-0.07414335,-0.013216613,0.06524664,0.5081409,-0.021306038,1.0029011,26.245941,-25.2202,-9.619553,10.467958845735923,0.09964456567185244,1.1244873117285732,37.64895333274312
31/01/2020, 11:03:16,0.4263135,6.05461,8.528665,-0.07414335,-0.013216613,0.06524664,0.5081409,-0.021306038,1.0029011,26.077957,-25.41394,-9.287064,10.467958845735923,0.09964456567185244,1.1244873117285732,37.578953787182066
31/01/2020, 11:03:16,0.4263135,6.05461,8.528665,-0.07414335,-0.013216613,0.06524664,0.6362814,0.18694878,0.73682785,26.077957,-25.41394,-9.287064,10.467958845735923,0.09964456567185244,0.9913218998937375,37.578953787182066
31/01/2020, 11:03:16,0.49337405,6.0450296,8.411309,-0.07414335,-0.013216613,0.06524664,0.6362814,0.18694878,0.73682785,26.077957,-25.41394,-9.287064,10.369952963851206,0.09964456567185244,0.9913218998937375,37.578953787182066
31/01/2020, 11:03:16,0.57959473,5.702542,8.186177,-0.07414335,-0.013216613,0.06524664,0.6362814,0.18694878,0.73682785,26.077957,-25.41394,-9.287064,9.993418403320456,0.09964456567185244,0.9913218998937375,37.578953787182066
31/01/2020, 11:03:16,0.57959473,5.702542,8.186177,-0.07414335,-0.013216613,0.06524664,0.6362814,0.18694878,0.73682785,25.749908,-25.315613,-10.799316,9.993418403320456,0.09964456567185244,0.9913218998937375,37.690360451558234
31/01/2020, 11:03:16,0.57959473,5.702542,8.186177,-0.07414335,-0.013216613,0.06524664,0.103251755,0.80809784,0.24801159,25.749908,-25.315613,-10.799316,9.993418403320456,0.09964456567185244,0.8515825216817624,37.690360451558234
31/01/2020, 11:03:16,0.76880133,5.223538,8.104747,-0.07414335,-0.013216613,0.06524664,0.103251755,0.80809784,0.24801159,25.749908,-25.315613,-10.799316,9.672813701380097,0.09964456567185244,0.8515825216817624,37.690360451558234
31/01/2020, 11:03:16,1.0202783,4.976851,8.167017,-0.07414335,-0.013216613,0.06524664,0.103251755,0.80809784,0.24801159,25.749908,-25.315613,-10.799316,9.61822125046315,0.09964456567185244,0.8515825216817624,37.690360451558234
31/01/2020, 11:03:16,1.0202783,4.976851,8.167017,-0.07414335,-0.013216613,0.06524664,0.103251755,0.80809784,0.24801159,25.854675,-25.426468,-10.915665,9.61822125046315,0.09964456567185244,0.8515825216817624,37.86979323149623
31/01/2020, 11:03:16,1.0202783,4.976851,8.167017,-0.14256024,-0.09873772,0.09090297,0.103251755,0.80809784,0.24801159,25.854675,-25.426468,-10.915665,9.61822125046315,0.19579558107417516,0.8515825216817624,37.86979323149623
31/01/2020, 11:03:16,1.0202783,4.976851,8.167017,-0.14256024,-0.09873772,0.09090297,-0.006354779,1.1130509,-0.049331665,25.854675,-25.426468,-10.915665,9.61822125046315,0.19579558107417516,1.114161741490451,37.86979323149623
31/01/2020, 11:03:16,1.101709,4.9289503,8.277188,-0.14256024,-0.09873772,0.09090297,-0.006354779,1.1130509,-0.049331665,25.854675,-25.426468,-10.915665,9.696399335137063,0.19579558107417516,1.114161741490451,37.86979323149623
31/01/2020, 11:03:17,8.210127,0.4382886,6.5455885,-0.3123807,-0.07919004,-0.29638544,-0.58771944,1.361192,0.049813747,1.1666412,-5.4388733,-37.655197,10.509186883586066,0.43783226480257453,1.4834888534455806,38.06384460833817
31/01/2020, 11:03:17,8.210127,0.4382886,6.5455885,-0.3123807,-0.07919004,-0.29638544,-0.9008856,0.5590544,-0.561007,1.1666412,-5.4388733,-37.655197,10.509186883586066,0.43783226480257453,1.1995272007598892,38.06384460833817
31/01/2020, 11:03:17,8.210127,0.4382886,6.5455885,-0.3123807,-0.07919004,-0.29638544,-0.9008856,0.5590544,-0.561007,1.4458008,-5.339813,-37.753296,10.509186883586066,0.43783226480257453,1.1995272007598892,38.1564581224619
31/01/2020, 11:03:17,8.210127,0.4382886,6.5455885,-0.6764563,0.10284774,-0.10457383,-0.9008856,0.5590544,-0.561007,1.4458008,-5.339813,-37.753296,10.509186883586066,0.6921751458258597,1.1995272007598892,38.1564581224619
31/01/2020, 11:03:17,8.210127,0.4382886,6.5455885,-0.6764563,0.10284774,-0.10457383,0.48720646,0.048567295,-0.04167795,1.4458008,-5.339813,-37.753296,10.509186883586066,0.6921751458258597,0.4913918676104869,38.1564581224619
31/01/2020, 11:03:17,7.7646537,0.6825806,6.7300053,-0.6764563,0.10284774,-0.10457383,0.48720646,0.048567295,-0.04167795,1.4458008,-5.339813,-37.753296,10.297996597972459,0.6921751458258597,0.4913918676104869,38.1564581224619
31/01/2020, 11:03:17,7.431746,1.0753639,6.782696,-0.6764563,0.10284774,-0.10457383,0.48720646,0.048567295,-0.04167795,1.4458008,-5.339813,-37.753296,10.118903995604871,0.6921751458258597,0.4913918676104869,38.1564581224619
31/01/2020, 11:03:17,7.431746,1.0753639,6.782696,-0.6764563,0.10284774,-0.10457383,0.48720646,0.048567295,-0.04167795,1.530716,-5.2335815,-37.741226,10.118903995604871,0.6921751458258597,0.4913918676104869,38.133104015574496
31/01/2020, 11:03:17,7.431746,1.0753639,6.782696,-0.6764563,0.10284774,-0.10457383,0.5913849,-0.328561,0.41979647,1.530716,-5.2335815,-37.741226,10.118903995604871,0.6921751458258597,0.7961893587066547,38.133104015574496
31/01/2020, 11:03:17,7.201824,1.3555812,6.830596,-0.6764563,0.10284774,-0.10457383,0.5913849,-0.328561,0.41979647,1.530716,-5.2335815,-37.741226,10.01802940896356,0.6921751458258597,0.7961893587066547,38.133104015574496
31/01/2020, 11:03:17,7.1778736,1.4274317,6.7779055,-0.6764563,0.10284774,-0.10457383,0.5913849,-0.328561,0.41979647,1.530716,-5.2335815,-37.741226,9.974940266930808,0.6921751458258597,0.7961893587066547,38.133104015574496
31/01/2020, 11:03:17,7.1778736,1.4274317,6.7779055,-0.6764563,0.10284774,-0.10457383,0.5913849,-0.328561,0.41979647,1.5242462,-5.111557,-37.598312,9.974940266930808,0.6921751458258597,0.7961893587066547,37.974786835859355
31/01/2020, 11:03:17,7.3958206,1.0418335,6.5791187,-0.6764563,0.10284774,-0.10457383,0.5913849,-0.328561,0.41979647,1.5242462,-5.111557,-37.598312,9.953310149774842,0.6921751458258597,0.7961893587066547,37.974786835859355
31/01/2020, 11:03:17,7.1491337,0.855022,6.686895,-0.6764563,0.10284774,-0.10457383,0.5913849,-0.328561,0.41979647,1.5242462,-5.111557,-37.598312,9.826277950903007,0.6921751458258597,0.7961893587066547,37.974786835859355
31/01/2020, 11:03:17,7.1491337,0.855022,6.686895,-0.6764563,0.10284774,-0.10457383,-0.16301441,0.30499476,0.6280074,1.5242462,-5.111557,-37.598312,9.826277950903007,0.6921751458258597,0.7169301310319541,37.974786835859355
31/01/2020, 11:03:17,7.1491337,0.855022,6.686895,-0.6764563,0.10284774,-0.10457383,-0.16301441,0.30499476,0.6280074,1.4420929,-4.2369843,-37.57129,9.826277950903007,0.6921751458258597,0.7169301310319541,37.83693208092829
31/01/2020, 11:03:17,7.302415,0.98435307,6.734795,-0.6764563,0.10284774,-0.10457383,-0.16301441,0.30499476,0.6280074,1.4420929,-4.2369843,-37.57129,9.982568767361165,0.6921751458258597,0.7169301310319541,37.83693208092829
31/01/2020, 11:03:17,7.654483,1.3196558,6.7970657,-0.6764563,0.10284774,-0.10457383,-0.16301441,0.30499476,0.6280074,1.4420929,-4.2369843,-37.57129,10.32146799355288,0.6921751458258597,0.7169301310319541,37.83693208092829
31/01/2020, 11:03:17,7.654483,1.3196558,6.7970657,-0.6764563,0.10284774,-0.10457383,-0.3930149,0.58933306,0.6028428,1.4420929,-4.2369843,-37.57129,10.32146799355288,0.6921751458258597,0.9301578474702223,37.83693208092829
31/01/2020, 11:03:17,7.654483,1.3196558,6.7970657,-0.6764563,0.10284774,-0.10457383,-0.3930149,0.58933306,0.6028428,2.3375854,-3.8458557,-38.21411,10.32146799355288,0.6921751458258597,0.9301578474702223,38.478217428762264
31/01/2020, 11:03:18,7.7143583,1.3004956,6.0330544,-0.2635115,-0.10728983,-0.3880152,0.33601522,-1.3766974,-0.086946964,-0.4494629,0.41612244,-37.205856,9.879289353057933,0.4811498998936564,1.4197752620936246,37.21089785960516
31/01/2020, 11:03:18,7.7862086,1.6501685,6.1480155,-0.2635115,-0.10728983,-0.3880152,0.33601522,-1.3766974,-0.086946964,-0.4494629,0.41612244,-37.205856,10.057146494173011,0.4811498998936564,1.4197752620936246,37.21089785960516
31/01/2020, 11:03:18,7.7862086,1.6501685,6.1480155,-0.2635115,-0.10728983,-0.3880152,0.30714512,-1.1283836,-0.13551378,-0.4494629,0.41612244,-37.205856,10.057146494173011,0.4811498998936564,1.1772645158420885,37.21089785960516
31/01/2020, 11:03:18,7.7862086,1.6501685,6.1480155,-0.2635115,-0.10728983,-0.3880152,0.30714512,-1.1283836,-0.13551378,-0.7556915,0.5316467,-37.445496,10.057146494173011,0.4811498998936564,1.1772645158420885,37.4568933451387
31/01/2020, 11:03:18,7.7862086,1.6501685,6.1480155,0.44631365,-0.010773153,-0.33792427,0.30714512,-1.1283836,-0.13551378,-0.7556915,0.5316467,-37.445496,10.057146494173011,0.5599149470838668,1.1772645158420885,37.4568933451387
31/01/2020, 11:03:18,7.7862086,1.6501685,6.1480155,0.44631365,-0.010773153,-0.33792427,-0.033357143,-0.3727485,0.13965654,-0.7556915,0.5316467,-37.445496,10.057146494173011,0.5599149470838668,0.3994472294469205,37.4568933451387
31/01/2020, 11:03:18,7.805369,1.8776954,6.104905,0.44631365,-0.010773153,-0.33792427,-0.033357143,-0.3727485,0.13965654,-0.7556915,0.5316467,-37.445496,10.085603128596789,0.5599149470838668,0.3994472294469205,37.4568933451387
31/01/2020, 11:03:18,7.774234,1.7172291,5.8845634,0.44631365,-0.010773153,-0.33792427,-0.033357143,-0.3727485,0.13965654,-0.7556915,0.5316467,-37.445496,9.900286575951153,0.5599149470838668,0.3994472294469205,37.4568933451387
31/01/2020, 11:03:18,7.774234,1.7172291,5.8845634,0.44631365,-0.010773153,-0.33792427,-0.033357143,-0.3727485,0.13965654,-0.5904999,1.0690765,-37.1821,9.900286575951153,0.5599149470838668,0.3994472294469205,37.2021512191835
31/01/2020, 11:03:18,7.774234,1.7172291,5.8845634,0.44631365,-0.010773153,-0.33792427,-0.12346029,0.15791821,0.25251675,-0.5904999,1.0690765,-37.1821,9.900286575951153,0.5599149470838668,0.32240551133747763,37.2021512191835
31/01/2020, 11:03:18,7.6161623,1.6334034,5.7911572,0.44631365,-0.010773153,-0.33792427,-0.12346029,0.15791821,0.25251675,-0.5904999,1.0690765,-37.1821,9.70625762893347,0.5599149470838668,0.32240551133747763,37.2021512191835
31/01/2020, 11:03:18,7.676038,1.4418018,5.9635987,0.44631365,-0.010773153,-0.33792427,-0.12346029,0.15791821,0.25251675,-0.5904999,1.0690765,-37.1821,9.8267419987954,0.5599149470838668,0.32240551133747763,37.2021512191835
31/01/2020, 11:03:18,7.676038,1.4418018,5.9635987,0.44631365,-0.010773153,-0.33792427,-0.12346029,0.15791821,0.25251675,-0.68499756,1.4109039,-37.389297,9.8267419987954,0.5599149470838668,0.32240551133747763,37.42217842409711
31/01/2020, 11:03:18,7.676038,1.4418018,5.9635987,0.44631365,-0.010773153,-0.33792427,-0.024159431,0.6417806,0.33215237,-0.68499756,1.4109039,-37.389297,9.8267419987954,0.5599149470838668,0.723043034952049,37.42217842409711
31/01/2020, 11:03:18,7.7454934,1.1112891,6.2031007,0.44631365,-0.010773153,-0.33792427,-0.024159431,0.6417806,0.33215237,-0.68499756,1.4109039,-37.389297,9.985293677134221,0.5599149470838668,0.723043034952049,37.42217842409711
31/01/2020, 11:03:18,7.8029737,0.69695073,6.239026,0.44631365,-0.010773153,-0.33792427,-0.024159431,0.6417806,0.33215237,-0.68499756,1.4109039,-37.389297,10.014868242924567,0.5599149470838668,0.723043034952049,37.42217842409711
31/01/2020, 11:03:18,7.8029737,0.69695073,6.239026,0.44631365,-0.010773153,-0.33792427,-0.024159431,0.6417806,0.33215237,-0.46951294,1.4052887,-37.363358,10.014868242924567,0.5599149470838668,0.723043034952049,37.392723432199034
31/01/2020, 11:03:18,7.8029737,0.69695073,6.239026,0.44631365,-0.010773153,-0.33792427,-0.23252296,0.4154929,0.040996075,-0.46951294,1.4052887,-37.363358,10.014868242924567,0.5599149470838668,0.47789324191842875,37.392723432199034
31/01/2020, 11:03:18,7.661668,0.6586304,6.0402393,0.44631365,-0.010773153,-0.33792427,-0.23252296,0.4154929,0.040996075,-0.46951294,1.4052887,-37.363358,9.778519265263826,0.5599149470838668,0.47789324191842875,37.392723432199034
31/01/2020, 11:03:18,7.7383084,0.8214917,5.740862,0.44631365,-0.010773153,-0.33792427,-0.23252296,0.4154929,0.040996075,-0.46951294,1.4052887,-37.363358,9.670251354940312,0.5599149470838668,0.47789324191842875,37.392723432199034
31/01/2020, 11:03:19,7.209009,2.0549269,4.253555,0.09323366,-0.13661134,-0.3880152,0.7274437,-0.35659575,-1.0252671,-3.331482,-2.9018097,-36.077286,8.61889008437292,0.42179494768332904,1.3067163187265731,36.34679930406115
31/01/2020, 11:03:19,6.7635355,1.9447559,4.639153,0.09323366,-0.13661134,-0.3880152,0.7274437,-0.35659575,-1.0252671,-3.331482,-2.9018097,-36.077286,8.429070447103737,0.42179494768332904,1.3067163187265731,36.34679930406115
31/01/2020, 11:03:19,6.583909,2.318379,4.9169755,0.09323366,-0.13661134,-0.3880152,0.7274437,-0.35659575,-1.0252671,-3.331482,-2.9018097,-36.077286,8.538113788704397,0.42179494768332904,1.3067163187265731,36.34679930406115
31/01/2020, 11:03:19,6.583909,2.318379,4.9169755,0.09323366,-0.13661134,-0.3880152,0.7274437,-0.35659575,-1.0252671,-3.6797485,-3.643402,-36.376617,8.538113788704397,0.42179494768332904,1.3067163187265731,36.74334257943013
31/01/2020, 11:03:19,6.574329,2.6201515,4.9241605,0.09323366,-0.13661134,-0.3880152,0.7274437,-0.35659575,-1.0252671,-3.6797485,-3.643402,-36.376617,8.621737116240654,0.42179494768332904,1.3067163187265731,36.74334257943013
31/01/2020, 11:03:19,6.720425,2.8261232,4.976851,0.09323366,-0.13661134,-0.3880152,0.7274437,-0.35659575,-1.0252671,-3.6797485,-3.643402,-36.376617,8.827238085009222,0.42179494768332904,1.3067163187265731,36.74334257943013
31/01/2020, 11:03:19,6.720425,2.8261232,4.976851,0.09323366,-0.13661134,-0.3880152,-0.73923683,-0.95897436,-0.63304377,-3.6797485,-3.643402,-36.376617,8.827238085009222,0.42179494768332904,1.3663262161172993,36.74334257943013
31/01/2020, 11:03:19,6.720425,2.8261232,4.976851,0.09323366,-0.13661134,-0.3880152,-0.73923683,-0.95897436,-0.63304377,-3.581726,-3.756775,-35.800125,8.827238085009222,0.42179494768332904,1.3663262161172993,36.174453390390134
31/01/2020, 11:03:19,6.720425,2.8261232,4.976851,0.055360027,-0.18303709,-0.21086435,-0.73923683,-0.95897436,-0.63304377,-3.581726,-3.756775,-35.800125,8.827238085009222,0.2846595898116345,1.3663262161172993,36.174453390390134
31/01/2020, 11:03:19,6.998247,2.8452833,5.130132,0.055360027,-0.18303709,-0.21086435,-0.73923683,-0.95897436,-0.63304377,-3.581726,-3.756775,-35.800125,9.13177728502165,0.2846595898116345,1.3663262161172993,36.174453390390134
31/01/2020, 11:03:19,7.067703,2.7662477,5.245093,0.055360027,-0.18303709,-0.21086435,-0.73923683,-0.95897436,-0.63304377,-3.581726,-3.756775,-35.800125,9.22580881340034,0.2846595898116345,1.3663262161172993,36.174453390390134
31/01/2020, 11:03:19,7.067703,2.7662477,5.245093,0.055360027,-0.18303709,-0.21086435,-1.3447833,-0.7507577,0.03310156,-3.581726,-3.756775,-35.800125,9.22580881340034,0.2846595898116345,1.5405112687281748,36.174453390390134
31/01/2020, 11:03:19,7.067703,2.7662477,5.245093,0.055360027,-0.18303709,-0.21086435,-1.3447833,-0.7507577,0.03310156,-3.8098145,-3.1990814,-36.936142,9.22580881340034,0.2846595898116345,1.5405112687281748,37.26965778711004
31/01/2020, 11:03:19,7.086863,2.7015822,5.343289,0.055360027,-0.18303709,-0.21086435,-1.3447833,-0.7507577,0.03310156,-3.8098145,-3.1990814,-36.936142,9.277548725868598,0.2846595898116345,1.5405112687281748,37.26965778711004
31/01/2020, 11:03:19,7.2616997,2.7111623,5.134922,0.055360027,-0.18303709,-0.21086435,-1.3447833,-0.7507577,0.03310156,-3.8098145,-3.1990814,-36.936142,9.297854999619915,0.2846595898116345,1.5405112687281748,37.26965778711004
31/01/2020, 11:03:19,7.2616997,2.7111623,5.134922,0.055360027,-0.18303709,-0.21086435,-1.2007179,-0.29092908,0.11075783,-3.8098145,-3.1990814,-36.936142,9.297854999619915,0.2846595898116345,1.2404154801230147,37.26965778711004
31/01/2020, 11:03:19,7.2616997,2.7111623,5.134922,0.055360027,-0.18303709,-0.21086435,-1.2007179,-0.29092908,0.11075783,-3.2901306,-3.777893,-36.481323,9.297854999619915,0.2846595898116345,1.2404154801230147,36.82369320135438
31/01/2020, 11:03:19,7.3551054,2.454895,4.6271777,0.055360027,-0.18303709,-0.21086435,-1.2007179,-0.29092908,0.11075783,-3.2901306,-3.777893,-36.481323,9.029665476210534,0.2846595898116345,1.2404154801230147,36.82369320135438
31/01/2020, 11:03:19,7.838899,2.3998096,4.0906935,0.055360027,-0.18303709,-0.21086435,-1.2007179,-0.29092908,0.11075783,-3.2901306,-3.777893,-36.481323,9.161942963463,0.2846595898116345,1.2404154801230147,36.82369320135438
31/01/2020, 11:03:19,7.838899,2.3998096,4.0906935,0.055360027,-0.18303709,-0.21086435,-0.85225105,-0.38774514,0.4004612,-3.2901306,-3.777893,-36.481323,9.161942963463,0.2846595898116345,1.0183552044588728,36.82369320135438
31/01/2020, 11:03:20,8.411309,2.7758276,5.024751,-0.13156468,-0.10851156,-0.050817713,-0.32415342,-0.1646905,0.50958633,-3.908493,-4.0411224,-35.66725,10.183489911390259,0.17795073116256702,0.6260005054842765,36.107614490166725
31/01/2020, 11:03:20,8.763377,2.6153615,4.756509,-0.13156468,-0.10851156,-0.050817713,-0.32415342,-0.1646905,0.50958633,-3.908493,-4.0411224,-35.66725,10.308310798394796,0.17795073116256702,0.6260005054842765,36.107614490166725
31/01/2020, 11:03:20,8.780142,2.4501052,4.591253,-0.13156468,-0.10851156,-0.050817713,-0.32415342,-0.1646905,0.50958633,-3.908493,-4.0411224,-35.66725,10.206542427020299,0.17795073116256702,0.6260005054842765,36.107614490166725
31/01/2020, 11:03:20,8.780142,2.4501052,4.591253,-0.13156468,-0.10851156,-0.050817713,-0.32415342,-0.1646905,0.50958633,-4.2427216,-3.6120758,-36.3631,10.206542427020299,0.17795073116256702,0.6260005054842765,36.787534363016846
31/01/2020, 11:03:20,8.780142,2.4501052,4.591253,-0.13156468,-0.10851156,-0.050817713,0.02738285,-0.20537591,0.4982772,-4.2427216,-3.6120758,-36.3631,10.206542427020299,0.17795073116256702,0.5396380641399903,36.787534363016846
31/01/2020, 11:03:20,8.772957,2.4764502,4.5625124,-0.13156468,-0.10851156,-0.050817713,0.02738285,-0.20537591,0.4982772,-4.2427216,-3.6120758,-36.3631,10.193826408972901,0.17795073116256702,0.5396380641399903,36.787534363016846
31/01/2020, 11:03:20,8.57896,2.4932153,4.734954,-0.13156468,-0.10851156,-0.050817713,0.02738285,-0.20537591,0.4982772,-4.2427216,-3.6120758,-36.3631,10.111106406255749,0.17795073116256702,0.5396380641399903,36.787534363016846
31/01/2020, 11:03:20,8.57896,2.4932153,4.734954,-0.13156468,-0.10851156,-0.050817713,0.02738285,-0.20537591,0.4982772,-4.3089294,-3.9329681,-36.1481,10.111106406255749,0.17795073116256702,0.5396380641399903,36.615848693681734
31/01/2020, 11:03:20,8.57896,2.4932153,4.734954,-0.5066358,-0.04864678,-0.01660927,0.02738285,-0.20537591,0.4982772,-4.3089294,-3.9329681,-36.1481,10.111106406255749,0.5092368760805653,0.5396380641399903,36.615848693681734
31/01/2020, 11:03:20,8.205338,2.299219,5.0343313,-0.5066358,-0.04864678,-0.01660927,0.02738285,-0.20537591,0.4982772,-4.3089294,-3.9329681,-36.1481,9.897396792315377,0.5092368760805653,0.5396380641399903,36.615848693681734
31/01/2020, 11:03:20,7.8436894,2.3854396,5.225933,-0.5066358,-0.04864678,-0.01660927,0.02738285,-0.20537591,0.4982772,-4.3089294,-3.9329681,-36.1481,9.72235376904198,0.5092368760805653,0.5396380641399903,36.615848693681734
31/01/2020, 11:03:20,7.8436894,2.3854396,5.225933,-0.5066358,-0.04864678,-0.01660927,0.74795055,-0.5347333,0.067595005,-4.3089294,-3.9329681,-36.1481,9.72235376904198,0.5092368760805653,0.9219212618380077,36.615848693681734
31/01/2020, 11:03:20,7.8436894,2.3854396,5.225933,-0.5066358,-0.04864678,-0.01660927,0.74795055,-0.5347333,0.067595005,-4.243637,-3.6200104,-36.59091,9.72235376904198,0.5092368760805653,0.9219212618380077,37.01361589956301
31/01/2020, 11:03:20,7.6137676,2.562671,5.4486694,-0.5066358,-0.04864678,-0.01660927,0.74795055,-0.5347333,0.067595005,-4.243637,-3.6200104,-36.59091,9.706942793971814,0.5092368760805653,0.9219212618380077,37.01361589956301
31/01/2020, 11:03:20,7.575447,2.5123756,5.616321,-0.5066358,-0.04864678,-0.01660927,0.74795055,-0.5347333,0.067595005,-4.243637,-3.6200104,-36.59091,9.75922600272482,0.5092368760805653,0.9219212618380077,37.01361589956301
31/01/2020, 11:03:20,7.575447,2.5123756,5.616321,-0.5066358,-0.04864678,-0.01660927,0.7482872,-0.62272024,-0.14434052,-4.243637,-3.6200104,-36.59091,9.75922600272482,0.5092368760805653,0.9841485754773469,37.01361589956301
31/01/2020, 11:03:20,7.575447,2.5123756,5.616321,-0.5066358,-0.04864678,-0.01660927,0.7482872,-0.62272024,-0.14434052,-4.310486,-3.8087158,-36.00911,9.75922600272482,0.5092368760805653,0.9841485754773469,36.465635482566206
31/01/2020, 11:03:20,7.6664577,2.5027955,5.726492,-0.5066358,-0.04864678,-0.01660927,0.7482872,-0.62272024,-0.14434052,-4.310486,-3.8087158,-36.00911,9.890969004719802,0.5092368760805653,0.9841485754773469,36.465635482566206
31/01/2020, 11:03:20,8.0017605,2.6153615,5.4271145,-0.5066358,-0.04864678,-0.01660927,0.7482872,-0.62272024,-0.14434052,-4.310486,-3.8087158,-36.00911,10.01607997176246,0.5092368760805653,0.9841485754773469,36.465635482566206
31/01/2020, 11:03:20,8.0017605,2.6153615,5.4271145,-0.5066358,-0.04864678,-0.01660927,0.18057728,-0.7557161,0.29914522,-4.310486,-3.8087158,-36.00911,10.01607997176246,0.5092368760805653,0.8325880246767414,36.465635482566206
31/01/2020, 11:03:21,8.305928,-2.4716604,5.017566,4.8592024,1.5359371,2.8520129,1.5207458,-1.326765,1.1868262,-5.0971985,8.396011,-35.855774,10.013666630719179,5.8399424594353135,2.341266613684237,37.176752989707495
31/01/2020, 11:03:21,7.9394903,-2.4165747,4.169729,4.8592024,1.5359371,2.8520129,1.5207458,-1.326765,1.1868262,-5.0971985,8.396011,-35.855774,9.287732863830454,5.8399424594353135,2.341266613684237,37.176752989707495
31/01/2020, 11:03:21,7.664063,-2.6776319,4.0020776,4.8592024,1.5359371,2.8520129,1.5207458,-1.326765,1.1868262,-5.0971985,8.396011,-35.855774,9.05119873918469,5.8399424594353135,2.341266613684237,37.176752989707495
31/01/2020, 11:03:21,7.664063,-2.6776319,4.0020776,4.8592024,1.5359371,2.8520129,1.5207458,-1.326765,1.1868262,-4.946533,7.4162292,-35.259277,9.05119873918469,5.8399424594353135,2.341266613684237,36.3687405032493
31/01/2020, 11:03:21,8.164622,-2.912344,4.263135,4.8592024,1.5359371,2.8520129,1.5207458,-1.326765,1.1868262,-4.946533,7.4162292,-35.259277,9.660078908608892,5.8399424594353135,2.341266613684237,36.3687405032493
31/01/2020, 11:03:21,9.0891,-2.4980054,5.2115626,4.8592024,1.5359371,2.8520129,1.5207458,-1.326765,1.1868262,-4.946533,7.4162292,-35.259277,10.770893775090373,5.8399424594353135,2.341266613684237,36.3687405032493
31/01/2020, 11:03:21,9.0891,-2.4980054,5.2115626,4.8592024,1.5359371,2.8520129,0.915771,-1.1171153,-1.2833681,-4.946533,7.4162292,-35.259277,10.770893775090373,5.8399424594353135,1.9322569052714407,36.3687405032493
31/01/2020, 11:03:21,9.0891,-2.4980054,5.2115626,4.8592024,1.5359371,2.8520129,0.915771,-1.1171153,-1.2833681,-4.580124,5.8359222,-35.78978,10.770893775090373,5.8399424594353135,1.9322569052714407,36.55056568221038
31/01/2020, 11:03:21,9.0891,-2.4980054,5.2115626,4.8592024,1.5359371,2.8520129,0.58680487,-1.6642362,-2.7077627,-4.580124,5.8359222,-35.78978,10.770893775090373,5.8399424594353135,3.2320273790608423,36.55056568221038
31/01/2020, 11:03:21,9.105865,-2.203418,6.205496,4.8592024,1.5359371,2.8520129,0.58680487,-1.6642362,-2.7077627,-4.580124,5.8359222,-35.78978,11.23743735244164,5.8399424594353135,3.2320273790608423,36.55056568221038
31/01/2020, 11:03:21,8.236472,-2.3543043,7.0054326,4.8592024,1.5359371,2.8520129,0.58680487,-1.6642362,-2.7077627,-4.580124,5.8359222,-35.78978,11.066088195033522,5.8399424594353135,3.2320273790608423,36.55056568221038
31/01/2020, 11:03:21,8.236472,-2.3543043,7.0054326,4.8592024,1.5359371,2.8520129,0.58680487,-1.6642362,-2.7077627,-3.6933594,3.3907776,-35.103516,11.066088195033522,5.8399424594353135,3.2320273790608423,35.45976713626389
31/01/2020, 11:03:21,8.236472,-2.3543043,7.0054326,6.8823876,3.5627873,1.2723159,0.58680487,-1.6642362,-2.7077627,-3.6933594,3.3907776,-35.103516,11.066088195033522,7.853629769291287,3.2320273790608423,35.45976713626389
31/01/2020, 11:03:21,8.236472,-2.3543043,7.0054326,6.8823876,3.5627873,1.2723159,1.4687963,-2.3995142,-2.8812847,-3.6933594,3.3907776,-35.103516,11.066088195033522,7.853629769291287,4.027012841169887,35.45976713626389
31/01/2020, 11:03:21,7.0365677,-3.0225148,6.957532,6.8823876,3.5627873,1.2723159,1.4687963,-2.3995142,-2.8812847,-3.6933594,3.3907776,-35.103516,10.346793281429603,7.853629769291287,4.027012841169887,35.45976713626389
31/01/2020, 11:03:21,6.0570045,-3.4248781,6.7371902,6.8823876,3.5627873,1.2723159,1.4687963,-2.3995142,-2.8812847,-3.6933594,3.3907776,-35.103516,9.685392376508444,7.853629769291287,4.027012841169887,35.45976713626389
31/01/2020, 11:03:21,6.0570045,-3.4248781,6.7371902,6.8823876,3.5627873,1.2723159,1.4687963,-2.3995142,-2.8812847,-2.333847,-1.0799103,-35.857742,9.685392376508444,7.853629769291287,4.027012841169887,35.94983632483491
31/01/2020, 11:03:21,6.0570045,-3.4248781,6.7371902,6.8823876,3.5627873,1.2723159,2.884235,-2.482044,-1.3689594,-2.333847,-1.0799103,-35.857742,9.685392376508444,7.853629769291287,4.043934127483292,35.94983632483491
31/01/2020, 11:03:21,5.4319043,-3.417693,6.6030693,6.8823876,3.5627873,1.2723159,2.884235,-2.482044,-1.3689594,-2.333847,-1.0799103,-35.857742,9.207971193834476,7.853629769291287,4.043934127483292,35.94983632483491
31/01/2020, 11:03:21,4.4691067,-3.1446607,6.550379,6.8823876,3.5627873,1.2723159,2.884235,-2.482044,-1.3689594,-2.333847,-1.0799103,-35.857742,8.53049048241557,7.853629769291287,4.043934127483292,35.94983632483491
31/01/2020, 11:03:22,0.045505375,4.3230104,10.605147,-1.0661881,0.1541604,1.0805043,-0.5539881,0.6327696,0.6180458,24.574875,-28.62732,-11.62941,11.452494951238657,1.5257824301333014,1.043686150437817,39.480261646705145
31/01/2020, 11:03:22,-0.45744875,3.911067,10.9644,-1.0661881,0.1541604,1.0805043,-0.5539881,0.6327696,0.6180458,24.574875,-28.62732,-11.62941,11.65005486078119,1.5257824301333014,1.043686150437817,39.480261646705145
31/01/2020, 11:03:22,-0.8047266,3.4751735,11.266172,-1.0661881,0.1541604,1.0805043,-0.5539881,0.6327696,0.6180458,24.574875,-28.62732,-11.62941,11.81740480487709,1.5257824301333014,1.043686150437817,39.480261646705145
31/01/2020, 11:03:22,-0.8047266,3.4751735,11.266172,-1.0661881,0.1541604,1.0805043,-0.5539881,0.6327696,0.6180458,24.218338,-28.934265,-11.896469,11.81740480487709,1.5257824301333014,1.043686150437817,39.56318456004346
31/01/2020, 11:03:22,-0.8047266,3.4751735,11.266172,-1.0661881,0.1541604,1.0805043,-0.5539881,0.6327696,0.6180458,23.797256,-29.044891,-12.397705,11.81740480487709,1.5257824301333014,1.043686150437817,39.542612719123014
31/01/2020, 11:03:22,-0.8047266,3.4751735,11.266172,-1.0661881,0.1541604,1.0805043,-0.90134865,0.48440337,1.630888,23.797256,-29.044891,-12.397705,11.81740480487709,1.5257824301333014,1.9253237745027718,39.542612719123014
31/01/2020, 11:03:22,-0.5843848,3.3506324,11.2374325,-1.0661881,0.1541604,1.0805043,-0.90134865,0.48440337,1.630888,23.797256,-29.044891,-12.397705,11.740874414104477,1.5257824301333014,1.9253237745027718,39.542612719123014
31/01/2020, 11:03:22,-0.06706055,3.412903,11.072176,-1.0661881,0.1541604,1.0805043,-0.90134865,0.48440337,1.630888,23.797256,-29.044891,-12.397705,11.586435405660337,1.5257824301333014,1.9253237745027718,39.542612719123014
31/01/2020, 11:03:22,-0.06706055,3.412903,11.072176,-1.0661881,0.1541604,1.0805043,-0.90134865,0.48440337,1.630888,23.201965,-29.140823,-12.557724,11.586435405660337,1.5257824301333014,1.9253237745027718,39.309225553949844
31/01/2020, 11:03:22,-0.06706055,3.412903,11.072176,-1.0661881,0.1541604,1.0805043,-1.8036956,-0.0773108,2.1802979,23.201965,-29.140823,-12.557724,11.586435405660337,1.5257824301333014,2.8307231148199685,39.309225553949844
31/01/2020, 11:03:22,0.3879932,3.3769777,10.770403,-1.0661881,0.1541604,1.0805043,-1.8036956,-0.0773108,2.1802979,23.201965,-29.140823,-12.557724,11.294073480639685,1.5257824301333014,2.8307231148199685,39.309225553949844
31/01/2020, 11:03:22,0.44786867,3.0991554,10.638678,-1.0661881,0.1541604,1.0805043,-1.8036956,-0.0773108,2.1802979,23.201965,-29.140823,-12.557724,11.089941916826678,1.5257824301333014,2.8307231148199685,39.309225553949844
31/01/2020, 11:03:22,0.44786867,3.0991554,10.638678,-1.0661881,0.1541604,1.0805043,-1.8036956,-0.0773108,2.1802979,23.22142,-29.051926,-12.576691,11.089941916826678,1.5257824301333014,2.8307231148199685,39.26094615527735
31/01/2020, 11:03:22,0.44786867,3.0991554,10.638678,-1.0661881,0.1541604,1.0805043,-1.1526581,0.23351026,1.8589869,23.22142,-29.051926,-12.576691,11.089941916826678,1.5257824301333014,2.199768140453787,39.26094615527735
31/01/2020, 11:03:22,0.20597169,2.1507277,10.950029,-1.0661881,0.1541604,1.0805043,-1.1526581,0.23351026,1.8589869,23.22142,-29.051926,-12.576691,11.161146780653706,1.5257824301333014,2.199768140453787,39.26094615527735
31/01/2020, 11:03:22,0.4406836,1.0825489,10.894944,-1.0661881,0.1541604,1.0805043,-1.1526581,0.23351026,1.8589869,23.22142,-29.051926,-12.576691,10.957459696023147,1.5257824301333014,2.199768140453787,39.26094615527735
31/01/2020, 11:03:22,0.4406836,1.0825489,10.894944,-1.0661881,0.1541604,1.0805043,-1.1526581,0.23351026,1.8589869,22.736557,-28.975342,-12.958237,10.957459696023147,1.5257824301333014,2.199768140453787,39.04404378387651
31/01/2020, 11:03:22,0.4406836,1.0825489,10.894944,-1.881082,-0.48969132,0.5734864,-1.1526581,0.23351026,1.8589869,22.736557,-28.975342,-12.958237,10.957459696023147,2.026611440727701,2.199768140453787,39.04404378387651
31/01/2020, 11:03:22,0.5748047,0.6706055,10.676997,-1.881082,-0.48969132,0.5734864,-1.1526581,0.23351026,1.8589869,22.736557,-28.975342,-12.958237,10.71346727552866,2.026611440727701,2.199768140453787,39.04404378387651
31/01/2020, 11:03:22,0.97237796,0.9364527,10.4566555,-1.881082,-0.48969132,0.5734864,-1.1526581,0.23351026,1.8589869,22.736557,-28.975342,-12.958237,10.54343904131483,2.026611440727701,2.199768140453787,39.04404378387651
31/01/2020, 11:03:23,-0.7759864,-0.119750984,10.209969,0.47563517,0.25678572,0.3767878,-0.07753241,1.2203,0.5293522,20.251572,-23.268448,-23.304565,10.240114905941585,0.6588905652970405,1.3324252339757812,38.66069827269418
31/01/2020, 11:03:23,-0.7759864,-0.119750984,10.209969,0.47563517,0.25678572,0.3767878,-0.005740702,1.0719469,0.41219425,20.251572,-23.268448,-23.304565,10.240114905941585,0.6588905652970405,1.1484803552285632,38.66069827269418
31/01/2020, 11:03:23,-0.80233157,-0.06945557,10.097403,0.47563517,0.25678572,0.3767878,-0.005740702,1.0719469,0.41219425,20.251572,-23.268448,-23.304565,10.129466853359133,0.6588905652970405,1.1484803552285632,38.66069827269418
31/01/2020, 11:03:23,-0.8981324,-0.016765138,10.106983,0.47563517,0.25678572,0.3767878,-0.005740702,1.0719469,0.41219425,20.251572,-23.268448,-23.304565,10.146823736857316,0.6588905652970405,1.1484803552285632,38.66069827269418
31/01/2020, 11:03:23,-0.8981324,-0.016765138,10.106983,0.47563517,0.25678572,0.3767878,-0.005740702,1.0719469,0.41219425,20.242111,-23.90979,-23.001251,10.146823736857316,0.6588905652970405,1.1484803552285632,38.86487724807881
31/01/2020, 11:03:23,-0.7831714,0.05269043,9.541759,0.47563517,0.25678572,0.3767878,-0.005740702,1.0719469,0.41219425,20.242111,-23.90979,-23.001251,9.573990272156715,0.6588905652970405,1.1484803552285632,38.86487724807881
31/01/2020, 11:03:23,-0.847837,0.047900394,9.85311,0.47563517,0.25678572,0.3767878,-0.005740702,1.0719469,0.41219425,20.242111,-23.90979,-23.001251,9.889636233245247,0.6588905652970405,1.1484803552285632,38.86487724807881
31/01/2020, 11:03:23,-0.847837,0.047900394,9.85311,0.47563517,0.25678572,0.3767878,-0.192904,0.72637206,0.54161453,20.242111,-23.90979,-23.001251,9.889636233245247,0.6588905652970405,0.9263771518166469,38.86487724807881
31/01/2020, 11:03:23,-0.847837,0.047900394,9.85311,0.47563517,0.25678572,0.3767878,-0.192904,0.72637206,0.54161453,20.66658,-24.66365,-22.234009,9.889636233245247,0.6588905652970405,0.9263771518166469,39.1120741027063
31/01/2020, 11:03:23,-0.9196875,-0.18681154,9.493857,0.47563517,0.25678572,0.3767878,-0.192904,0.72637206,0.54161453,20.66658,-24.66365,-22.234009,9.540128494310412,0.6588905652970405,0.9263771518166469,39.1120741027063
31/01/2020, 11:03:23,-0.79754156,-0.21076173,9.965676,0.47563517,0.25678572,0.3767878,-0.192904,0.72637206,0.54161453,20.66658,-24.66365,-22.234009,9.999759862739001,0.6588905652970405,0.9263771518166469,39.1120741027063
31/01/2020, 11:03:23,-0.79754156,-0.21076173,9.965676,0.47563517,0.25678572,0.3767878,-0.15326893,0.49591893,0.32942963,20.66658,-24.66365,-22.234009,9.999759862739001,0.6588905652970405,0.6147770566792444,39.1120741027063
31/01/2020, 11:03:23,-0.79754156,-0.21076173,9.965676,0.47563517,0.25678572,0.3767878,-0.15326893,0.49591893,0.32942963,20.077652,-24.221817,-22.551575,9.999759862739001,0.6588905652970405,0.6147770566792444,38.7089401854884
31/01/2020, 11:03:23,-0.79754156,-0.21076173,9.965676,0.47563517,0.25678572,0.3767878,-0.087486684,0.501648,-0.2287302,20.077652,-24.221817,-22.551575,9.999759862739001,0.6588905652970405,0.5582312691614592,38.7089401854884
31/01/2020, 11:03:23,-0.6610254,0.10538086,9.965676,0.47563517,0.25678572,0.3767878,-0.087486684,0.501648,-0.2287302,20.077652,-24.221817,-22.551575,9.988131155609564,0.6588905652970405,0.5582312691614592,38.7089401854884
31/01/2020, 11:03:23,-0.5724097,0.3305127,9.877061,0.47563517,0.25678572,0.3767878,-0.087486684,0.501648,-0.2287302,20.077652,-24.221817,-22.551575,9.899152657056767,0.6588905652970405,0.5582312691614592,38.7089401854884
31/01/2020, 11:03:23,-0.5724097,0.3305127,9.877061,0.47563517,0.25678572,0.3767878,-0.087486684,0.501648,-0.2287302,20.082764,-24.887024,-21.553955,9.899152657056767,0.6588905652970405,0.5582312691614592,38.564936614658414
31/01/2020, 11:03:23,-0.5724097,0.3305127,9.877061,0.8323803,0.2763334,0.27294075,-0.087486684,0.501648,-0.2287302,20.082764,-24.887024,-21.553955,9.899152657056767,0.9185389236178492,0.5582312691614592,38.564936614658414
31/01/2020, 11:03:23,-0.5364844,0.26105714,9.975257,0.8323803,0.2763334,0.27294075,-0.087486684,0.501648,-0.2287302,20.082764,-24.887024,-21.553955,9.993083457071082,0.9185389236178492,0.5582312691614592,38.564936614658414
31/01/2020, 11:03:23,-0.6179151,0.16286133,9.783655,0.8323803,0.2763334,0.27294075,-0.087486684,0.501648,-0.2287302,20.082764,-24.887024,-21.553955,9.80450158326637,0.9185389236178492,0.5582312691614592,38.564936614658414
31/01/2020, 11:03:24,-0.32572266,2.6345215,9.860296,0.2850453,-9.993124E-4,0.39511374,-0.13098386,0.23127556,0.2322216,15.641373,-34.00029,-12.42276,10.211378008456629,0.4872029187674356,0.3529476284469746,39.43345305746349
31/01/2020, 11:03:24,-0.32572266,2.6345215,9.860296,0.27649316,0.03687432,0.43543082,-0.13098386,0.23127556,0.2322216,15.641373,-34.00029,-12.42276,10.211378008456629,0.5171152552737273,0.3529476284469746,39.43345305746349
31/01/2020, 11:03:24,-0.32572266,2.6345215,9.860296,0.27649316,0.03687432,0.43543082,-0.16087912,0.033880234,0.53272915,15.641373,-34.00029,-12.42276,10.211378008456629,0.5171152552737273,0.5575215759199817,39.43345305746349
31/01/2020, 11:03:24,-0.17244141,2.8357031,9.527389,0.27649316,0.03687432,0.43543082,-0.16087912,0.033880234,0.53272915,15.641373,-34.00029,-12.42276,9.941935491719224,0.5171152552737273,0.5575215759199817,39.43345305746349
31/01/2020, 11:03:24,-0.038320314,2.9219239,9.534574,0.27649316,0.03687432,0.43543082,-0.16087912,0.033880234,0.53272915,15.641373,-34.00029,-12.42276,9.972321718539892,0.5171152552737273,0.5575215759199817,39.43345305746349
31/01/2020, 11:03:24,-0.038320314,2.9219239,9.534574,0.27649316,0.03687432,0.43543082,-0.16087912,0.033880234,0.53272915,15.856079,-34.102524,-11.839935,9.972321718539892,0.5171152552737273,0.5575215759199817,39.428180813101356
31/01/2020, 11:03:24,-0.038320314,2.9219239,9.534574,0.27649316,0.03687432,0.43543082,-0.1735696,0.30074716,0.33739376,15.856079,-34.102524,-11.839935,9.972321718539892,0.5171152552737273,0.48415886790329615,39.428180813101356
31/01/2020, 11:03:24,0.10777588,2.7279274,9.572893,0.27649316,0.03687432,0.43543082,-0.1735696,0.30074716,0.33739376,15.856079,-34.102524,-11.839935,9.954571156755385,0.5171152552737273,0.48415886790329615,39.428180813101356
31/01/2020, 11:03:24,0.26105714,2.555486,9.333391,0.27649316,0.03687432,0.43543082,-0.1735696,0.30074716,0.33739376,15.856079,-34.102524,-11.839935,9.680436479749256,0.5171152552737273,0.48415886790329615,39.428180813101356
31/01/2020, 11:03:24,0.26105714,2.555486,9.333391,0.27649316,0.03687432,0.43543082,-0.1735696,0.30074716,0.33739376,15.142548,-33.996506,-11.744476,9.680436479749256,0.5171152552737273,0.48415886790329615,39.025528495872194
31/01/2020, 11:03:24,0.43110353,2.5578809,9.11784,0.27649316,0.03687432,0.43543082,-0.1735696,0.30074716,0.33739376,15.142548,-33.996506,-11.744476,9.479641749536803,0.5171152552737273,0.48415886790329615,39.025528495872194
31/01/2020, 11:03:24,0.34727785,2.7973828,8.909473,0.27649316,0.03687432,0.43543082,-0.1735696,0.30074716,0.33739376,15.142548,-33.996506,-11.744476,9.344766942982872,0.5171152552737273,0.48415886790329615,39.025528495872194
31/01/2020, 11:03:24,0.34727785,2.7973828,8.909473,0.27649316,0.03687432,0.43543082,0.095197,0.5329032,0.025249481,15.142548,-33.996506,-11.744476,9.344766942982872,0.5171152552737273,0.5419278731220579,39.025528495872194
31/01/2020, 11:03:24,0.34727785,2.7973828,8.909473,0.27649316,0.03687432,0.43543082,0.095197,0.5329032,0.025249481,14.852356,-34.635986,-11.455322,9.344766942982872,0.5171152552737273,0.5419278731220579,39.38868409335031
31/01/2020, 11:03:24,0.07664063,2.9482691,8.851993,0.27649316,0.03687432,0.43543082,0.095197,0.5329032,0.025249481,14.852356,-34.635986,-11.455322,9.330377149836087,0.5171152552737273,0.5419278731220579,39.38868409335031
31/01/2020, 11:03:24,0.0,2.8883936,9.034014,0.27649316,0.03687432,0.43543082,0.095197,0.5329032,0.025249481,14.852356,-34.635986,-11.455322,9.484525408511036,0.5171152552737273,0.5419278731220579,39.38868409335031
31/01/2020, 11:03:24,0.0,2.8883936,9.034014,0.27649316,0.03687432,0.43543082,0.37892106,0.102701664,-0.15972137,14.852356,-34.635986,-11.455322,9.484525408511036,0.5171152552737273,0.4238392623380526,39.38868409335031
31/01/2020, 11:03:24,0.0,2.8883936,9.034014,0.27649316,0.03687432,0.43543082,0.37892106,0.102701664,-0.15972137,14.799286,-34.314133,-10.969101,9.484525408511036,0.5171152552737273,0.4238392623380526,38.94611329528894
31/01/2020, 11:03:24,0.0,2.8883936,9.034014,0.34002313,0.16882116,0.40000066,0.37892106,0.102701664,-0.15972137,14.799286,-34.314133,-10.969101,9.484525408511036,0.5514678966790635,0.4238392623380526,38.94611329528894
31/01/2020, 11:03:24,-0.19639161,2.8955786,9.321417,0.34002313,0.16882116,0.40000066,0.37892106,0.102701664,-0.15972137,14.799286,-34.314133,-10.969101,9.76277406316141,0.5514678966790635,0.4238392623380526,38.94611329528894
31/01/2020, 11:03:25,-1.0538087,3.515889,9.129815,0.59047776,-0.021768723,0.24239749,-0.9798094,0.23246431,-0.18877983,11.607941,-37.09024,-4.7985077,9.839995503390154,0.6386661174394009,1.0245506081451181,39.15936543786614
31/01/2020, 11:03:25,-1.0226734,3.8559816,8.969349,0.59047776,-0.021768723,0.24239749,-0.9798094,0.23246431,-0.18877983,11.607941,-37.09024,-4.7985077,9.81650012235982,0.6386661174394009,1.0245506081451181,39.15936543786614
31/01/2020, 11:03:25,-1.0226734,3.8559816,8.969349,0.59047776,-0.021768723,0.24239749,-0.3796147,0.21172523,-0.017560959,11.607941,-37.09024,-4.7985077,9.81650012235982,0.6386661174394009,0.4350210237074247,39.15936543786614
31/01/2020, 11:03:25,-1.0226734,3.8559816,8.969349,0.59047776,-0.021768723,0.24239749,-0.3796147,0.21172523,-0.017560959,11.588989,-37.034714,-3.2865143,9.81650012235982,0.6386661174394009,0.4350210237074247,38.944522982413645
31/01/2020, 11:03:25,-1.0226734,3.8559816,8.969349,0.45853093,-0.053533703,0.22773674,-0.3796147,0.21172523,-0.017560959,11.588989,-37.034714,-3.2865143,9.81650012235982,0.5147625636318732,0.4350210237074247,38.944522982413645
31/01/2020, 11:03:25,-0.9364527,4.136199,8.897498,0.45853093,-0.053533703,0.22773674,-0.3796147,0.21172523,-0.017560959,11.588989,-37.034714,-3.2865143,9.856498301580014,0.5147625636318732,0.4350210237074247,38.944522982413645
31/01/2020, 11:03:25,-0.9364527,4.152964,9.019644,0.45853093,-0.053533703,0.22773674,-0.3796147,0.21172523,-0.017560959,11.588989,-37.034714,-3.2865143,9.973867281989214,0.5147625636318732,0.4350210237074247,38.944522982413645
31/01/2020, 11:03:25,-0.9364527,4.152964,9.019644,0.45853093,-0.053533703,0.22773674,-0.2717493,-0.19945431,0.23148537,11.588989,-37.034714,-3.2865143,9.973867281989214,0.5147625636318732,0.4089195168962364,38.944522982413645
31/01/2020, 11:03:25,-0.9364527,4.152964,9.019644,0.45853093,-0.053533703,0.22773674,-0.2717493,-0.19945431,0.23148537,11.560623,-37.426544,-4.012497,9.973867281989214,0.5147625636318732,0.4089195168962364,39.376317118022804
31/01/2020, 11:03:25,-0.9364527,4.152964,9.019644,0.45853093,-0.053533703,0.22773674,-0.7679077,-0.1847992,0.053806305,11.560623,-37.426544,-4.012497,9.973867281989214,0.5147625636318732,0.791661584434359,39.376317118022804
31/01/2020, 11:03:25,-0.8909473,4.0499783,9.158555,0.45853093,-0.053533703,0.22773674,-0.7679077,-0.1847992,0.053806305,11.560623,-37.426544,-4.012497,10.053618313242852,0.5147625636318732,0.791661584434359,39.376317118022804
31/01/2020, 11:03:25,-0.6514453,3.8464015,9.285491,0.45853093,-0.053533703,0.22773674,-0.7679077,-0.1847992,0.053806305,11.560623,-37.426544,-4.012497,10.071719221375535,0.5147625636318732,0.791661584434359,39.376317118022804
31/01/2020, 11:03:25,-0.6514453,3.8464015,9.285491,0.45853093,-0.053533703,0.22773674,-0.7679077,-0.1847992,0.053806305,11.210495,-37.007187,-3.2910004,10.071719221375535,0.5147625636318732,0.791661584434359,38.80770236604217
31/01/2020, 11:03:25,-0.6514453,3.8464015,9.285491,0.45853093,-0.053533703,0.22773674,-0.6714613,0.38666558,-0.15908718,11.210495,-37.007187,-3.2910004,10.071719221375535,0.5147625636318732,0.7909989002050313,38.80770236604217
31/01/2020, 11:03:25,-0.34967285,3.6931202,9.266331,0.45853093,-0.053533703,0.22773674,-0.6714613,0.38666558,-0.15908718,11.210495,-37.007187,-3.2910004,9.9812971709225,0.5147625636318732,0.7909989002050313,38.80770236604217
31/01/2020, 11:03:25,-0.083825685,3.547024,8.995694,0.45853093,-0.053533703,0.22773674,-0.6714613,0.38666558,-0.15908718,11.210495,-37.007187,-3.2910004,9.670104420997284,0.5147625636318732,0.7909989002050313,38.80770236604217
31/01/2020, 11:03:25,-0.083825685,3.547024,8.995694,0.45853093,-0.053533703,0.22773674,-0.6714613,0.38666558,-0.15908718,11.304825,-37.62947,-3.3432007,9.670104420997284,0.5147625636318732,0.7909989002050313,39.43289400756275
31/01/2020, 11:03:25,0.0047900393,3.4847536,8.854387,0.45853093,-0.053533703,0.22773674,-0.6714613,0.38666558,-0.15908718,11.304825,-37.62947,-3.3432007,9.515445592349312,0.5147625636318732,0.7909989002050313,39.43289400756275
31/01/2020, 11:03:25,-0.09340577,3.5781593,8.6077,0.45853093,-0.053533703,0.22773674,-0.6714613,0.38666558,-0.15908718,11.304825,-37.62947,-3.3432007,9.322255849521675,0.5147625636318732,0.7909989002050313,39.43289400756275
31/01/2020, 11:03:25,-0.09340577,3.5781593,8.6077,0.45853093,-0.053533703,0.22773674,-0.6600524,0.2702105,0.11348343,11.304825,-37.62947,-3.3432007,9.322255849521675,0.5147625636318732,0.7221920803014275,39.43289400756275
31/01/2020, 11:03:26,-2.2249732,5.4486694,2.1411476,1.1671343,1.9916424,0.30470574,-2.9972947,-3.0878263,0.6528666,-11.322174,-33.316467,22.149567,6.262828230759451,2.3284516959650277,4.352548801278583,41.57862336448463
31/01/2020, 11:03:26,-2.2249732,5.4486694,2.1411476,1.1671343,1.9916424,0.30470574,-2.9972947,-3.0878263,0.6528666,-12.440857,-33.15338,21.80552,6.262828230759451,2.3284516959650277,4.352548801278583,41.58608276118765
31/01/2020, 11:03:26,-2.2249732,5.4486694,2.1411476,1.1671343,1.9916424,0.30470574,-2.1791296,-3.7737465,0.60588765,-12.440857,-33.15338,21.80552,6.262828230759451,2.3284516959650277,4.399644103385458,41.58608276118765
31/01/2020, 11:03:26,-2.5962012,5.7312818,2.4022048,1.1671343,1.9916424,0.30470574,-2.1791296,-3.7737465,0.60588765,-12.440857,-33.15338,21.80552,6.7348673949032145,2.3284516959650277,4.399644103385458,41.58608276118765
31/01/2020, 11:03:26,-3.791316,5.9013286,2.682422,1.1671343,1.9916424,0.30470574,-2.1791296,-3.7737465,0.60588765,-12.440857,-33.15338,21.80552,7.509669995780538,2.3284516959650277,4.399644103385458,41.58608276118765
31/01/2020, 11:03:26,-3.791316,5.9013286,2.682422,1.1671343,1.9916424,0.30470574,-2.1791296,-3.7737465,0.60588765,-13.384491,-32.90535,21.788162,7.509669995780538,2.3284516959650277,4.399644103385458,41.67290070072847
31/01/2020, 11:03:26,-3.791316,5.9013286,2.682422,-1.2592216,2.0417333,-1.5107851,-2.1791296,-3.7737465,0.60588765,-13.384491,-32.90535,21.788162,7.509669995780538,2.8349224457876017,4.399644103385458,41.67290070072847
31/01/2020, 11:03:26,-3.791316,5.9013286,2.682422,-1.2592216,2.0417333,-1.5107851,-1.0254374,-3.8213162,-0.8146987,-13.384491,-32.90535,21.788162,7.509669995780538,2.8349224457876017,4.0395189760218,41.67290070072847
31/01/2020, 11:03:26,-4.912185,5.6642213,2.5530908,-1.2592216,2.0417333,-1.5107851,-1.0254374,-3.8213162,-0.8146987,-13.384491,-32.90535,21.788162,7.920305476127441,2.8349224457876017,4.0395189760218,41.67290070072847
31/01/2020, 11:03:26,-5.623506,4.7229786,2.9770093,-1.2592216,2.0417333,-1.5107851,-1.0254374,-3.8213162,-0.8146987,-13.384491,-32.90535,21.788162,7.924199116681842,2.8349224457876017,4.0395189760218,41.67290070072847
31/01/2020, 11:03:26,-5.623506,4.7229786,2.9770093,-1.2592216,2.0417333,-1.5107851,-1.0254374,-3.8213162,-0.8146987,-13.86377,-32.84427,21.831993,7.924199116681842,2.8349224457876017,4.0395189760218,41.80413880701197
31/01/2020, 11:03:26,-6.6126494,1.9687061,4.679868,-1.2592216,2.0417333,-1.5107851,-1.0254374,-3.8213162,-0.8146987,-13.86377,-32.84427,21.831993,8.336912079732684,2.8349224457876017,4.0395189760218,41.80413880701197
31/01/2020, 11:03:26,-6.9048414,-0.18441652,6.375542,-1.2592216,2.0417333,-1.5107851,-1.0254374,-3.8213162,-0.8146987,-13.86377,-32.84427,21.831993,9.39991395770406,2.8349224457876017,4.0395189760218,41.80413880701197
31/01/2020, 11:03:26,-6.9048414,-0.18441652,6.375542,-1.2592216,2.0417333,-1.5107851,-2.1132321,-3.235074,-0.45274997,-13.86377,-32.84427,21.831993,9.39991395770406,2.8349224457876017,3.8905573711573003,41.80413880701197
31/01/2020, 11:03:26,-6.9048414,-0.18441652,6.375542,-1.2592216,2.0417333,-1.5107851,-2.1132321,-3.235074,-0.45274997,-13.871292,-33.06955,20.548676,9.39991395770406,2.8349224457876017,3.8905573711573003,41.331052725353295
31/01/2020, 11:03:26,-6.9048414,-0.18441652,6.375542,-1.2592216,2.0417333,-1.5107851,-3.374864,-4.2075534,-0.38511539,-13.871292,-33.06955,20.548676,9.39991395770406,2.8349224457876017,5.407543533308209,41.331052725353295
31/01/2020, 11:03:26,-6.6557593,-0.43589357,7.414981,-1.2592216,2.0417333,-1.5107851,-3.374864,-4.2075534,-0.38511539,-13.871292,-33.06955,20.548676,9.973518792023874,2.8349224457876017,5.407543533308209,41.331052725353295
31/01/2020, 11:03:26,-5.623506,0.40715334,7.7622585,-1.2592216,2.0417333,-1.5107851,-3.374864,-4.2075534,-0.38511539,-13.871292,-33.06955,20.548676,9.593865322812892,2.8349224457876017,5.407543533308209,41.331052725353295
31/01/2020, 11:03:26,-5.623506,0.40715334,7.7622585,-1.2592216,2.0417333,-1.5107851,-3.374864,-4.2075534,-0.38511539,-13.013916,-33.827133,20.135849,9.593865322812892,2.8349224457876017,5.407543533308209,41.4619025620323
31/01/2020, 11:03:26,-5.623506,0.40715334,7.7622585,-1.2592216,2.0417333,-1.5107851,-4.0245543,-8.841142,2.7905138,-13.013916,-33.827133,20.135849,9.593865322812892,2.8349224457876017,10.106917953343565,41.4619025620323
31/01/2020, 11:03:27,2.44771,-4.4451566,8.768167,1.8671856,0.37285006,-0.79485124,-0.81065345,-0.70303726,2.341601,16.037949,0.66215515,-35.47516,10.130717936313133,2.0632953507142666,2.575755259289998,38.9376569555818
31/01/2020, 11:03:27,2.7111623,-4.6607084,8.911868,1.8671856,0.37285006,-0.79485124,-0.81065345,-0.70303726,2.341601,16.037949,0.66215515,-35.47516,10.416045178855187,2.0632953507142666,2.575755259289998,38.9376569555818
31/01/2020, 11:03:27,2.7111623,-4.6607084,8.911868,1.8671856,0.37285006,-0.79485124,-0.9743962,-0.7264118,1.8024211,16.037949,0.66215515,-35.47516,10.416045178855187,2.0632953507142666,2.173900627575623,38.9376569555818
31/01/2020, 11:03:27,2.7111623,-4.6607084,8.911868,1.8671856,0.37285006,-0.79485124,-0.9743962,-0.7264118,1.8024211,16.377075,-0.041152954,-34.72583,10.416045178855187,2.0632953507142666,2.173900627575623,38.39392608386595
31/01/2020, 11:03:27,2.8596535,-4.703819,8.931028,1.8671856,0.37285006,-0.79485124,-0.9743962,-0.7264118,1.8024211,16.377075,-0.041152954,-34.72583,10.491272417871278,2.0632953507142666,2.173900627575623,38.39392608386595
31/01/2020, 11:03:27,2.7734327,-4.253555,9.642349,1.8671856,0.37285006,-0.79485124,-0.9743962,-0.7264118,1.8024211,16.377075,-0.041152954,-34.72583,10.897685839635372,2.0632953507142666,2.173900627575623,38.39392608386595
31/01/2020, 11:03:27,2.7734327,-4.253555,9.642349,1.8671856,0.37285006,-0.79485124,-0.68276405,0.224864,1.4260836,16.377075,-0.041152954,-34.72583,10.897685839635372,2.0632953507142666,1.597011242110379,38.39392608386595
31/01/2020, 11:03:27,2.7734327,-4.253555,9.642349,1.8671856,0.37285006,-0.79485124,-0.68276405,0.224864,1.4260836,16.682907,-1.504425,-35.175888,10.897685839635372,2.0632953507142666,1.597011242110379,38.96056705313059
31/01/2020, 11:03:27,2.7734327,-4.253555,9.642349,1.6203961,0.13949963,-0.058148094,-0.68276405,0.224864,1.4260836,16.682907,-1.504425,-35.175888,10.897685839635372,1.6274289509472921,1.597011242110379,38.96056705313059
31/01/2020, 11:03:27,2.7686427,-4.416416,9.110655,1.6203961,0.13949963,-0.058148094,-0.68276405,0.224864,1.4260836,16.682907,-1.504425,-35.175888,10.496387255619132,1.6274289509472921,1.597011242110379,38.96056705313059
31/01/2020, 11:03:27,2.069297,-4.119434,9.596844,1.6203961,0.13949963,-0.058148094,-0.68276405,0.224864,1.4260836,16.682907,-1.504425,-35.175888,10.646649015177111,1.6274289509472921,1.597011242110379,38.96056705313059
31/01/2020, 11:03:27,2.069297,-4.119434,9.596844,1.6203961,0.13949963,-0.058148094,-0.751755,0.7904992,1.1193495,16.682907,-1.504425,-35.175888,10.646649015177111,1.6274289509472921,1.5629996282752747,38.96056705313059
31/01/2020, 11:03:27,2.069297,-4.119434,9.596844,1.6203961,0.13949963,-0.058148094,-0.751755,0.7904992,1.1193495,17.21434,-2.8974457,-34.32788,10.646649015177111,1.6274289509472921,1.5629996282752747,38.511454200287
31/01/2020, 11:03:27,1.4920973,-4.1098537,9.445957,1.6203961,0.13949963,-0.058148094,-0.751755,0.7904992,1.1193495,17.21434,-2.8974457,-34.32788,10.408811610801738,1.6274289509472921,1.5629996282752747,38.511454200287
31/01/2020, 11:03:27,1.4489869,-3.544629,9.558523,1.6203961,0.13949963,-0.058148094,-0.751755,0.7904992,1.1193495,17.21434,-2.8974457,-34.32788,10.297054131297758,1.6274289509472921,1.5629996282752747,38.511454200287
31/01/2020, 11:03:27,1.4489869,-3.544629,9.558523,1.6203961,0.13949963,-0.058148094,-0.33010864,0.26418114,1.1014457,17.21434,-2.8974457,-34.32788,10.297054131297758,1.6274289509472921,1.1798075961121413,38.511454200287
31/01/2020, 11:03:27,1.4489869,-3.544629,9.558523,1.6203961,0.13949963,-0.058148094,-0.33010864,0.26418114,1.1014457,17.383957,-3.4767761,-34.88362,10.297054131297758,1.6274289509472921,1.1798075961121413,39.13000075592683
31/01/2020, 11:03:27,1.6094532,-3.0201197,9.613608,1.6203961,0.13949963,-0.058148094,-0.33010864,0.26418114,1.1014457,17.383957,-3.4767761,-34.88362,10.20455428304073,1.6274289509472921,1.1798075961121413,39.13000075592683
31/01/2020, 11:03:27,1.6214283,-2.6057813,9.683064,1.6203961,0.13949963,-0.058148094,-0.33010864,0.26418114,1.1014457,17.383957,-3.4767761,-34.88362,10.157798147034168,1.6274289509472921,1.1798075961121413,39.13000075592683
31/01/2020, 11:03:27,1.6214283,-2.6057813,9.683064,1.6203961,0.13949963,-0.058148094,-0.38586235,0.28191328,1.1023588,17.383957,-3.4767761,-34.88362,10.157798147034168,1.6274289509472921,1.2014823406785167,39.13000075592683
31/01/2020, 11:03:28,0.36883304,6.8114357,8.119117,0.18119821,0.4351583,0.348688,0.929958,-0.6097131,0.22262383,18.24031,-36.73117,2.1430054,10.604327014671629,0.5863265930558791,1.134078154237215,41.06677858020101
31/01/2020, 11:03:28,0.36883304,6.8114357,8.119117,0.18119821,0.4351583,0.348688,0.6774776,-0.30800343,0.20667267,18.24031,-36.73117,2.1430054,10.604327014671629,0.5863265930558791,0.7723701173123217,41.06677858020101
31/01/2020, 11:03:28,0.36883304,6.8114357,8.119117,0.18119821,0.4351583,0.348688,0.6774776,-0.30800343,0.20667267,18.55214,-37.052597,2.0106354,10.604327014671629,0.5863265930558791,0.7723701173123217,41.48637697374867
31/01/2020, 11:03:28,0.21794678,6.7324004,8.3179035,0.18119821,0.4351583,0.348688,0.6774776,-0.30800343,0.20667267,18.55214,-37.052597,2.0106354,10.703281512010449,0.5863265930558791,0.7723701173123217,41.48637697374867
31/01/2020, 11:03:28,0.26584718,6.631809,8.595725,0.18119821,0.4351583,0.348688,0.6774776,-0.30800343,0.20667267,18.55214,-37.052597,2.0106354,10.859928993515993,0.5863265930558791,0.7723701173123217,41.48637697374867
31/01/2020, 11:03:28,0.26584718,6.631809,8.595725,0.18119821,0.4351583,0.348688,-0.05638331,-0.06732988,0.6581197,18.55214,-37.052597,2.0106354,10.859928993515993,0.5863265930558791,0.6639532380306763,41.48637697374867
31/01/2020, 11:03:28,0.26584718,6.631809,8.595725,0.18119821,0.4351583,0.348688,-0.05638331,-0.06732988,0.6581197,18.43924,-37.583115,2.4310455,10.859928993515993,0.5863265930558791,0.6639532380306763,41.93335236577958
31/01/2020, 11:03:28,0.06945557,6.7371902,8.799302,0.18119821,0.4351583,0.348688,-0.05638331,-0.06732988,0.6581197,18.43924,-37.583115,2.4310455,11.082521101360102,0.5863265930558791,0.6639532380306763,41.93335236577958
31/01/2020, 11:03:28,0.19639161,6.502478,8.796907,0.18119821,0.4351583,0.348688,-0.05638331,-0.06732988,0.6581197,18.43924,-37.583115,2.4310455,10.941040702074343,0.5863265930558791,0.6639532380306763,41.93335236577958
31/01/2020, 11:03:28,0.19639161,6.502478,8.796907,0.18119821,0.4351583,0.348688,-0.008329123,-0.04441929,1.1180863,18.43924,-37.583115,2.4310455,10.941040702074343,0.5863265930558791,1.1189993328040908,41.93335236577958
31/01/2020, 11:03:28,0.19639161,6.502478,8.796907,0.18119821,0.4351583,0.348688,-0.008329123,-0.04441929,1.1180863,17.834152,-37.3591,2.7722168,10.941040702074343,0.5863265930558791,1.1189993328040908,41.49029464565618
31/01/2020, 11:03:28,0.19639161,6.502478,8.796907,-0.20975539,0.07841314,0.30959263,-0.008329123,-0.04441929,1.1180863,17.834152,-37.3591,2.7722168,10.941040702074343,0.3820910143517861,1.1189993328040908,41.49029464565618
31/01/2020, 11:03:28,0.7592212,6.2989016,8.813672,-0.20975539,0.07841314,0.30959263,-0.008329123,-0.04441929,1.1180863,17.834152,-37.3591,2.7722168,10.859714220154812,0.3820910143517861,1.1189993328040908,41.49029464565618
31/01/2020, 11:03:28,1.1567944,5.716912,9.15616,-0.20975539,0.07841314,0.30959263,-0.008329123,-0.04441929,1.1180863,17.834152,-37.3591,2.7722168,10.856174567319465,0.3820910143517861,1.1189993328040908,41.49029464565618
31/01/2020, 11:03:28,1.1567944,5.716912,9.15616,-0.20975539,0.07841314,0.30959263,-0.11256683,-0.19360495,1.5649109,17.834152,-37.3591,2.7722168,10.856174567319465,0.3820910143517861,1.5808542803124268,41.49029464565618
31/01/2020, 11:03:28,1.1567944,5.716912,9.15616,-0.20975539,0.07841314,0.30959263,-0.11256683,-0.19360495,1.5649109,17.979797,-38.212936,3.4207,10.856174567319465,0.3820910143517861,1.5808542803124268,42.36983373380958
31/01/2020, 11:03:28,0.9196875,5.5564456,9.196876,-0.20975539,0.07841314,0.30959263,-0.11256683,-0.19360495,1.5649109,17.979797,-38.212936,3.4207,10.784360578914182,0.3820910143517861,1.5808542803124268,42.36983373380958
31/01/2020, 11:03:28,0.74006104,5.712122,9.172925,-0.20975539,0.07841314,0.30959263,-0.11256683,-0.19360495,1.5649109,17.979797,-38.212936,3.4207,10.831370210985622,0.3820910143517861,1.5808542803124268,42.36983373380958
31/01/2020, 11:03:28,0.74006104,5.712122,9.172925,-0.20975539,0.07841314,0.30959263,-0.1926426,-0.27625847,1.7216034,17.979797,-38.212936,3.4207,10.831370210985622,0.3820910143517861,1.754237200970774,42.36983373380958
31/01/2020, 11:03:28,0.74006104,5.712122,9.172925,-0.20975539,0.07841314,0.30959263,-0.1926426,-0.27625847,1.7216034,17.742142,-38.10289,2.830658,10.831370210985622,0.3820910143517861,1.754237200970774,42.12631534908589
31/01/2020, 11:03:29,0.6011499,6.6413894,6.5791187,-0.113238715,-0.1390548,0.35846186,-0.3521122,-0.8157263,0.57269955,27.815979,-32.895615,-0.48266602,9.367723161541283,0.4008168510775558,1.0570606128508615,43.08228308621373
31/01/2020, 11:03:29,0.6706055,6.7970657,6.444998,-0.113238715,-0.1390548,0.35846186,-0.3521122,-0.8157263,0.57269955,27.815979,-32.895615,-0.48266602,9.390836533308606,0.4008168510775558,1.0570606128508615,43.08228308621373
31/01/2020, 11:03:29,0.6706055,6.7970657,6.444998,-0.113238715,-0.1390548,0.35846186,-0.18691486,-0.7252774,0.057192802,27.815979,-32.895615,-0.48266602,9.390836533308606,0.4008168510775558,0.7511561246152407,43.08228308621373
31/01/2020, 11:03:29,0.6706055,6.7970657,6.444998,-0.113238715,-0.1390548,0.35846186,-0.18691486,-0.7252774,0.057192802,27.43396,-32.99881,-0.39338684,9.390836533308606,0.4008168510775558,0.7511561246152407,42.91501324146714
31/01/2020, 11:03:29,0.5963599,6.8952613,6.4042826,-0.113238715,-0.1390548,0.35846186,-0.18691486,-0.7252774,0.057192802,27.43396,-32.99881,-0.39338684,9.429480823513243,0.4008168510775558,0.7511561246152407,42.91501324146714
31/01/2020, 11:03:29,0.5508545,6.9168167,6.3012967,-0.113238715,-0.1390548,0.35846186,-0.18691486,-0.7252774,0.057192802,27.43396,-32.99881,-0.39338684,9.37294694020039,0.4008168510775558,0.7511561246152407,42.91501324146714
31/01/2020, 11:03:29,0.5508545,6.9168167,6.3012967,-0.113238715,-0.1390548,0.35846186,0.036406755,-0.7030206,0.18655682,27.43396,-32.99881,-0.39338684,9.37294694020039,0.4008168510775558,0.7282628804645198,42.91501324146714
31/01/2020, 11:03:29,0.5508545,6.9168167,6.3012967,-0.113238715,-0.1390548,0.35846186,0.036406755,-0.7030206,0.18655682,26.88707,-33.315536,-0.2084961,9.37294694020039,0.4008168510775558,0.7282628804645198,42.8121823784663
31/01/2020, 11:03:29,0.54366946,6.830596,6.1887307,-0.113238715,-0.1390548,0.35846186,0.036406755,-0.7030206,0.18655682,26.88707,-33.315536,-0.2084961,9.233255421329282,0.4008168510775558,0.7282628804645198,42.8121823784663
31/01/2020, 11:03:29,0.51492923,6.6821046,6.1719656,-0.113238715,-0.1390548,0.35846186,0.036406755,-0.7030206,0.18655682,26.88707,-33.315536,-0.2084961,9.110918350640736,0.4008168510775558,0.7282628804645198,42.8121823784663
31/01/2020, 11:03:29,0.51492923,6.6821046,6.1719656,-0.113238715,-0.1390548,0.35846186,-0.20289648,-0.8222165,0.27090788,26.88707,-33.315536,-0.2084961,9.110918350640736,0.4008168510775558,0.8891558071074923,42.8121823784663
31/01/2020, 11:03:29,0.51492923,6.6821046,6.1719656,-0.113238715,-0.1390548,0.35846186,-0.20289648,-0.8222165,0.27090788,26.504425,-33.41858,-0.12030029,9.110918350640736,0.4008168510775558,0.8891558071074923,42.6532583573263
31/01/2020, 11:03:29,0.51492923,6.6821046,6.1719656,-0.34658915,-0.19769785,0.28271458,-0.20289648,-0.8222165,0.27090788,26.504425,-33.41858,-0.12030029,9.110918350640736,0.48901534525509666,0.8891558071074923,42.6532583573263
31/01/2020, 11:03:29,0.70174074,6.6174393,6.0282645,-0.34658915,-0.19769785,0.28271458,-0.20289648,-0.8222165,0.27090788,26.504425,-33.41858,-0.12030029,8.97902643469018,0.48901534525509666,0.8891558071074923,42.6532583573263
31/01/2020, 11:03:29,0.8981324,6.706055,5.8917484,-0.34658915,-0.19769785,0.28271458,-0.20289648,-0.8222165,0.27090788,26.504425,-33.41858,-0.12030029,8.97165075049781,0.48901534525509666,0.8891558071074923,42.6532583573263
31/01/2020, 11:03:29,0.8981324,6.706055,5.8917484,-0.34658915,-0.19769785,0.28271458,-0.25682944,-0.5398483,0.06885958,26.504425,-33.41858,-0.12030029,8.97165075049781,0.48901534525509666,0.6017800426876164,42.6532583573263
31/01/2020, 11:03:29,0.8981324,6.706055,5.8917484,-0.34658915,-0.19769785,0.28271458,-0.25682944,-0.5398483,0.06885958,26.786636,-33.412094,-0.4479828,8.97165075049781,0.48901534525509666,0.6017800426876164,42.82630743937803
31/01/2020, 11:03:29,1.0873389,6.725215,5.942044,-0.34658915,-0.19769785,0.28271458,-0.25682944,-0.5398483,0.06885958,26.786636,-33.412094,-0.4479828,9.039839958155344,0.48901534525509666,0.6017800426876164,42.82630743937803
31/01/2020, 11:03:29,1.1615845,6.488108,5.9228835,-0.34658915,-0.19769785,0.28271458,-0.25682944,-0.5398483,0.06885958,26.786636,-33.412094,-0.4479828,8.861454457021877,0.48901534525509666,0.6017800426876164,42.82630743937803
31/01/2020, 11:03:29,1.1615845,6.488108,5.9228835,-0.34658915,-0.19769785,0.28271458,-0.35496962,-0.5560403,-0.19674015,26.786636,-33.412094,-0.4479828,8.861454457021877,0.48901534525509666,0.6883973556092496,42.82630743937803
31/01/2020, 11:03:30,2.7590625,3.544629,8.643626,0.0064908285,0.29954627,0.23384538,1.3538213,-0.3152907,-0.30635643,20.58342,-31.841888,-19.982666,9.741103406868655,0.38007073391462215,1.4234094747587716,42.858954378184386
31/01/2020, 11:03:30,2.7590625,3.544629,8.643626,0.0064908285,0.29954627,0.23384538,0.93274665,-0.15969324,-0.4797535,20.58342,-31.841888,-19.982666,9.741103406868655,0.38007073391462215,1.0609814594716385,42.858954378184386
31/01/2020, 11:03:30,2.8524685,3.5853443,9.005274,0.0064908285,0.29954627,0.23384538,0.93274665,-0.15969324,-0.4797535,20.58342,-31.841888,-19.982666,10.103772904145632,0.38007073391462215,1.0609814594716385,42.858954378184386
31/01/2020, 11:03:30,2.8333082,3.6021094,9.280701,0.0064908285,0.29954627,0.23384538,0.93274665,-0.15969324,-0.4797535,20.58342,-31.841888,-19.982666,10.350566796516835,0.38007073391462215,1.0609814594716385,42.858954378184386
31/01/2020, 11:03:30,2.8333082,3.6021094,9.280701,0.0064908285,0.29954627,0.23384538,0.93274665,-0.15969324,-0.4797535,20.47931,-31.838333,-19.98912,10.350566796516835,0.38007073391462215,1.0609814594716385,42.80942062988683
31/01/2020, 11:03:30,2.8333082,3.6021094,9.280701,0.0064908285,0.29954627,0.23384538,0.7392874,-0.20555735,-0.18849087,20.47931,-31.838333,-19.98912,10.350566796516835,0.38007073391462215,0.7901445783653591,42.80942062988683
31/01/2020, 11:03:30,2.8931837,3.6308498,9.455538,0.0064908285,0.29954627,0.23384538,0.7392874,-0.20555735,-0.18849087,20.47931,-31.838333,-19.98912,10.533792172303544,0.38007073391462215,0.7901445783653591,42.80942062988683
31/01/2020, 11:03:30,2.9003687,3.6140847,9.625584,0.0064908285,0.29954627,0.23384538,0.7392874,-0.20555735,-0.18849087,20.47931,-31.838333,-19.98912,10.682958742141816,0.38007073391462215,0.7901445783653591,42.80942062988683
31/01/2020, 11:03:30,2.9003687,3.6140847,9.625584,0.0064908285,0.29954627,0.23384538,0.7392874,-0.20555735,-0.18849087,19.594345,-32.375412,-19.57724,10.682958742141816,0.38007073391462215,0.7901445783653591,42.60720580603284
31/01/2020, 11:03:30,2.9003687,3.6140847,9.625584,0.0064908285,0.29954627,0.23384538,0.84538376,-0.14434814,0.43939018,19.594345,-32.375412,-19.57724,10.682958742141816,0.38007073391462215,0.9636253559223386,42.60720580603284
31/01/2020, 11:03:30,2.9841945,3.7338357,9.479487,0.0064908285,0.29954627,0.23384538,0.84538376,-0.14434814,0.43939018,19.594345,-32.375412,-19.57724,10.616384867694258,0.38007073391462215,0.9636253559223386,42.60720580603284
31/01/2020, 11:03:30,3.06802,3.657195,9.405242,0.0064908285,0.29954627,0.23384538,0.84538376,-0.14434814,0.43939018,19.594345,-32.375412,-19.57724,10.54734088507689,0.38007073391462215,0.9636253559223386,42.60720580603284
31/01/2020, 11:03:30,3.06802,3.657195,9.405242,0.0064908285,0.29954627,0.23384538,0.84538376,-0.14434814,0.43939018,19.764221,-32.378815,-19.92035,10.54734088507689,0.38007073391462215,0.9636253559223386,42.846614680846805
31/01/2020, 11:03:30,3.06802,3.657195,9.405242,0.0064908285,0.29954627,0.23384538,0.9544512,-0.14792228,0.78132534,19.764221,-32.378815,-19.92035,10.54734088507689,0.38007073391462215,1.2423072836801925,42.846614680846805
31/01/2020, 11:03:30,3.0776002,3.5039136,9.419612,0.0064908285,0.29954627,0.23384538,0.9544512,-0.14792228,0.78132534,19.764221,-32.378815,-19.92035,10.510857385236369,0.38007073391462215,1.2423072836801925,42.846614680846805
31/01/2020, 11:03:30,3.1302907,3.3338673,9.491463,0.0064908285,0.29954627,0.23384538,0.9544512,-0.14792228,0.78132534,19.764221,-32.378815,-19.92035,10.53571334735238,0.38007073391462215,1.2423072836801925,42.846614680846805
31/01/2020, 11:03:30,3.1302907,3.3338673,9.491463,0.0064908285,0.29954627,0.23384538,0.9544512,-0.14792228,0.78132534,19.73854,-33.024826,-19.955765,10.53571334735238,0.38007073391462215,1.2423072836801925,43.34145440757924
31/01/2020, 11:03:30,3.1302907,3.3338673,9.491463,0.3388014,0.4143889,0.01026879,0.9544512,-0.14792228,0.78132534,19.73854,-33.024826,-19.955765,10.53571334735238,0.5353596943606984,1.2423072836801925,43.34145440757924
31/01/2020, 11:03:30,3.1302907,3.3338673,9.491463,0.3388014,0.4143889,0.01026879,1.167566,-0.14090371,0.56662464,19.73854,-33.024826,-19.955765,10.53571334735238,0.5353596943606984,1.3054223717257747,43.34145440757924
31/01/2020, 11:03:30,3.1566358,3.2739918,9.517808,0.3388014,0.4143889,0.01026879,1.167566,-0.14090371,0.56662464,19.73854,-33.024826,-19.955765,10.548556306944617,0.5353596943606984,1.3054223717257747,43.34145440757924
31/01/2020, 11:03:31,2.4453151,7.223379,6.6246243,0.027260238,-0.09995945,-0.21575126,1.0683235,0.6563177,-0.23389053,27.074188,-31.884247,-11.626221,10.10160475682518,0.2393399637512131,1.2754500401624151,43.414120651634015
31/01/2020, 11:03:31,2.4453151,7.223379,6.6246243,0.027260238,-0.09995945,-0.21575126,0.91619277,0.67067385,-0.30573988,27.074188,-31.884247,-11.626221,10.10160475682518,0.2393399637512131,1.175878171881309,43.414120651634015
31/01/2020, 11:03:31,2.4740553,7.3718705,6.615044,0.027260238,-0.09995945,-0.21575126,0.91619277,0.67067385,-0.30573988,27.074188,-31.884247,-11.626221,10.209027043689044,0.2393399637512131,1.175878171881309,43.414120651634015
31/01/2020, 11:03:31,2.3950195,7.3622904,6.6605496,0.027260238,-0.09995945,-0.21575126,0.91619277,0.67067385,-0.30573988,27.074188,-31.884247,-11.626221,10.212852674217313,0.2393399637512131,1.175878171881309,43.414120651634015
31/01/2020, 11:03:31,2.3950195,7.3622904,6.6605496,0.027260238,-0.09995945,-0.21575126,0.91619277,0.67067385,-0.30573988,27.125137,-31.1185,-12.040726,10.212852674217313,0.2393399637512131,1.175878171881309,43.00131600025189
31/01/2020, 11:03:31,2.3950195,7.3622904,6.6605496,0.027260238,-0.09995945,-0.21575126,1.184379,0.5344944,-0.4412341,27.125137,-31.1185,-12.040726,10.212852674217313,0.2393399637512131,1.3722701545591334,43.00131600025189
31/01/2020, 11:03:31,2.2776637,7.30481,6.6246243,0.027260238,-0.09995945,-0.21575126,1.184379,0.5344944,-0.4412341,27.125137,-31.1185,-12.040726,10.120950957043554,0.2393399637512131,1.3722701545591334,43.00131600025189
31/01/2020, 11:03:31,2.1746778,7.189849,6.71803,0.027260238,-0.09995945,-0.21575126,1.184379,0.5344944,-0.4412341,27.125137,-31.1185,-12.040726,10.077453929721111,0.2393399637512131,1.3722701545591334,43.00131600025189
31/01/2020, 11:03:31,2.1746778,7.189849,6.71803,0.027260238,-0.09995945,-0.21575126,1.184379,0.5344944,-0.4412341,27.871277,-30.72078,-12.319504,10.077453929721111,0.2393399637512131,1.3722701545591334,43.27059665812455
31/01/2020, 11:03:31,2.1722827,7.072493,6.715635,0.027260238,-0.09995945,-0.21575126,1.184379,0.5344944,-0.4412341,27.871277,-30.72078,-12.319504,9.991932820971874,0.2393399637512131,1.3722701545591334,43.27059665812455
31/01/2020, 11:03:31,2.2177882,6.9934573,6.638994,0.027260238,-0.09995945,-0.21575126,1.184379,0.5344944,-0.4412341,27.871277,-30.72078,-12.319504,9.894608332230801,0.2393399637512131,1.3722701545591334,43.27059665812455
31/01/2020, 11:03:31,2.2177882,6.9934573,6.638994,0.027260238,-0.09995945,-0.21575126,1.3158816,0.68801403,-0.4658227,27.871277,-30.72078,-12.319504,9.894608332230801,0.2393399637512131,1.556245000689034,43.27059665812455
31/01/2020, 11:03:31,2.2177882,6.9934573,6.638994,0.027260238,-0.09995945,-0.21575126,1.3158816,0.68801403,-0.4658227,27.982727,-30.94307,-11.633865,9.894608332230801,0.2393399637512131,1.556245000689034,43.31112309573049
31/01/2020, 11:03:31,2.2177882,6.9934573,6.638994,0.027260238,-0.09995945,-0.21575126,1.0955032,0.6098347,-0.4417143,27.982727,-30.94307,-11.633865,9.894608332230801,0.2393399637512131,1.3293370988969964,43.31112309573049
31/01/2020, 11:03:31,2.179468,6.950347,6.6653395,0.027260238,-0.09995945,-0.21575126,1.0955032,0.6098347,-0.4417143,27.982727,-30.94307,-11.633865,9.873406369023193,0.2393399637512131,1.3293370988969964,43.31112309573049
31/01/2020, 11:03:31,2.2441335,6.9000516,6.595884,0.027260238,-0.09995945,-0.21575126,1.0955032,0.6098347,-0.4417143,27.982727,-30.94307,-11.633865,9.80573968411496,0.2393399637512131,1.3293370988969964,43.31112309573049
31/01/2020, 11:03:31,2.2441335,6.9000516,6.595884,0.027260238,-0.09995945,-0.21575126,1.0955032,0.6098347,-0.4417143,27.881256,-30.940247,-11.986176,9.80573968411496,0.2393399637512131,1.3293370988969964,43.339724323917004
31/01/2020, 11:03:31,2.2441335,6.9000516,6.595884,-0.048487026,-0.09995945,0.13488525,1.0955032,0.6098347,-0.4417143,27.881256,-30.940247,-11.986176,9.80573968411496,0.17474814457569382,1.3293370988969964,43.339724323917004
31/01/2020, 11:03:31,2.2441335,6.9000516,6.595884,-0.048487026,-0.09995945,0.13488525,0.95891464,0.3708291,-0.33898258,27.881256,-30.940247,-11.986176,9.80573968411496,0.17474814457569382,1.0825620991399967,43.339724323917004
31/01/2020, 11:03:31,2.203418,6.7635355,6.6749196,-0.048487026,-0.09995945,0.13488525,0.95891464,0.3708291,-0.33898258,27.881256,-30.940247,-11.986176,9.75474321270144,0.17474814457569382,1.0825620991399967,43.339724323917004
31/01/2020, 11:03:32,3.535049,6.0186844,7.053333,0.13355075,0.02587875,0.19230656,0.33194184,-0.24522877,-0.31018305,23.142517,-34.927322,-12.074966,9.923237202698719,0.23555747985424239,0.5162713036134381,43.603884697689224
31/01/2020, 11:03:32,4.028423,6.454578,7.0341725,0.13355075,0.02587875,0.19230656,0.33194184,-0.24522877,-0.31018305,23.142517,-34.927322,-12.074966,10.361918255343884,0.23555747985424239,0.5162713036134381,43.603884697689224
31/01/2020, 11:03:32,4.2056546,7.5299416,6.715635,0.13355075,0.02587875,0.19230656,0.33194184,-0.24522877,-0.31018305,23.142517,-34.927322,-12.074966,10.931024734466227,0.23555747985424239,0.5162713036134381,43.603884697689224
31/01/2020, 11:03:32,4.2056546,7.5299416,6.715635,0.13355075,0.02587875,0.19230656,0.33194184,-0.24522877,-0.31018305,22.934738,-34.815125,-11.959625,10.931024734466227,0.23555747985424239,0.5162713036134381,43.37196957917519
31/01/2020, 11:03:32,4.2056546,7.5299416,6.715635,0.027260238,0.2396815,-0.19986877,0.33194184,-0.24522877,-0.31018305,22.934738,-34.815125,-11.959625,10.931024734466227,0.3132696367403007,0.5162713036134381,43.37196957917519
31/01/2020, 11:03:32,1.7172291,6.339617,6.473738,0.027260238,0.2396815,-0.19986877,0.33194184,-0.24522877,-0.31018305,22.934738,-34.815125,-11.959625,9.222196210022343,0.3132696367403007,0.5162713036134381,43.37196957917519
31/01/2020, 11:03:32,0.7927515,5.53489,6.840176,0.027260238,0.2396815,-0.19986877,0.33194184,-0.24522877,-0.31018305,22.934738,-34.815125,-11.959625,8.83467448911739,0.3132696367403007,0.5162713036134381,43.37196957917519
31/01/2020, 11:03:32,0.7927515,5.53489,6.840176,0.027260238,0.2396815,-0.19986877,1.1898727,-0.45405197,0.07085657,22.934738,-34.815125,-11.959625,8.83467448911739,0.3132696367403007,1.2755316491115343,43.37196957917519
31/01/2020, 11:03:32,0.7927515,5.53489,6.840176,0.027260238,0.2396815,-0.19986877,1.1898727,-0.45405197,0.07085657,22.49121,-35.13336,-11.766022,8.83467448911739,0.3132696367403007,1.2755316491115343,43.3433610749505
31/01/2020, 11:03:32,1.5807129,6.0019193,6.926397,0.027260238,0.2396815,-0.19986877,1.1898727,-0.45405197,0.07085657,22.49121,-35.13336,-11.766022,9.300358139085922,0.3132696367403007,1.2755316491115343,43.3433610749505
31/01/2020, 11:03:32,2.7446926,6.6294146,6.9048414,0.027260238,0.2396815,-0.19986877,1.1898727,-0.45405197,0.07085657,22.49121,-35.13336,-11.766022,9.957876768441032,0.3132696367403007,1.2755316491115343,43.3433610749505
31/01/2020, 11:03:32,2.7446926,6.6294146,6.9048414,0.027260238,0.2396815,-0.19986877,1.8944366,1.0322709,-0.2557335,22.49121,-35.13336,-11.766022,9.957876768441032,0.3132696367403007,2.1725268397226887,43.3433610749505
31/01/2020, 11:03:32,2.7446926,6.6294146,6.9048414,0.027260238,0.2396815,-0.19986877,1.8944366,1.0322709,-0.2557335,22.57489,-35.02594,-11.640289,9.957876768441032,0.3132696367403007,2.1725268397226887,43.26590422730364
31/01/2020, 11:03:32,3.1207106,6.701265,6.9311867,0.027260238,0.2396815,-0.19986877,1.8944366,1.0322709,-0.2557335,22.57489,-35.02594,-11.640289,10.133466048594817,0.3132696367403007,2.1725268397226887,43.26590422730364
31/01/2020, 11:03:32,2.806963,6.3156667,7.0341725,0.027260238,0.2396815,-0.19986877,1.8944366,1.0322709,-0.2557335,22.57489,-35.02594,-11.640289,9.86135233656475,0.3132696367403007,2.1725268397226887,43.26590422730364
31/01/2020, 11:03:32,2.806963,6.3156667,7.0341725,0.027260238,0.2396815,-0.19986877,-0.57124424,-0.16088676,-0.5012431,22.57489,-35.02594,-11.640289,9.86135233656475,0.3132696367403007,0.7768199227089969,43.26590422730364
31/01/2020, 11:03:32,2.806963,6.3156667,7.0341725,0.027260238,0.2396815,-0.19986877,-0.57124424,-0.16088676,-0.5012431,22.649948,-34.80905,-11.621429,9.86135233656475,0.3132696367403007,0.7768199227089969,43.12479379002806
31/01/2020, 11:03:32,2.5004005,6.11688,7.1203933,0.027260238,0.2396815,-0.19986877,-0.57124424,-0.16088676,-0.5012431,22.649948,-34.80905,-11.621429,9.71433083054304,0.3132696367403007,0.7768199227089969,43.12479379002806
31/01/2020, 11:03:32,2.4093897,6.236631,7.151529,0.027260238,0.2396815,-0.19986877,-0.57124424,-0.16088676,-0.5012431,22.649948,-34.80905,-11.621429,9.790050498516871,0.3132696367403007,0.7768199227089969,43.12479379002806
31/01/2020, 11:03:32,2.4093897,6.236631,7.151529,0.027260238,0.2396815,-0.19986877,-0.6826365,-0.4942813,-0.06083584,22.649948,-34.80905,-11.621429,9.790050498516871,0.3132696367403007,0.8449896952785411,43.12479379002806
31/01/2020, 11:03:33,1.4082716,6.471343,5.980364,1.0083095,0.25800744,0.110450655,-1.6946335,-0.22643185,-0.9019861,14.57637,-40.28711,-8.189743,8.923354819661334,1.0466399568878804,1.9330372449569402,43.61873040608808
31/01/2020, 11:03:33,1.343606,6.8880763,6.080955,1.0083095,0.25800744,0.110450655,-1.6946335,-0.22643185,-0.9019861,14.57637,-40.28711,-8.189743,9.285951018511673,1.0466399568878804,1.9330372449569402,43.61873040608808
31/01/2020, 11:03:33,1.343606,6.8880763,6.080955,1.0083095,0.25800744,0.110450655,-1.6946335,-0.22643185,-0.9019861,14.866638,-40.80168,-6.635971,9.285951018511673,1.0466399568878804,1.9330372449569402,43.92983334428345
31/01/2020, 11:03:33,1.343606,6.8880763,6.080955,1.0083095,0.25800744,0.110450655,-1.6946335,-0.22643185,-0.9019861,14.849579,-40.407608,-5.503937,9.285951018511673,1.0466399568878804,1.9330372449569402,43.40020851413446
31/01/2020, 11:03:33,1.343606,6.8880763,6.080955,1.0083095,0.25800744,0.110450655,-1.3649721,-0.5393119,-0.52466154,14.849579,-40.407608,-5.503937,9.285951018511673,1.0466399568878804,1.5586134595610832,43.40020851413446
31/01/2020, 11:03:33,1.3699512,7.070098,6.447393,1.0083095,0.25800744,0.110450655,-1.3649721,-0.5393119,-0.52466154,14.849579,-40.407608,-5.503937,9.666019180437937,1.0466399568878804,1.5586134595610832,43.40020851413446
31/01/2020, 11:03:33,1.4849122,7.0437527,6.6365995,1.0083095,0.25800744,0.110450655,-1.3649721,-0.5393119,-0.52466154,14.849579,-40.407608,-5.503937,9.791009613830918,1.0466399568878804,1.5586134595610832,43.40020851413446
31/01/2020, 11:03:33,1.4849122,7.0437527,6.6365995,1.0083095,0.25800744,0.110450655,-1.3649721,-0.5393119,-0.52466154,15.001205,-40.913223,-5.1162567,9.791009613830918,1.0466399568878804,1.5586134595610832,43.876008086517544
31/01/2020, 11:03:33,1.4849122,7.0437527,6.6365995,0.47074825,-0.10240291,-0.10701729,-1.3649721,-0.5393119,-0.52466154,15.001205,-40.913223,-5.1162567,9.791009613830918,0.49350072752295554,1.5586134595610832,43.876008086517544
31/01/2020, 11:03:33,1.4849122,7.0437527,6.6365995,0.47074825,-0.10240291,-0.10701729,-1.4477158,0.05808115,-0.37686586,15.001205,-40.913223,-5.1162567,9.791009613830918,0.49350072752295554,1.4970912527128855,43.876008086517544
31/01/2020, 11:03:33,1.6693287,6.8114357,6.947952,0.47074825,-0.10240291,-0.10701729,-1.4477158,0.05808115,-0.37686586,15.001205,-40.913223,-5.1162567,9.871998211554114,0.49350072752295554,1.4970912527128855,43.876008086517544
31/01/2020, 11:03:33,1.84177,6.430628,7.350315,0.47074825,-0.10240291,-0.10701729,-1.4477158,0.05808115,-0.37686586,15.001205,-40.913223,-5.1162567,9.93842156004364,0.49350072752295554,1.4970912527128855,43.876008086517544
31/01/2020, 11:03:33,1.84177,6.430628,7.350315,0.47074825,-0.10240291,-0.10701729,-1.4477158,0.05808115,-0.37686586,14.533829,-41.062607,-4.811157,9.93842156004364,0.49350072752295554,1.4970912527128855,43.82370465541459
31/01/2020, 11:03:33,1.84177,6.430628,7.350315,0.47074825,-0.10240291,-0.10701729,-1.2751492,0.13968801,0.24398375,14.533829,-41.062607,-4.811157,9.93842156004364,0.49350072752295554,1.3057742372571635,43.82370465541459
31/01/2020, 11:03:33,1.9208057,6.119275,8.056846,0.47074825,-0.10240291,-0.10701729,-1.2751492,0.13968801,0.24398375,14.533829,-41.062607,-4.811157,10.297950487502426,0.49350072752295554,1.3057742372571635,43.82370465541459
31/01/2020, 11:03:33,1.9567311,5.5732107,8.818462,0.47074825,-0.10240291,-0.10701729,-1.2751492,0.13968801,0.24398375,14.533829,-41.062607,-4.811157,10.613894328397896,0.49350072752295554,1.3057742372571635,43.82370465541459
31/01/2020, 11:03:33,1.9567311,5.5732107,8.818462,0.47074825,-0.10240291,-0.10701729,-1.2751492,0.13968801,0.24398375,14.35434,-40.932663,-3.1665192,10.613894328397896,0.49350072752295554,1.3057742372571635,43.492031526211996
31/01/2020, 11:03:33,1.9567311,5.5732107,8.818462,0.47074825,-0.10240291,-0.10701729,-0.9011538,-0.51198673,0.9920511,14.35434,-40.932663,-3.1665192,10.613894328397896,0.49350072752295554,1.4347034621951418,43.492031526211996
31/01/2020, 11:03:33,1.6357985,5.46304,9.314231,0.47074825,-0.10240291,-0.10701729,-0.9011538,-0.51198673,0.9920511,14.35434,-40.932663,-3.1665192,10.92133411582639,0.49350072752295554,1.4347034621951418,43.492031526211996
31/01/2020, 11:03:33,1.3819263,5.599556,9.402847,0.47074825,-0.10240291,-0.10701729,-0.9011538,-0.51198673,0.9920511,14.35434,-40.932663,-3.1665192,11.030788027422249,0.49350072752295554,1.4347034621951418,43.492031526211996
31/01/2020, 11:03:34,1.9136207,8.696317,5.9013286,-0.510301,-0.11339848,0.3279186,0.47320747,-0.23869991,1.036519,27.740143,-34.96472,-3.147873,10.682394278340059,0.6170874493675649,1.1641626621518373,44.743227307475514
31/01/2020, 11:03:34,1.9136207,8.696317,5.9013286,-0.510301,-0.11339848,0.3279186,0.35015643,0.023058891,1.074935,27.740143,-34.96472,-3.147873,10.682394278340059,0.6170874493675649,1.1307636368415523,44.743227307475514
31/01/2020, 11:03:34,1.9136207,8.696317,5.9013286,-0.510301,-0.11339848,0.3279186,0.20231307,0.48929977,1.190392,27.740143,-34.96472,-3.147873,10.682394278340059,0.6170874493675649,1.3028346021239818,44.743227307475514
31/01/2020, 11:03:34,1.9136207,8.696317,5.9013286,-0.510301,-0.11339848,0.3279186,0.20231307,0.48929977,1.190392,27.974869,-34.538223,-3.4759064,10.682394278340059,0.6170874493675649,1.3028346021239818,44.58210486806005
31/01/2020, 11:03:34,1.9136207,8.696317,5.9013286,-0.510301,-0.11339848,0.3279186,0.20231307,0.48929977,1.190392,27.471817,-34.455063,-4.3272552,10.682394278340059,0.6170874493675649,1.3028346021239818,44.278405857690814
31/01/2020, 11:03:34,1.9136207,8.696317,5.9013286,-0.510301,-0.11339848,0.3279186,0.24291182,0.63138866,1.0557194,27.471817,-34.455063,-4.3272552,10.682394278340059,0.6170874493675649,1.2538744736041523,44.278405857690814
31/01/2020, 11:03:34,1.9136207,8.696317,5.9013286,-0.510301,-0.11339848,0.3279186,0.24291182,0.63138866,1.0557194,27.30365,-34.735474,-3.875946,10.682394278340059,0.6170874493675649,1.2538744736041523,44.351610841419436
31/01/2020, 11:03:34,3.3697927,9.206455,5.616321,-0.510301,-0.11339848,0.3279186,0.24291182,0.63138866,1.0557194,27.30365,-34.735474,-3.875946,11.298556691268676,0.6170874493675649,1.2538744736041523,44.351610841419436
31/01/2020, 11:03:34,3.3697927,9.206455,5.616321,-0.510301,-0.11339848,0.3279186,0.18636179,0.6938505,0.9696598,27.30365,-34.735474,-3.875946,11.298556691268676,0.6170874493675649,1.2068137366601563,44.351610841419436
31/01/2020, 11:03:34,3.3697927,9.206455,5.616321,-0.510301,-0.11339848,0.3279186,0.18636179,0.6938505,0.9696598,27.564636,-34.545166,-4.7798004,11.298556691268676,0.6170874493675649,1.2068137366601563,44.45249326610118
31/01/2020, 11:03:34,3.3697927,9.206455,5.616321,-0.510301,-0.11339848,0.3279186,1.1921433,0.66057396,-0.19677925,27.564636,-34.545166,-4.7798004,11.298556691268676,0.6170874493675649,1.3770569078033317,44.45249326610118
31/01/2020, 11:03:34,3.3697927,9.206455,5.616321,-0.510301,-0.11339848,0.3279186,1.1921433,0.66057396,-0.19677925,27.56697,-34.607162,-4.6647797,11.298556691268676,0.6170874493675649,1.3770569078033317,44.489928572587225
31/01/2020, 11:03:34,3.3697927,9.206455,5.616321,-0.510301,-0.11339848,0.3279186,1.4769096,1.0428495,0.5232496,27.56697,-34.607162,-4.6647797,11.298556691268676,0.6170874493675649,1.8821762438816347,44.489928572587225
31/01/2020, 11:03:34,3.3697927,9.206455,5.616321,-0.510301,-0.11339848,0.3279186,1.4769096,1.0428495,0.5232496,27.560928,-34.564926,-4.672409,11.298556691268676,0.6170874493675649,1.8821762438816347,44.45413700888011
31/01/2020, 11:03:34,3.3697927,9.206455,5.616321,-0.39545834,0.32398087,0.3572401,1.4769096,1.0428495,0.5232496,27.560928,-34.564926,-4.672409,11.298556691268676,0.6236757158761955,1.8821762438816347,44.45413700888011
31/01/2020, 11:03:34,3.3697927,9.206455,5.616321,-0.39545834,0.32398087,0.3572401,1.4740355,0.8153057,1.1406765,27.560928,-34.564926,-4.672409,11.298556691268676,0.6236757158761955,2.0343664699732678,44.45413700888011
31/01/2020, 11:03:34,3.3697927,9.206455,5.616321,-0.39545834,0.32398087,0.3572401,1.4740355,0.8153057,1.1406765,27.13704,-34.469284,-5.1674805,11.298556691268676,0.6236757158761955,2.0343664699732678,44.17299280719521
31/01/2020, 11:03:34,2.078877,8.892708,6.710845,-0.39545834,0.32398087,0.3572401,1.4740355,0.8153057,1.1406765,27.13704,-34.469284,-5.1674805,11.3330235351892,0.6236757158761955,2.0343664699732678,44.17299280719521
31/01/2020, 11:03:34,2.078877,8.892708,6.710845,-0.39545834,0.32398087,0.3572401,1.3825312,0.9822445,1.1983666,27.13704,-34.469284,-5.1674805,11.3330235351892,0.6236757158761955,2.076602820729376,44.17299280719521
31/01/2020, 11:03:34,2.078877,8.892708,6.710845,-0.39545834,0.32398087,0.3572401,1.3825312,0.9822445,1.1983666,27.133942,-34.4478,-5.1842346,11.3330235351892,0.6236757158761955,2.076602820729376,44.15629039046215
31/01/2020, 11:03:35,3.1278956,7.903565,5.853428,-0.55306154,-0.027877372,0.47208273,0.6638489,0.14729738,0.16723824,26.907074,-35.263153,-8.057312,10.320498412127927,0.727678725909201,0.7002574367222507,45.08215690938953
31/01/2020, 11:03:35,3.295547,7.951465,5.829478,-0.55306154,-0.027877372,0.47208273,0.6638489,0.14729738,0.16723824,26.907074,-35.263153,-8.057312,10.395635577775868,0.727678725909201,0.7002574367222507,45.08215690938953
31/01/2020, 11:03:35,3.3745828,7.9634404,5.513335,-0.55306154,-0.027877372,0.47208273,0.6638489,0.14729738,0.16723824,26.907074,-35.263153,-8.057312,10.25675667477124,0.727678725909201,0.7002574367222507,45.08215690938953
31/01/2020, 11:03:35,3.3745828,7.9634404,5.513335,-0.55306154,-0.027877372,0.47208273,0.6638489,0.14729738,0.16723824,26.1736,-35.064224,-8.45018,10.25675667477124,0.727678725909201,0.7002574367222507,44.564140988655744
31/01/2020, 11:03:35,3.412903,8.097562,5.230723,-0.55306154,-0.027877372,0.47208273,0.6638489,0.14729738,0.16723824,26.1736,-35.064224,-8.45018,10.226381430429724,0.727678725909201,0.7002574367222507,44.564140988655744
31/01/2020, 11:03:35,3.539839,8.150251,5.031936,-0.55306154,-0.027877372,0.47208273,0.6638489,0.14729738,0.16723824,26.1736,-35.064224,-8.45018,10.211632565636867,0.727678725909201,0.7002574367222507,44.564140988655744
31/01/2020, 11:03:35,3.539839,8.150251,5.031936,-0.55306154,-0.027877372,0.47208273,0.64512897,0.11474228,0.51093817,26.1736,-35.064224,-8.45018,10.211632565636867,0.727678725909201,0.8309121395511749,44.564140988655744
31/01/2020, 11:03:35,3.539839,8.150251,5.031936,-0.55306154,-0.027877372,0.47208273,0.64512897,0.11474228,0.51093817,25.87793,-35.51631,-7.8793488,10.211632565636867,0.727678725909201,0.8309121395511749,44.64481800403156
31/01/2020, 11:03:35,3.539839,8.150251,5.031936,-0.55306154,-0.027877372,0.47208273,0.7541895,0.13682222,0.47877598,25.87793,-35.51631,-7.8793488,10.211632565636867,0.727678725909201,0.9037414159081895,44.64481800403156
31/01/2020, 11:03:35,3.5733693,8.226892,4.893025,-0.55306154,-0.027877372,0.47208273,0.7541895,0.13682222,0.47877598,25.87793,-35.51631,-7.8793488,10.217260910702608,0.727678725909201,0.9037414159081895,44.64481800403156
31/01/2020, 11:03:35,3.652405,8.111932,4.742139,-0.55306154,-0.027877372,0.47208273,0.7541895,0.13682222,0.47877598,25.87793,-35.51631,-7.8793488,10.081239060255728,0.727678725909201,0.9037414159081895,44.64481800403156
31/01/2020, 11:03:35,3.652405,8.111932,4.742139,-0.55306154,-0.027877372,0.47208273,0.7541895,0.13682222,0.47877598,25.487411,-35.586655,-8.13472,10.081239060255728,0.727678725909201,0.9037414159081895,44.521812654540796
31/01/2020, 11:03:35,3.652405,8.111932,4.742139,-1.030758,-0.4102789,0.5417214,0.7541895,0.13682222,0.47877598,25.487411,-35.586655,-8.13472,10.081239060255728,1.234606393305258,0.9037414159081895,44.521812654540796
31/01/2020, 11:03:35,3.6092947,7.8604546,4.8020144,-1.030758,-0.4102789,0.5417214,0.7541895,0.13682222,0.47877598,25.487411,-35.586655,-8.13472,9.89308321996377,1.234606393305258,0.9037414159081895,44.521812654540796
31/01/2020, 11:03:35,3.6763551,7.585027,4.90979,-1.030758,-0.4102789,0.5417214,0.7541895,0.13682222,0.47877598,25.487411,-35.586655,-8.13472,9.754704665834895,1.234606393305258,0.9037414159081895,44.521812654540796
31/01/2020, 11:03:35,3.6763551,7.585027,4.90979,-1.030758,-0.4102789,0.5417214,0.74441504,0.3872404,-0.20851278,25.487411,-35.586655,-8.13472,9.754704665834895,1.234606393305258,0.8646308314064944,44.521812654540796
31/01/2020, 11:03:35,3.6763551,7.585027,4.90979,-1.030758,-0.4102789,0.5417214,0.74441504,0.3872404,-0.20851278,25.106155,-35.25276,-9.813293,9.754704665834895,1.234606393305258,0.8646308314064944,44.37766312710478
31/01/2020, 11:03:35,3.6763551,7.585027,4.90979,-1.030758,-0.4102789,0.5417214,0.7704568,0.64650106,-0.6599941,25.106155,-35.25276,-9.813293,9.754704665834895,1.234606393305258,1.2029794421936963,44.37766312710478
31/01/2020, 11:03:35,3.9254372,7.2832546,5.0558863,-1.030758,-0.4102789,0.5417214,0.7704568,0.64650106,-0.6599941,25.106155,-35.25276,-9.813293,9.696228193267922,1.234606393305258,1.2029794421936963,44.37766312710478
31/01/2020, 11:03:35,4.3325906,6.950347,5.151687,-1.030758,-0.4102789,0.5417214,0.7704568,0.64650106,-0.6599941,25.106155,-35.25276,-9.813293,9.675667638766724,1.234606393305258,1.2029794421936963,44.37766312710478
31/01/2020, 11:03:36,0.3544629,5.1061816,6.720425,0.7175377,0.47914058,0.08479432,-0.7612213,-0.13408041,-0.0900383,17.571564,-38.801178,-14.908936,8.447653437943021,0.86696373879819,0.7781659871310411,45.12834611695901
31/01/2020, 11:03:36,0.3544629,5.1061816,6.720425,0.7175377,0.47914058,0.08479432,-0.7612213,-0.13408041,-0.0900383,17.688416,-39.95468,-13.464676,8.447653437943021,0.86696373879819,0.7781659871310411,45.72257764544782
31/01/2020, 11:03:36,0.25866213,5.257068,6.8928666,0.7175377,0.47914058,0.08479432,-0.7612213,-0.13408041,-0.0900383,17.688416,-39.95468,-13.464676,8.672674433693865,0.86696373879819,0.7781659871310411,45.72257764544782
31/01/2020, 11:03:36,0.21794678,4.9481106,7.5035963,0.7175377,0.47914058,0.08479432,-0.7612213,-0.13408041,-0.0900383,17.688416,-39.95468,-13.464676,8.990842932535374,0.86696373879819,0.7781659871310411,45.72257764544782
31/01/2020, 11:03:36,0.21794678,4.9481106,7.5035963,0.7175377,0.47914058,0.08479432,-0.30209327,-0.3536458,-0.597137,17.688416,-39.95468,-13.464676,8.990842932535374,0.86696373879819,0.7569004302419894,45.72257764544782
31/01/2020, 11:03:36,0.21794678,4.9481106,7.5035963,0.7175377,0.47914058,0.08479432,-0.30209327,-0.3536458,-0.597137,18.13826,-40.108047,-12.322205,8.990842932535374,0.86696373879819,0.7569004302419894,45.710925070433206
31/01/2020, 11:03:36,0.28979737,4.533772,8.176597,0.7175377,0.47914058,0.08479432,-0.30209327,-0.3536458,-0.597137,18.13826,-40.108047,-12.322205,9.353919158544802,0.86696373879819,0.7569004302419894,45.710925070433206
31/01/2020, 11:03:36,0.364043,4.1050634,8.52627,0.7175377,0.47914058,0.08479432,-0.30209327,-0.3536458,-0.597137,18.13826,-40.108047,-12.322205,9.470023852234618,0.86696373879819,0.7569004302419894,45.710925070433206
31/01/2020, 11:03:36,0.364043,4.1050634,8.52627,0.7175377,0.47914058,0.08479432,-0.53009427,0.34001017,-1.8022218,18.13826,-40.108047,-12.322205,9.470023852234618,0.86696373879819,1.9090862134434958,45.710925070433206
31/01/2020, 11:03:36,0.364043,4.1050634,8.52627,0.7175377,0.47914058,0.08479432,-0.53009427,0.34001017,-1.8022218,17.738724,-40.36081,-12.217773,9.470023852234618,0.86696373879819,1.9090862134434958,45.74856541669615
31/01/2020, 11:03:36,0.55803955,3.8583767,8.576566,0.7175377,0.47914058,0.08479432,-0.53009427,0.34001017,-1.8022218,17.738724,-40.36081,-12.217773,9.42103811418155,0.86696373879819,1.9090862134434958,45.74856541669615
31/01/2020, 11:03:36,0.7544312,3.8416114,8.605306,0.7175377,0.47914058,0.08479432,-0.53009427,0.34001017,-1.8022218,17.738724,-40.36081,-12.217773,9.454016615008479,0.86696373879819,1.9090862134434958,45.74856541669615
31/01/2020, 11:03:36,0.7544312,3.8416114,8.605306,0.7175377,0.47914058,0.08479432,-0.62725383,0.16439533,-1.0136099,17.738724,-40.36081,-12.217773,9.454016615008479,0.86696373879819,1.203278103526841,45.74856541669615
31/01/2020, 11:03:36,0.7544312,3.8416114,8.605306,0.7175377,0.47914058,0.08479432,-0.62725383,0.16439533,-1.0136099,17.54216,-40.719772,-11.092346,9.454016615008479,0.86696373879819,1.203278103526841,45.70412871966765
31/01/2020, 11:03:36,0.7544312,3.8416114,8.605306,-0.031382803,0.15171693,0.2057456,-0.62725383,0.16439533,-1.0136099,17.54216,-40.719772,-11.092346,9.454016615008479,0.2575541824378766,1.203278103526841,45.70412871966765
31/01/2020, 11:03:36,0.84544194,3.8464015,8.471185,-0.031382803,0.15171693,0.2057456,-0.62725383,0.16439533,-1.0136099,17.54216,-40.719772,-11.092346,9.341870634200351,0.2575541824378766,1.203278103526841,45.70412871966765
31/01/2020, 11:03:36,0.9268726,4.009263,8.365804,-0.031382803,0.15171693,0.2057456,-0.62725383,0.16439533,-1.0136099,17.54216,-40.719772,-11.092346,9.32308719296679,0.2575541824378766,1.203278103526841,45.70412871966765
31/01/2020, 11:03:36,0.9268726,4.009263,8.365804,-0.031382803,0.15171693,0.2057456,-0.46245342,-0.63869715,-0.015410423,17.54216,-40.719772,-11.092346,9.32308719296679,0.2575541824378766,0.7886917632595375,45.70412871966765
31/01/2020, 11:03:36,0.9268726,4.009263,8.365804,-0.031382803,0.15171693,0.2057456,-0.46245342,-0.63869715,-0.015410423,17.611206,-40.714584,-11.438995,9.32308719296679,0.2575541824378766,0.7886917632595375,45.81138038105952
31/01/2020, 11:03:36,0.9268726,4.009263,8.365804,-0.031382803,0.15171693,0.2057456,-0.069097936,-0.8792021,0.050649643,17.611206,-40.714584,-11.438995,9.32308719296679,0.2575541824378766,0.883366453990288,45.81138038105952
31/01/2020, 11:03:37,3.537444,5.50136,9.208851,0.49396113,0.14683002,0.061581448,-0.048608065,1.3210316,1.414465,16.371368,-39.689667,-16.684067,11.295193943530894,0.5189883657447418,1.9360264074647855,46.06136596103142
31/01/2020, 11:03:37,3.537444,5.50136,9.208851,0.49396113,0.14683002,0.061581448,0.15000987,1.5960217,1.1641779,16.371368,-39.689667,-16.684067,11.295193943530894,0.5189883657447418,1.9811860704825093,46.06136596103142
31/01/2020, 11:03:37,3.786526,5.5229154,9.1849,0.49396113,0.14683002,0.061581448,0.15000987,1.5960217,1.1641779,16.371368,-39.689667,-16.684067,11.366739471613178,0.5189883657447418,1.9811860704825093,46.06136596103142
31/01/2020, 11:03:37,3.7577858,5.47741,9.287886,0.49396113,0.14683002,0.061581448,0.15000987,1.5960217,1.1641779,16.371368,-39.689667,-16.684067,11.418747426535813,0.5189883657447418,1.9811860704825093,46.06136596103142
31/01/2020, 11:03:37,3.7577858,5.47741,9.287886,0.49396113,0.14683002,0.061581448,0.15000987,1.5960217,1.1641779,16.081299,-39.68158,-16.698776,11.418747426535813,0.5189883657447418,1.9811860704825093,45.95742659058543
31/01/2020, 11:03:37,3.5494192,5.345684,9.501043,0.49396113,0.14683002,0.061581448,0.15000987,1.5960217,1.1641779,16.081299,-39.68158,-16.698776,11.46492645191861,0.5189883657447418,1.9811860704825093,45.95742659058543
31/01/2020, 11:03:37,3.168611,5.3313136,9.881851,0.49396113,0.14683002,0.061581448,0.15000987,1.5960217,1.1641779,16.081299,-39.68158,-16.698776,11.666789783765207,0.5189883657447418,1.9811860704825093,45.95742659058543
31/01/2020, 11:03:37,3.168611,5.3313136,9.881851,0.49396113,0.14683002,0.061581448,0.55255103,1.2030034,0.99960995,16.081299,-39.68158,-16.698776,11.666789783765207,0.5189883657447418,1.6588399213438199,45.95742659058543
31/01/2020, 11:03:37,3.168611,5.3313136,9.881851,0.49396113,0.14683002,0.061581448,0.55255103,1.2030034,0.99960995,16.125977,-39.316956,-17.112991,11.666789783765207,0.5189883657447418,1.6588399213438199,45.81183894441112
31/01/2020, 11:03:37,2.8788135,5.760022,9.939331,0.49396113,0.14683002,0.061581448,0.55255103,1.2030034,0.99960995,16.125977,-39.316956,-17.112991,11.842960961473995,0.5189883657447418,1.6588399213438199,45.81183894441112
31/01/2020, 11:03:37,2.6153615,6.318062,9.946517,0.49396113,0.14683002,0.061581448,0.55255103,1.2030034,0.99960995,16.125977,-39.316956,-17.112991,12.070261846407684,0.5189883657447418,1.6588399213438199,45.81183894441112
31/01/2020, 11:03:37,2.6153615,6.318062,9.946517,0.49396113,0.14683002,0.061581448,1.4951899,0.9055333,0.8424082,16.125977,-39.316956,-17.112991,12.070261846407684,0.5189883657447418,1.9404213400587398,45.81183894441112
31/01/2020, 11:03:37,2.6153615,6.318062,9.946517,0.49396113,0.14683002,0.061581448,1.4951899,0.9055333,0.8424082,15.934479,-39.3889,-16.99443,12.070261846407684,0.5189883657447418,1.9404213400587398,45.76247136709172
31/01/2020, 11:03:37,2.411785,6.4330225,10.281819,0.49396113,0.14683002,0.061581448,1.4951899,0.9055333,0.8424082,15.934479,-39.3889,-16.99443,12.36593279256154,0.5189883657447418,1.9404213400587398,45.76247136709172
31/01/2020, 11:03:37,2.6441016,6.3970976,10.633887,0.49396113,0.14683002,0.061581448,1.4951899,0.9055333,0.8424082,15.934479,-39.3889,-16.99443,12.688328882765669,0.5189883657447418,1.9404213400587398,45.76247136709172
31/01/2020, 11:03:37,2.6441016,6.3970976,10.633887,0.49396113,0.14683002,0.061581448,1.277919,0.5972667,1.2268734,15.934479,-39.3889,-16.99443,12.688328882765669,0.5189883657447418,1.8694980403502062,45.76247136709172
31/01/2020, 11:03:37,2.6441016,6.3970976,10.633887,0.49396113,0.14683002,0.061581448,1.277919,0.5972667,1.2268734,16.794739,-38.827927,-17.446121,12.688328882765669,0.5189883657447418,1.8694980403502062,45.760663048566826
31/01/2020, 11:03:37,2.6441016,6.3970976,10.633887,0.7590765,0.24945533,0.2142977,1.277919,0.5972667,1.2268734,16.794739,-38.827927,-17.446121,12.688328882765669,0.8272536264784026,1.8694980403502062,45.760663048566826
31/01/2020, 11:03:37,2.7542725,6.4905033,10.631493,0.7590765,0.24945533,0.2142977,1.277919,0.5972667,1.2268734,16.794739,-38.827927,-17.446121,12.757009259172872,0.8272536264784026,1.8694980403502062,45.760663048566826
31/01/2020, 11:03:37,2.4165747,6.5096636,10.533297,0.7590765,0.24945533,0.2142977,1.277919,0.5972667,1.2268734,16.794739,-38.827927,-17.446121,12.616096474699178,0.8272536264784026,1.8694980403502062,45.760663048566826
31/01/2020, 11:03:38,1.6765138,6.6174393,7.5203614,-0.25251594,-0.0058862325,0.5918123,0.030894399,0.1602025,0.714808,28.025131,-36.278397,-9.67247,10.156625272404488,0.6434599925200484,0.7331914923722199,46.85175256318008
31/01/2020, 11:03:38,1.6070582,6.334827,7.592212,-0.25251594,-0.0058862325,0.5918123,0.030894399,0.1602025,0.714808,28.025131,-36.278397,-9.67247,10.017702056108808,0.6434599925200484,0.7331914923722199,46.85175256318008
31/01/2020, 11:03:38,1.6070582,6.334827,7.592212,-0.25251594,-0.0058862325,0.5918123,0.030894399,0.1602025,0.714808,27.549133,-36.493347,-10.056183,10.017702056108808,0.6434599925200484,0.7331914923722199,46.81715440825699
31/01/2020, 11:03:38,1.6070582,6.334827,7.592212,-0.24885075,-0.1341679,0.4916304,0.030894399,0.1602025,0.714808,27.549133,-36.493347,-10.056183,10.017702056108808,0.5671227151424612,0.7331914923722199,46.81715440825699
31/01/2020, 11:03:38,1.5807129,6.183941,7.453301,-0.24885075,-0.1341679,0.4916304,0.030894399,0.1602025,0.714808,27.549133,-36.493347,-10.056183,9.812821883236358,0.5671227151424612,0.7331914923722199,46.81715440825699
31/01/2020, 11:03:38,1.4968873,6.198311,7.2257743,-0.24885075,-0.1341679,0.4916304,0.030894399,0.1602025,0.714808,27.549133,-36.493347,-10.056183,9.636988282124086,0.5671227151424612,0.7331914923722199,46.81715440825699
31/01/2020, 11:03:38,1.4968873,6.198311,7.2257743,-0.24885075,-0.1341679,0.4916304,-0.012895107,0.06463528,0.54377127,27.549133,-36.493347,-10.056183,9.636988282124086,0.5671227151424612,0.547751032444785,46.81715440825699
31/01/2020, 11:03:38,1.4968873,6.198311,7.2257743,-0.24885075,-0.1341679,0.4916304,-0.012895107,0.06463528,0.54377127,26.710571,-36.832413,-10.235291,9.636988282124086,0.5671227151424612,0.547751032444785,46.635205773358585
31/01/2020, 11:03:38,1.4106666,6.241421,7.046148,-0.24885075,-0.1341679,0.4916304,-0.012895107,0.06463528,0.54377127,26.710571,-36.832413,-10.235291,9.518062735726344,0.5671227151424612,0.547751032444785,46.635205773358585
31/01/2020, 11:03:38,1.3795313,6.320457,6.947952,-0.24885075,-0.1341679,0.4916304,-0.012895107,0.06463528,0.54377127,26.710571,-36.832413,-10.235291,9.493435473703274,0.5671227151424612,0.547751032444785,46.635205773358585
31/01/2020, 11:03:38,1.3795313,6.320457,6.947952,-0.24885075,-0.1341679,0.4916304,-0.21891117,-0.27866554,0.5864668,26.710571,-36.832413,-10.235291,9.493435473703274,0.5671227151424612,0.6852152072837149,46.635205773358585
31/01/2020, 11:03:38,1.3795313,6.320457,6.947952,-0.24885075,-0.1341679,0.4916304,-0.21891117,-0.27866554,0.5864668,26.005081,-36.820847,-10.054703,9.493435473703274,0.5671227151424612,0.6852152072837149,46.18588567730355
31/01/2020, 11:03:38,1.456172,6.3084817,6.806646,-0.24885075,-0.1341679,0.4916304,-0.21891117,-0.27866554,0.5864668,26.005081,-36.820847,-10.054703,9.394030345892931,0.5671227151424612,0.6852152072837149,46.18588567730355
31/01/2020, 11:03:38,1.5974782,6.210286,6.758745,-0.24885075,-0.1341679,0.4916304,-0.21891117,-0.27866554,0.5864668,26.005081,-36.820847,-10.054703,9.31666394051661,0.5671227151424612,0.6852152072837149,46.18588567730355
31/01/2020, 11:03:38,1.5974782,6.210286,6.758745,-0.24885075,-0.1341679,0.4916304,-0.3918692,-0.38098717,0.20479918,26.005081,-36.820847,-10.054703,9.31666394051661,0.5671227151424612,0.5836569059629614,46.18588567730355
31/01/2020, 11:03:38,1.5974782,6.210286,6.758745,-0.24885075,-0.1341679,0.4916304,-0.3918692,-0.38098717,0.20479918,26.13684,-36.58365,-10.616959,9.31666394051661,0.5671227151424612,0.5836569059629614,46.197593110765716
31/01/2020, 11:03:38,1.6501685,5.997129,6.957532,-0.24885075,-0.1341679,0.4916304,-0.3918692,-0.38098717,0.20479918,26.13684,-36.58365,-10.616959,9.332516410480551,0.5671227151424612,0.5836569059629614,46.197593110765716
31/01/2020, 11:03:38,1.6573536,5.8677983,6.952742,-0.24885075,-0.1341679,0.4916304,-0.3918692,-0.38098717,0.20479918,26.13684,-36.58365,-10.616959,9.247621370670212,0.5671227151424612,0.5836569059629614,46.197593110765716
31/01/2020, 11:03:38,1.6573536,5.8677983,6.952742,-0.24885075,-0.1341679,0.4916304,-0.56079996,-0.2367096,-0.07954788,26.13684,-36.58365,-10.616959,9.247621370670212,0.5671227151424612,0.6138858923199639,46.197593110765716
31/01/2020, 11:03:38,1.6573536,5.8677983,6.952742,-0.24885075,-0.1341679,0.4916304,-0.56079996,-0.2367096,-0.07954788,25.144257,-37.139816,-10.587509,9.247621370670212,0.5671227151424612,0.6138858923199639,46.08356478496144
31/01/2020, 11:03:39,-5.125342,-8.780142,11.191927,-1.6232971,1.3050301,-0.54439664,-1.4684305,-2.768812,6.298847,34.26213,-20.174103,-22.985504,15.120160351910611,2.1528039254644886,7.035487458929374,45.92626075368021
31/01/2020, 11:03:39,-4.0811133,-8.749006,11.258987,-1.6232971,1.3050301,-0.54439664,-1.4684305,-2.768812,6.298847,34.26213,-20.174103,-22.985504,14.831230383675825,2.1528039254644886,7.035487458929374,45.92626075368021
31/01/2020, 11:03:39,-4.0811133,-8.749006,11.258987,-1.6232971,1.3050301,-0.54439664,-1.2868559,-2.2435856,5.419346,34.26213,-20.174103,-22.985504,14.831230383675825,2.1528039254644886,6.004913320618869,45.92626075368021
31/01/2020, 11:03:39,-4.0811133,-8.749006,11.258987,-1.6232971,1.3050301,-0.54439664,-1.2868559,-2.2435856,5.419346,35.311447,-19.298096,-23.071533,14.831230383675825,2.1528039254644886,6.004913320618869,46.385455063865955
31/01/2020, 11:03:39,-4.0811133,-8.749006,11.258987,-1.075962,-0.31498393,-1.5156721,-1.2868559,-2.2435856,5.419346,35.311447,-19.298096,-23.071533,14.831230383675825,1.8852508767967042,6.004913320618869,46.385455063865955
31/01/2020, 11:03:39,-3.7098854,-7.4940166,11.170372,-1.075962,-0.31498393,-1.5156721,-1.2868559,-2.2435856,5.419346,35.311447,-19.298096,-23.071533,13.95352090734646,1.8852508767967042,6.004913320618869,46.385455063865955
31/01/2020, 11:03:39,-4.394861,-7.0365677,10.665023,-1.075962,-0.31498393,-1.5156721,-1.2868559,-2.2435856,5.419346,35.311447,-19.298096,-23.071533,13.511876345424753,1.8852508767967042,6.004913320618869,46.385455063865955
31/01/2020, 11:03:39,-4.394861,-7.0365677,10.665023,-1.075962,-0.31498393,-1.5156721,-1.9323821,-2.5950108,4.366859,35.311447,-19.298096,-23.071533,13.511876345424753,1.8852508767967042,5.434854055758736,46.385455063865955
31/01/2020, 11:03:39,-4.394861,-7.0365677,10.665023,-1.075962,-0.31498393,-1.5156721,-1.9323821,-2.5950108,4.366859,35.580658,-18.508484,-22.850403,13.511876345424753,1.8852508767967042,5.434854055758736,46.15937722895823
31/01/2020, 11:03:39,-4.629573,-6.6461797,11.829002,-1.075962,-0.31498393,-1.5156721,-1.9323821,-2.5950108,4.366859,35.580658,-18.508484,-22.850403,14.336315654469242,1.8852508767967042,5.434854055758736,46.15937722895823
31/01/2020, 11:03:39,-4.8571,-7.7383084,11.553575,-1.075962,-0.31498393,-1.5156721,-1.9323821,-2.5950108,4.366859,35.580658,-18.508484,-22.850403,14.729491607695326,1.8852508767967042,5.434854055758736,46.15937722895823
31/01/2020, 11:03:39,-4.8571,-7.7383084,11.553575,-1.075962,-0.31498393,-1.5156721,-1.8004439,-3.0843115,3.93153,35.580658,-18.508484,-22.850403,14.729491607695326,1.8852508767967042,5.3114502409785365,46.15937722895823
31/01/2020, 11:03:39,-4.8571,-7.7383084,11.553575,-1.075962,-0.31498393,-1.5156721,-1.8004439,-3.0843115,3.93153,36.3575,-17.698975,-22.551605,14.729491607695326,1.8852508767967042,5.3114502409785365,46.30006774870628
31/01/2020, 11:03:39,-4.25595,-7.5299416,11.644586,-1.075962,-0.31498393,-1.5156721,-1.8004439,-3.0843115,3.93153,36.3575,-17.698975,-22.551605,14.505499097814615,1.8852508767967042,5.3114502409785365,46.30006774870628
31/01/2020, 11:03:39,-2.4908204,-6.964717,11.53202,-1.075962,-0.31498393,-1.5156721,-1.8004439,-3.0843115,3.93153,36.3575,-17.698975,-22.551605,13.70032643274464,1.8852508767967042,5.3114502409785365,46.30006774870628
31/01/2020, 11:03:39,-2.4908204,-6.964717,11.53202,-1.075962,-0.31498393,-1.5156721,-1.1021781,-2.2264142,3.3186312,36.3575,-17.698975,-22.551605,13.70032643274464,1.8852508767967042,4.145483038218235,46.30006774870628
31/01/2020, 11:03:39,-2.4908204,-6.964717,11.53202,-1.075962,-0.31498393,-1.5156721,-1.1021781,-2.2264142,3.3186312,36.57379,-15.817963,-22.93544,13.70032643274464,1.8852508767967042,4.145483038218235,45.97700053463803
31/01/2020, 11:03:39,-2.5411158,-7.220984,10.923684,-1.075962,-0.31498393,-1.5156721,-1.1021781,-2.2264142,3.3186312,36.57379,-15.817963,-22.93544,13.338918761908014,1.8852508767967042,4.145483038218235,45.97700053463803
31/01/2020, 11:03:39,-2.4022048,-6.2653713,11.486514,-1.075962,-0.31498393,-1.5156721,-1.1021781,-2.2264142,3.3186312,36.57379,-15.817963,-22.93544,13.302836970168215,1.8852508767967042,4.145483038218235,45.97700053463803
