DATE,TIME,ax,ay,az,gx,gy,gz,lx,ly,lz,mx,my,mz,ma,mg,ml,mm
31/01/2020, 11:08:31,0.91729254,5.252278,8.258028,0.051694836,0.023435289,0.016377442,0.42223704,-0.42238903,0.21148968,-35.279953,-27.804428,-48.012543,9.829693544120774,0.05907444018077786,0.6335806921657774,65.74926284584505
31/01/2020, 11:08:31,1.089734,5.230723,8.217313,0.051694836,0.023435289,0.016377442,0.42223704,-0.42238903,0.21148968,-35.279953,-27.804428,-48.012543,9.801643334860799,0.05907444018077786,0.6335806921657774,65.74926284584505
31/01/2020, 11:08:31,1.089734,5.230723,8.217313,0.051694836,0.023435289,0.016377442,0.38926357,-0.28377056,0.39396763,-35.279953,-27.804428,-48.012543,9.801643334860799,0.05907444018077786,0.6223040662513483,65.74926284584505
31/01/2020, 11:08:31,1.089734,5.230723,8.217313,0.051694836,0.023435289,0.016377442,0.38926357,-0.28377056,0.39396763,-35.663925,-27.794235,-47.799866,9.801643334860799,0.05907444018077786,0.6223040662513483,65.7971293727299
31/01/2020, 11:08:31,1.089734,5.230723,8.217313,0.051694836,0.023435289,0.016377442,0.32491165,-0.47991657,0.5537081,-35.663925,-27.794235,-47.799866,9.801643334860799,0.05907444018077786,0.8015485846073965,65.7971293727299
31/01/2020, 11:08:31,1.0873389,5.1900077,8.305928,0.051694836,0.023435289,0.016377442,0.32491165,-0.47991657,0.5537081,-35.663925,-27.794235,-47.799866,9.854284828962037,0.05907444018077786,0.8015485846073965,65.7971293727299
31/01/2020, 11:08:31,1.0801538,5.2834134,8.368198,0.051694836,0.023435289,0.016377442,0.32491165,-0.47991657,0.5537081,-35.663925,-27.794235,-47.799866,9.955296777012016,0.05907444018077786,0.8015485846073965,65.7971293727299
31/01/2020, 11:08:31,1.0801538,5.2834134,8.368198,0.051694836,0.023435289,0.016377442,0.32491165,-0.47991657,0.5537081,-35.663925,-27.794235,-47.799866,9.955296777012016,0.05907444018077786,0.8015485846073965,65.7971293727299
31/01/2020, 11:08:31,1.0801538,5.2834134,8.368198,0.051694836,0.023435289,0.016377442,0.18363559,-0.3682723,0.31039715,-35.663925,-27.794235,-47.799866,9.955296777012016,0.05907444018077786,0.515454082023319,65.7971293727299
31/01/2020, 11:08:31,1.0106983,5.2834134,8.473579,0.051694836,0.023435289,0.016377442,0.18363559,-0.3682723,0.31039715,-35.663925,-27.794235,-47.799866,10.036808074095154,0.05907444018077786,0.515454082023319,65.7971293727299
31/01/2020, 11:08:31,0.9484278,5.3073635,8.538245,0.051694836,0.023435289,0.016377442,0.18363559,-0.3682723,0.31039715,-35.663925,-27.794235,-47.799866,10.09798266129858,0.05907444018077786,0.515454082023319,65.7971293727299
31/01/2020, 11:08:31,0.9484278,5.3073635,8.538245,0.051694836,0.023435289,0.016377442,0.18363559,-0.3682723,0.31039715,-35.285797,-27.80539,-48.358994,10.09798266129858,0.05907444018077786,0.515454082023319,66.00620738626607
31/01/2020, 11:08:31,0.9484278,5.3073635,8.538245,0.005269098,-0.0022210425,-0.032491762,0.18363559,-0.3682723,0.31039715,-35.285797,-27.80539,-48.358994,10.09798266129858,0.032991075079647124,0.515454082023319,66.00620738626607
31/01/2020, 11:08:31,0.9484278,5.3073635,8.538245,0.005269098,-0.0022210425,-0.032491762,0.38889652,-0.37270308,0.20101929,-35.285797,-27.80539,-48.358994,10.09798266129858,0.032991075079647124,0.5749407302438455,66.00620738626607
31/01/2020, 11:08:31,1.0154883,5.398374,8.389753,0.005269098,-0.0022210425,-0.032491762,0.38889652,-0.37270308,0.20101929,-35.285797,-27.80539,-48.358994,10.028041696620829,0.032991075079647124,0.5749407302438455,66.00620738626607
31/01/2020, 11:08:31,1.1496094,5.364844,8.250843,0.005269098,-0.0022210425,-0.032491762,0.38889652,-0.37270308,0.20101929,-35.285797,-27.80539,-48.358994,9.908560055276793,0.032991075079647124,0.5749407302438455,66.00620738626607
31/01/2020, 11:08:31,1.1496094,5.364844,8.250843,0.005269098,-0.0022210425,-0.032491762,0.38889652,-0.37270308,0.20101929,-35.21086,-27.591385,-48.344467,9.908560055276793,0.032991075079647124,0.5749407302438455,65.86559627131362
31/01/2020, 11:08:31,1.2454102,5.2594633,8.210127,0.005269098,-0.0022210425,-0.032491762,0.38889652,-0.37270308,0.20101929,-35.21086,-27.591385,-48.344467,9.829505797419545,0.032991075079647124,0.5749407302438455,65.86559627131362
31/01/2020, 11:08:31,1.3220508,5.1612673,8.229287,0.005269098,-0.0022210425,-0.032491762,0.38889652,-0.37270308,0.20101929,-35.21086,-27.591385,-48.344467,9.803451700385624,0.032991075079647124,0.5749407302438455,65.86559627131362
31/01/2020, 11:08:31,1.3220508,5.1612673,8.229287,0.005269098,-0.0022210425,-0.032491762,0.37867826,-0.32055187,0.35223007,-35.21086,-27.591385,-48.344467,9.803451700385624,0.032991075079647124,0.608454396590075,65.86559627131362
31/01/2020, 11:08:32,1.0801538,3.4512234,6.7874856,-1.5170065,-0.64362925,0.84104526,-0.32288492,0.11995602,-0.5745592,-37.30246,-21.604813,-47.552284,7.69075001660941,1.850114730568027,0.6698973081619757,64.1830286436259
31/01/2020, 11:08:32,1.0801538,3.4512234,6.7874856,-1.5170065,-0.64362925,0.84104526,-0.31093097,-0.20349431,-0.80773926,-37.30246,-21.604813,-47.552284,7.69075001660941,1.850114730568027,0.8891179389785554,64.1830286436259
31/01/2020, 11:08:32,0.79993653,3.168611,6.466553,-1.5170065,-0.64362925,0.84104526,-0.31093097,-0.20349431,-0.80773926,-37.30246,-21.604813,-47.552284,7.245433380702807,1.850114730568027,0.8891179389785554,64.1830286436259
31/01/2020, 11:08:32,0.73527104,2.9602442,6.023474,-1.5170065,-0.64362925,0.84104526,-0.31093097,-0.20349431,-0.80773926,-37.30246,-21.604813,-47.552284,6.751733905570143,1.850114730568027,0.8891179389785554,64.1830286436259
31/01/2020, 11:08:32,0.73527104,2.9602442,6.023474,-1.5170065,-0.64362925,0.84104526,-0.31093097,-0.20349431,-0.80773926,-37.759552,-20.584106,-47.562195,6.751733905570143,1.850114730568027,0.8891179389785554,64.12216139555106
31/01/2020, 11:08:32,0.73527104,2.9602442,6.023474,-1.5170065,-0.64362925,0.84104526,-0.6675794,-0.016394854,-1.5686669,-37.759552,-20.584106,-47.562195,6.751733905570143,1.850114730568027,1.704889150655862,64.12216139555106
31/01/2020, 11:08:32,0.9580079,2.5123756,6.0282645,-1.5170065,-0.64362925,0.84104526,-0.6675794,-0.016394854,-1.5686669,-37.759552,-20.584106,-47.562195,6.6007411218827,1.850114730568027,1.704889150655862,64.12216139555106
31/01/2020, 11:08:32,1.104104,1.9303858,5.949229,-1.5170065,-0.64362925,0.84104526,-0.6675794,-0.016394854,-1.5686669,-37.759552,-20.584106,-47.562195,6.3512800333557315,1.850114730568027,1.704889150655862,64.12216139555106
31/01/2020, 11:08:32,1.104104,1.9303858,5.949229,-1.5170065,-0.64362925,0.84104526,-0.6675794,-0.016394854,-1.5686669,-37.989822,-19.065903,-47.284897,6.3512800333557315,1.850114730568027,1.704889150655862,63.581418050912355
31/01/2020, 11:08:32,1.2741505,1.453777,6.5479836,-1.5170065,-0.64362925,0.84104526,-0.6675794,-0.016394854,-1.5686669,-37.989822,-19.065903,-47.284897,6.8273726090774245,1.850114730568027,1.704889150655862,63.581418050912355
31/01/2020, 11:08:32,1.5399976,0.5245093,6.327642,-1.5170065,-0.64362925,0.84104526,-0.6675794,-0.016394854,-1.5686669,-37.989822,-19.065903,-47.284897,6.533433659287207,1.850114730568027,1.704889150655862,63.581418050912355
31/01/2020, 11:08:32,1.5399976,0.5245093,6.327642,-1.5170065,-0.64362925,0.84104526,-1.4162165,-0.17198157,-2.4805121,-37.989822,-19.065903,-47.284897,6.533433659287207,1.850114730568027,2.8615008829387114,63.581418050912355
31/01/2020, 11:08:32,1.5399976,0.5245093,6.327642,-1.5170065,-0.64362925,0.84104526,-1.4162165,-0.17198157,-2.4805121,-38.062286,-18.084793,-46.459297,6.533433659287207,1.850114730568027,2.8615008829387114,62.72370907284472
31/01/2020, 11:08:32,1.5399976,0.5245093,6.327642,-1.5170065,-0.64362925,0.84104526,-1.4415526,-0.47939587,-2.9942288,-38.062286,-18.084793,-46.459297,6.533433659287207,1.850114730568027,3.3575736407829067,62.72370907284472
31/01/2020, 11:08:32,1.477727,0.36164796,6.9958525,-1.5170065,-0.64362925,0.84104526,-1.4415526,-0.47939587,-2.9942288,-38.062286,-18.084793,-46.459297,7.159358790268679,1.850114730568027,3.3575736407829067,62.72370907284472
31/01/2020, 11:08:32,1.7771046,0.6490503,7.448511,-1.5170065,-0.64362925,0.84104526,-1.4415526,-0.47939587,-2.9942288,-38.062286,-18.084793,-46.459297,7.685029932403562,1.850114730568027,3.3575736407829067,62.72370907284472
31/01/2020, 11:08:32,1.7771046,0.6490503,7.448511,-1.5170065,-0.64362925,0.84104526,-1.4415526,-0.47939587,-2.9942288,-37.969254,-16.507217,-46.1531,7.685029932403562,1.850114730568027,3.3575736407829067,62.00210475270008
31/01/2020, 11:08:32,1.7771046,0.6490503,7.448511,-1.5157849,-0.4359352,1.2539899,-1.4415526,-0.47939587,-2.9942288,-37.969254,-16.507217,-46.1531,7.685029932403562,2.0149774181376268,3.3575736407829067,62.00210475270008
31/01/2020, 11:08:32,1.7771046,0.6490503,7.448511,-1.5157849,-0.4359352,1.2539899,-1.299016,-1.179594,-2.53832,-37.969254,-16.507217,-46.1531,7.685029932403562,2.0149774181376268,3.085766260480682,62.00210475270008
31/01/2020, 11:08:32,1.9854712,0.85741705,7.3622904,-1.5157849,-0.4359352,1.2539899,-1.299016,-1.179594,-2.53832,-37.969254,-16.507217,-46.1531,7.673368213907937,2.0149774181376268,3.085766260480682,62.00210475270008
31/01/2020, 11:08:33,-1.7651294,4.2439747,8.784932,0.06269041,-0.3088753,-0.3428112,-0.5389675,-1.265712,-0.04933834,-25.715363,-28.705444,-50.73349,9.914738309241613,0.46567537007411736,1.3765707943911247,63.71161128185733
31/01/2020, 11:08:33,-1.7651294,4.2439747,8.784932,0.06269041,-0.3088753,-0.3428112,-1.0215626,-1.1548464,0.27030468,-25.715363,-28.705444,-50.73349,9.914738309241613,0.46567537007411736,1.5653513962441237,63.71161128185733
31/01/2020, 11:08:33,-1.7004639,3.999683,8.832832,0.06269041,-0.3088753,-0.3428112,-1.0215626,-1.1548464,0.27030468,-25.715363,-28.705444,-50.73349,9.844184468759833,0.46567537007411736,1.5653513962441237,63.71161128185733
31/01/2020, 11:08:33,-1.6645386,3.7074904,8.885523,0.06269041,-0.3088753,-0.3428112,-1.0215626,-1.1548464,0.27030468,-25.715363,-28.705444,-50.73349,9.770808073053958,0.46567537007411736,1.5653513962441237,63.71161128185733
31/01/2020, 11:08:33,-1.6645386,3.7074904,8.885523,0.06269041,-0.3088753,-0.3428112,-1.0215626,-1.1548464,0.27030468,-26.061615,-29.134583,-50.08177,9.770808073053958,0.46567537007411736,1.5653513962441237,63.53121709979061
31/01/2020, 11:08:33,-1.6645386,3.7074904,8.885523,0.06269041,-0.3088753,-0.3428112,-1.2344829,-0.5364282,0.22875118,-26.061615,-29.134583,-50.08177,9.770808073053958,0.46567537007411736,1.3652949583314804,63.53121709979061
31/01/2020, 11:08:33,-1.6813037,3.647615,8.921448,0.06269041,-0.3088753,-0.3428112,-1.2344829,-0.5364282,0.22875118,-26.061615,-29.134583,-50.08177,9.78386974345104,0.46567537007411736,1.3652949583314804,63.53121709979061
31/01/2020, 11:08:33,-1.7172291,3.781736,9.077125,0.06269041,-0.3088753,-0.3428112,-1.2344829,-0.5364282,0.22875118,-26.061615,-29.134583,-50.08177,9.982213842510465,0.46567537007411736,1.3652949583314804,63.53121709979061
31/01/2020, 11:08:33,-1.7172291,3.781736,9.077125,0.06269041,-0.3088753,-0.3428112,-1.2344829,-0.5364282,0.22875118,-26.304031,-29.781296,-49.555656,9.982213842510465,0.46567537007411736,1.3652949583314804,63.51842826344424
31/01/2020, 11:08:33,-1.7172291,3.781736,9.077125,0.06269041,-0.3088753,-0.3428112,-1.0632914,-0.29310274,0.12042904,-26.304031,-29.781296,-49.555656,9.982213842510465,0.46567537007411736,1.1095048609519866,63.51842826344424
31/01/2020, 11:08:33,-1.7627344,4.0356083,8.935819,0.06269041,-0.3088753,-0.3428112,-1.0632914,-0.29310274,0.12042904,-26.304031,-29.781296,-49.555656,9.962039060193291,0.46567537007411736,1.1095048609519866,63.51842826344424
31/01/2020, 11:08:33,-1.710044,4.1984696,8.840017,0.06269041,-0.3088753,-0.3428112,-1.0632914,-0.29310274,0.12042904,-26.304031,-29.781296,-49.555656,9.934651683659538,0.46567537007411736,1.1095048609519866,63.51842826344424
31/01/2020, 11:08:33,-1.710044,4.1984696,8.840017,0.06269041,-0.3088753,-0.3428112,-1.0632914,-0.29310274,0.12042904,-26.266983,-30.107925,-49.68363,9.934651683659538,0.46567537007411736,1.1095048609519866,63.75660631563377
31/01/2020, 11:08:33,-1.4010864,4.2751102,8.669971,0.06269041,-0.3088753,-0.3428112,-1.0632914,-0.29310274,0.12042904,-26.266983,-30.107925,-49.68363,9.767702701580554,0.46567537007411736,1.1095048609519866,63.75660631563377
31/01/2020, 11:08:33,-1.0106983,4.2296047,8.799302,0.06269041,-0.3088753,-0.3428112,-1.0632914,-0.29310274,0.12042904,-26.266983,-30.107925,-49.68363,9.815232277155571,0.46567537007411736,1.1095048609519866,63.75660631563377
31/01/2020, 11:08:33,-1.0106983,4.2296047,8.799302,0.06269041,-0.3088753,-0.3428112,-0.96762216,-0.83204913,0.22202015,-26.266983,-30.107925,-49.68363,9.815232277155571,0.46567537007411736,1.295334454881927,63.75660631563377
31/01/2020, 11:08:33,-1.0106983,4.2296047,8.799302,0.06269041,-0.3088753,-0.3428112,-0.96762216,-0.83204913,0.22202015,-26.542572,-30.092957,-49.124557,9.815232277155571,0.46567537007411736,1.295334454881927,63.429616994774335
31/01/2020, 11:08:33,-1.0106983,4.2296047,8.799302,-0.0680347,-0.38950947,-0.19864705,-0.96762216,-0.83204913,0.22202015,-26.542572,-30.092957,-49.124557,9.815232277155571,0.44250084574657,1.295334454881927,63.429616994774335
31/01/2020, 11:08:33,-0.74724615,4.174519,9.091495,-0.0680347,-0.38950947,-0.19864705,-0.96762216,-0.83204913,0.22202015,-26.542572,-30.092957,-49.124557,10.031961898914503,0.44250084574657,1.295334454881927,63.429616994774335
31/01/2020, 11:08:33,-0.6011499,3.9493873,9.398057,-0.0680347,-0.38950947,-0.19864705,-0.96762216,-0.83204913,0.22202015,-26.542572,-30.092957,-49.124557,10.211881140881566,0.44250084574657,1.295334454881927,63.429616994774335
31/01/2020, 11:08:34,0.79993653,2.8668385,10.566827,0.010156019,-0.21113688,0.47819138,-0.40617996,-1.0386319,0.73949337,-35.007065,-19.646896,-46.058014,10.978000284057519,0.5228278087438123,1.3381288671059837,61.096937483185016
31/01/2020, 11:08:34,0.7592212,2.7207422,10.526112,0.010156019,-0.21113688,0.47819138,-0.40617996,-1.0386319,0.73949337,-35.007065,-19.646896,-46.058014,10.898526531480595,0.5228278087438123,1.3381288671059837,61.096937483185016
31/01/2020, 11:08:34,0.7592212,2.7207422,10.526112,0.010156019,-0.21113688,0.47819138,-0.06303835,-0.35942554,0.6163187,-35.007065,-19.646896,-46.058014,10.898526531480595,0.5228278087438123,0.7162466746656239,61.096937483185016
31/01/2020, 11:08:34,0.7592212,2.7207422,10.526112,0.010156019,-0.21113688,0.47819138,-0.06303835,-0.35942554,0.6163187,-34.873474,-19.291016,-46.12271,10.898526531480595,0.5228278087438123,0.7162466746656239,60.95577878973926
31/01/2020, 11:08:34,0.7592212,2.7207422,10.526112,0.30459297,-0.21724553,0.29004496,-0.06303835,-0.35942554,0.6163187,-34.873474,-19.291016,-46.12271,10.898526531480595,0.47339051364244655,0.7162466746656239,60.95577878973926
31/01/2020, 11:08:34,0.81191164,2.806963,10.516531,0.30459297,-0.21724553,0.29004496,-0.06303835,-0.35942554,0.6163187,-34.873474,-19.291016,-46.12271,10.914928570046966,0.47339051364244655,0.7162466746656239,60.95577878973926
31/01/2020, 11:08:34,0.81191164,2.9674294,10.499766,0.30459297,-0.21724553,0.29004496,-0.06303835,-0.35942554,0.6163187,-34.873474,-19.291016,-46.12271,10.94120336875724,0.47339051364244655,0.7162466746656239,60.95577878973926
31/01/2020, 11:08:34,0.81191164,2.9674294,10.499766,0.30459297,-0.21724553,0.29004496,-0.13206649,0.1898911,0.7660551,-34.873474,-19.291016,-46.12271,10.94120336875724,0.47339051364244655,0.8002128556172049,60.95577878973926
31/01/2020, 11:08:34,0.81191164,2.9674294,10.499766,0.30459297,-0.21724553,0.29004496,-0.13206649,0.1898911,0.7660551,-34.900467,-19.20665,-44.943924,10.94120336875724,0.47339051364244655,0.8002128556172049,60.057424911358076
31/01/2020, 11:08:34,0.90052736,3.2404616,10.523716,0.30459297,-0.21724553,0.29004496,-0.13206649,0.1898911,0.7660551,-34.900467,-19.20665,-44.943924,11.048083032978077,0.47339051364244655,0.8002128556172049,60.057424911358076
31/01/2020, 11:08:34,1.0562036,3.391348,10.585987,0.30459297,-0.21724553,0.29004496,-0.13206649,0.1898911,0.7660551,-34.900467,-19.20665,-44.943924,11.166016712450967,0.47339051364244655,0.8002128556172049,60.057424911358076
31/01/2020, 11:08:34,1.0562036,3.391348,10.585987,0.30459297,-0.21724553,0.29004496,-0.4901018,0.06643844,1.2578373,-34.900467,-19.20665,-44.943924,11.166016712450967,0.47339051364244655,1.3515800073352084,60.057424911358076
31/01/2020, 11:08:34,1.0562036,3.391348,10.585987,0.30459297,-0.21724553,0.29004496,-0.4901018,0.06643844,1.2578373,-35.150696,-18.873138,-44.8006,11.166016712450967,0.47339051364244655,1.3515800073352084,59.99050227743773
31/01/2020, 11:08:34,1.2765454,3.4464333,10.538086,0.30459297,-0.21724553,0.29004496,-0.4901018,0.06643844,1.2578373,-35.150696,-18.873138,-44.8006,11.160588063765662,0.47339051364244655,1.3515800073352084,59.99050227743773
31/01/2020, 11:08:34,1.585503,3.319497,10.454261,0.30459297,-0.21724553,0.29004496,-0.4901018,0.06643844,1.2578373,-35.150696,-18.873138,-44.8006,11.082619283355358,0.47339051364244655,1.3515800073352084,59.99050227743773
31/01/2020, 11:08:34,1.585503,3.319497,10.454261,0.30459297,-0.21724553,0.29004496,-0.53785795,-0.029908419,1.2271175,-35.150696,-18.873138,-44.8006,11.082619283355358,0.47339051364244655,1.3401504172200607,59.99050227743773
31/01/2020, 11:08:34,1.585503,3.319497,10.454261,0.30459297,-0.21724553,0.29004496,-0.53785795,-0.029908419,1.2271175,-35.181534,-19.293457,-44.487053,11.082619283355358,0.47339051364244655,1.3401504172200607,59.90889485684235
31/01/2020, 11:08:34,1.8513502,3.1183155,10.523716,0.30459297,-0.21724553,0.29004496,-0.53785795,-0.029908419,1.2271175,-35.181534,-19.293457,-44.487053,11.131037089835356,0.47339051364244655,1.3401504172200607,59.90889485684235
31/01/2020, 11:08:34,1.9782863,2.8812087,10.5764065,0.30459297,-0.21724553,0.29004496,-0.53785795,-0.029908419,1.2271175,-35.181534,-19.293457,-44.487053,11.13891170134066,0.47339051364244655,1.3401504172200607,59.90889485684235
31/01/2020, 11:08:34,1.9782863,2.8812087,10.5764065,0.30459297,-0.21724553,0.29004496,-0.52980053,0.39134455,1.2500324,-35.181534,-19.293457,-44.487053,11.13891170134066,0.47339051364244655,1.4129473536326198,59.90889485684235
31/01/2020, 11:08:35,1.9447559,5.113367,7.824529,0.18730687,0.20425133,0.18741964,-0.15198183,-0.15406322,0.28902483,-38.50763,-28.709625,-30.965836,9.547348071906057,0.3345573048991893,0.36106690009367337,57.1486051962222
31/01/2020, 11:08:35,2.1195924,4.897815,7.767049,0.18730687,0.20425133,0.18741964,-0.15198183,-0.15406322,0.28902483,-38.50763,-28.709625,-30.965836,9.423816301346413,0.3345573048991893,0.36106690009367337,57.1486051962222
31/01/2020, 11:08:35,2.2177882,4.82357,7.7239385,0.18730687,0.20425133,0.18741964,-0.15198183,-0.15406322,0.28902483,-38.50763,-28.709625,-30.965836,9.372546898787817,0.3345573048991893,0.36106690009367337,57.1486051962222
31/01/2020, 11:08:35,2.2177882,4.82357,7.7239385,0.18730687,0.20425133,0.18741964,-0.15198183,-0.15406322,0.28902483,-38.37535,-28.821121,-30.744614,9.372546898787817,0.3345573048991893,0.36106690009367337,56.99610387710031
31/01/2020, 11:08:35,2.2177882,4.82357,7.7239385,-0.105908334,0.1541604,0.20941079,-0.15198183,-0.15406322,0.28902483,-38.37535,-28.821121,-30.744614,9.372546898787817,0.28077549802167795,0.36106690009367337,56.99610387710031
31/01/2020, 11:08:35,2.2177882,4.82357,7.7239385,-0.105908334,0.1541604,0.20941079,-0.35999286,-0.059996128,0.07841778,-38.37535,-28.821121,-30.744614,9.372546898787817,0.28077549802167795,0.37328774933424314,56.99610387710031
31/01/2020, 11:08:35,2.2177882,4.82357,7.7239385,-0.105908334,0.1541604,0.20941079,-0.16349256,-0.48632145,0.056229115,-38.37535,-28.821121,-30.744614,9.372546898787817,0.28077549802167795,0.5161395960905163,56.99610387710031
31/01/2020, 11:08:35,2.2058132,4.806804,7.6209526,-0.105908334,0.1541604,0.20941079,-0.16349256,-0.48632145,0.056229115,-38.37535,-28.821121,-30.744614,9.276308360057628,0.28077549802167795,0.5161395960905163,56.99610387710031
31/01/2020, 11:08:35,2.071692,4.9217653,7.5251517,-0.105908334,0.1541604,0.20941079,-0.16349256,-0.48632145,0.056229115,-38.37535,-28.821121,-30.744614,9.227328442880534,0.28077549802167795,0.5161395960905163,56.99610387710031
31/01/2020, 11:08:35,2.071692,4.9217653,7.5251517,-0.105908334,0.1541604,0.20941079,-0.16349256,-0.48632145,0.056229115,-38.76039,-28.933426,-31.218864,9.227328442880534,0.28077549802167795,0.5161395960905163,57.56846845453558
31/01/2020, 11:08:35,2.071692,4.9217653,7.5251517,-0.105908334,0.1541604,0.20941079,-0.16349256,-0.48632145,0.056229115,-38.923843,-28.27951,-30.966064,9.227328442880534,0.28077549802167795,0.5161395960905163,57.216199152774685
31/01/2020, 11:08:35,1.9040406,5.0702567,7.544312,-0.105908334,0.1541604,0.20941079,-0.16349256,-0.48632145,0.056229115,-38.923843,-28.27951,-30.966064,9.287061816025101,0.28077549802167795,0.5161395960905163,57.216199152774685
31/01/2020, 11:08:35,1.7842896,5.130132,7.4676714,-0.105908334,0.1541604,0.20941079,-0.16349256,-0.48632145,0.056229115,-38.923843,-28.27951,-30.966064,9.234070705682106,0.28077549802167795,0.5161395960905163,57.216199152774685
31/01/2020, 11:08:35,1.7842896,5.130132,7.4676714,-0.105908334,0.1541604,0.20941079,0.11482167,-0.75084305,-0.06381416,-38.923843,-28.27951,-30.966064,9.234070705682106,0.28077549802167795,0.7622476938380369,57.216199152774685
31/01/2020, 11:08:35,1.7842896,5.130132,7.4676714,-0.105908334,0.1541604,0.20941079,0.11482167,-0.75084305,-0.06381416,-38.35147,-28.285934,-31.523613,9.234070705682106,0.28077549802167795,0.7622476938380369,57.137269680082966
31/01/2020, 11:08:35,1.710044,5.0415163,7.6496925,-0.105908334,0.1541604,0.20941079,0.11482167,-0.75084305,-0.06381416,-38.35147,-28.285934,-31.523613,9.319814005760037,0.28077549802167795,0.7622476938380369,57.137269680082966
31/01/2020, 11:08:35,1.7651294,4.7804594,7.795789,-0.105908334,0.1541604,0.20941079,0.11482167,-0.75084305,-0.06381416,-38.35147,-28.285934,-31.523613,9.313581295377055,0.28077549802167795,0.7622476938380369,57.137269680082966
31/01/2020, 11:08:35,1.7651294,4.7804594,7.795789,-0.105908334,0.1541604,0.20941079,-0.025117159,-0.6247754,-0.2840352,-38.35147,-28.285934,-31.523613,9.313581295377055,0.28077549802167795,0.6867686527439799,57.137269680082966
31/01/2020, 11:08:35,1.7651294,4.7804594,7.795789,-0.105908334,0.1541604,0.20941079,-0.025117159,-0.6247754,-0.2840352,-38.07068,-28.175308,-31.742859,9.313581295377055,0.28077549802167795,0.6867686527439799,57.016082481440264
31/01/2020, 11:08:35,1.7651294,4.7804594,7.795789,-0.105908334,0.1541604,0.20941079,-0.30739343,-0.3778386,-0.37014532,-38.07068,-28.175308,-31.742859,9.313581295377055,0.28077549802167795,0.6117681724528325,57.016082481440264
31/01/2020, 11:08:36,1.583108,3.0201197,9.429193,-0.11812563,0.38018045,-0.0056137,0.18140197,-0.70881224,0.42577934,-39.153152,-18.49147,-38.086807,10.026815326554638,0.39814865555953094,0.8465279142716793,57.66722387809027
31/01/2020, 11:08:36,1.5040723,3.046465,9.484278,-0.11812563,0.38018045,-0.0056137,0.18140197,-0.70881224,0.42577934,-39.153152,-18.49147,-38.086807,10.074458098948812,0.39814865555953094,0.8465279142716793,57.66722387809027
31/01/2020, 11:08:36,1.5040723,3.046465,9.484278,-0.11812563,0.38018045,-0.0056137,0.18140197,-0.70881224,0.42577934,-38.846603,-18.082138,-38.74945,10.074458098948812,0.39814865555953094,0.8465279142716793,57.77146562423697
31/01/2020, 11:08:36,1.5040723,3.046465,9.484278,-0.11812563,0.38018045,-0.0056137,0.10745108,-0.77305984,0.43377972,-38.846603,-18.082138,-38.74945,10.074458098948812,0.39814865555953094,0.892934544752926,57.77146562423697
31/01/2020, 11:08:36,1.4753321,3.1063404,9.436378,-0.11812563,0.38018045,-0.0056137,0.10745108,-0.77305984,0.43377972,-38.846603,-18.082138,-38.74945,10.043464365395959,0.39814865555953094,0.892934544752926,57.77146562423697
31/01/2020, 11:08:36,1.4394068,3.0752053,9.501043,-0.11812563,0.38018045,-0.0056137,0.10745108,-0.77305984,0.43377972,-38.846603,-18.082138,-38.74945,10.08952941220753,0.39814865555953094,0.892934544752926,57.77146562423697
31/01/2020, 11:08:36,1.4394068,3.0752053,9.501043,-0.11812563,0.38018045,-0.0056137,0.10745108,-0.77305984,0.43377972,-38.53401,-18.305069,-38.97313,10.08952941220753,0.39814865555953094,0.892934544752926,57.78278657024839
31/01/2020, 11:08:36,1.4849122,3.0177248,9.465117,-0.11812563,0.38018045,-0.0056137,0.10745108,-0.77305984,0.43377972,-38.53401,-18.305069,-38.97313,10.04490294744614,0.39814865555953094,0.892934544752926,57.78278657024839
31/01/2020, 11:08:36,1.5783179,3.0225148,9.364527,-0.11812563,0.38018045,-0.0056137,0.10745108,-0.77305984,0.43377972,-38.53401,-18.305069,-38.97313,9.965994400778678,0.39814865555953094,0.892934544752926,57.78278657024839
31/01/2020, 11:08:36,1.5783179,3.0225148,9.364527,-0.11812563,0.38018045,-0.0056137,-0.052048683,-0.61432886,0.469841,-38.53401,-18.305069,-38.97313,9.965994400778678,0.39814865555953094,0.7751513295224324,57.78278657024839
31/01/2020, 11:08:36,1.5783179,3.0225148,9.364527,-0.11812563,0.38018045,-0.0056137,-0.052048683,-0.61432886,0.469841,-38.367126,-17.983063,-39.17601,9.965994400778678,0.39814865555953094,0.7751513295224324,57.70776991600632
31/01/2020, 11:08:36,1.5783179,3.0225148,9.364527,-0.23663345,0.2971028,-0.08869134,-0.052048683,-0.61432886,0.469841,-38.367126,-17.983063,-39.17601,9.965994400778678,0.39004053923090476,0.7751513295224324,57.70776991600632
31/01/2020, 11:08:36,1.5783179,3.0225148,9.364527,-0.23663345,0.2971028,-0.08869134,-0.10159588,-0.49049568,0.45142937,-38.367126,-17.983063,-39.17601,9.965994400778678,0.39004053923090476,0.6743116563026846,57.70776991600632
31/01/2020, 11:08:36,1.6334034,2.9219239,9.390872,-0.23663345,0.2971028,-0.08869134,-0.10159588,-0.49049568,0.45142937,-38.367126,-17.983063,-39.17601,9.969660115635268,0.39004053923090476,0.6743116563026846,57.70776991600632
31/01/2020, 11:08:36,1.7220191,2.936294,9.477093,-0.23663345,0.2971028,-0.08869134,-0.10159588,-0.49049568,0.45142937,-38.367126,-17.983063,-39.17601,10.069878821245247,0.39004053923090476,0.6743116563026846,57.70776991600632
31/01/2020, 11:08:36,1.7220191,2.936294,9.477093,-0.23663345,0.2971028,-0.08869134,-0.10159588,-0.49049568,0.45142937,-38.535202,-17.552277,-39.7154,10.069878821245247,0.39004053923090476,0.6743116563026846,58.054778114135644
31/01/2020, 11:08:36,1.7220191,2.936294,9.477093,-0.23663345,0.2971028,-0.08869134,-0.038751364,-0.531955,0.45226955,-38.535202,-17.552277,-39.7154,10.069878821245247,0.39004053923090476,0.6993036134580545,58.054778114135644
31/01/2020, 11:08:36,1.695674,2.907554,9.613608,-0.23663345,0.2971028,-0.08869134,-0.038751364,-0.531955,0.45226955,-38.535202,-17.552277,-39.7154,10.18580608352291,0.39004053923090476,0.6993036134580545,58.054778114135644
31/01/2020, 11:08:36,1.7220191,2.811753,9.68067,-0.23663345,0.2971028,-0.08869134,-0.038751364,-0.531955,0.45226955,-38.535202,-17.552277,-39.7154,10.226762552453225,0.39004053923090476,0.6993036134580545,58.054778114135644
31/01/2020, 11:08:36,1.7220191,2.811753,9.68067,-0.23663345,0.2971028,-0.08869134,-0.038751364,-0.531955,0.45226955,-38.21852,-17.883636,-39.935326,10.226762552453225,0.39004053923090476,0.6993036134580545,58.097418553626945
31/01/2020, 11:08:37,-0.21315674,4.5720925,9.474698,0.12255518,0.16026905,-0.03860041,-0.116390064,-0.28071213,0.44575977,-31.8078,-26.171127,-43.113174,10.522327184827017,0.20541648715655553,0.5394883883486102,59.627257817249856
31/01/2020, 11:08:37,-0.21315674,4.5720925,9.474698,0.12255518,0.16026905,-0.03860041,-0.116390064,-0.28071213,0.44575977,-31.710266,-26.388077,-43.57956,10.522327184827017,0.20541648715655553,0.5394883883486102,60.00874573179423
31/01/2020, 11:08:37,-0.21315674,4.5720925,9.474698,0.12255518,0.16026905,-0.03860041,-0.2923113,0.22131109,0.4647236,-31.710266,-26.388077,-43.57956,10.522327184827017,0.20541648715655553,0.5919396205354758,60.00874573179423
31/01/2020, 11:08:37,-0.15567628,4.385281,9.611214,0.12255518,0.16026905,-0.03860041,-0.2923113,0.22131109,0.4647236,-31.710266,-26.388077,-43.57956,10.565526668689332,0.20541648715655553,0.5919396205354758,60.00874573179423
31/01/2020, 11:08:37,-0.11256592,4.152964,9.759705,0.12255518,0.16026905,-0.03860041,-0.2923113,0.22131109,0.4647236,-31.710266,-26.388077,-43.57956,10.60714927343685,0.20541648715655553,0.5919396205354758,60.00874573179423
31/01/2020, 11:08:37,-0.11256592,4.152964,9.759705,0.12255518,0.16026905,-0.03860041,-0.2923113,0.22131109,0.4647236,-31.304794,-26.509445,-43.45839,10.60714927343685,0.20541648715655553,0.5919396205354758,59.76096075362854
31/01/2020, 11:08:37,-0.11256592,4.152964,9.759705,0.12255518,0.16026905,-0.03860041,-0.12912536,0.27159595,0.6623478,-31.304794,-26.509445,-43.45839,10.60714927343685,0.20541648715655553,0.7274216934561957,59.76096075362854
31/01/2020, 11:08:37,-0.21794678,4.023633,9.83874,0.12255518,0.16026905,-0.03860041,-0.12912536,0.27159595,0.6623478,-31.304794,-26.509445,-43.45839,10.631929975137723,0.20541648715655553,0.7274216934561957,59.76096075362854
31/01/2020, 11:08:37,-0.23231691,4.112249,9.716595,0.12255518,0.16026905,-0.03860041,-0.12912536,0.27159595,0.6623478,-31.304794,-26.509445,-43.45839,10.553519537569873,0.20541648715655553,0.7274216934561957,59.76096075362854
31/01/2020, 11:08:37,-0.23231691,4.112249,9.716595,0.12255518,0.16026905,-0.03860041,-0.12912536,0.27159595,0.6623478,-31.439774,-26.18164,-43.550247,10.553519537569873,0.20541648715655553,0.7274216934561957,59.754177241523074
31/01/2020, 11:08:37,-0.23231691,4.112249,9.716595,0.20441109,0.0442047,-0.04104387,-0.12912536,0.27159595,0.6623478,-31.439774,-26.18164,-43.550247,10.553519537569873,0.21312566321851115,0.7274216934561957,59.754177241523074
31/01/2020, 11:08:37,-0.21794678,4.3158255,9.630374,0.20441109,0.0442047,-0.04104387,-0.12912536,0.27159595,0.6623478,-31.439774,-26.18164,-43.550247,10.555470275182229,0.21312566321851115,0.7274216934561957,59.754177241523074
31/01/2020, 11:08:37,-0.68976563,4.5074267,9.3453665,0.20441109,0.0442047,-0.04104387,-0.12912536,0.27159595,0.6623478,-31.439774,-26.18164,-43.550247,10.398487728506229,0.21312566321851115,0.7274216934561957,59.754177241523074
31/01/2020, 11:08:37,-0.68976563,4.5074267,9.3453665,0.20441109,0.0442047,-0.04104387,-0.020206414,-0.14258051,0.9449768,-31.439774,-26.18164,-43.550247,10.398487728506229,0.21312566321851115,0.9558863247592382,59.754177241523074
31/01/2020, 11:08:37,-0.68976563,4.5074267,9.3453665,0.20441109,0.0442047,-0.04104387,-0.020206414,-0.14258051,0.9449768,-31.376373,-26.830627,-43.583656,10.398487728506229,0.21312566321851115,0.9558863247592382,60.03244512124369
31/01/2020, 11:08:37,-0.37601808,4.6942387,9.299861,0.20441109,0.0442047,-0.04104387,-0.020206414,-0.14258051,0.9449768,-31.376373,-26.830627,-43.583656,10.424235223071936,0.21312566321851115,0.9558863247592382,60.03244512124369
31/01/2020, 11:08:37,-0.3161426,4.775669,9.3453665,0.20441109,0.0442047,-0.04104387,-0.020206414,-0.14258051,0.9449768,-31.376373,-26.830627,-43.583656,10.499658855249743,0.21312566321851115,0.9558863247592382,60.03244512124369
31/01/2020, 11:08:37,-0.3161426,4.775669,9.3453665,0.20441109,0.0442047,-0.04104387,-0.12758686,-0.20136881,0.9108715,-31.376373,-26.830627,-43.583656,10.499658855249743,0.21312566321851115,0.9415490975236703,60.03244512124369
31/01/2020, 11:08:37,-0.3161426,4.775669,9.3453665,0.20441109,0.0442047,-0.04104387,-0.12758686,-0.20136881,0.9108715,-31.466019,-26.934235,-43.708626,10.499658855249743,0.21312566321851115,0.9415490975236703,60.21633743958065
31/01/2020, 11:08:37,-0.21794678,4.5864625,9.410032,0.20441109,0.0442047,-0.04104387,-0.12758686,-0.20136881,0.9108715,-31.466019,-26.934235,-43.708626,10.470522738118806,0.21312566321851115,0.9415490975236703,60.21633743958065
31/01/2020, 11:08:38,-0.17483643,4.5625124,8.988508,-0.033826265,-0.046203323,0.02126436,0.17781796,0.6827526,0.10079384,-32.06732,-27.774734,-42.10759,10.081684743019999,0.06108302746830355,0.7126919030407739,59.772887788057865
31/01/2020, 11:08:38,-0.05269043,4.6583133,8.974138,-0.033826265,-0.046203323,0.02126436,0.17781796,0.6827526,0.10079384,-32.06732,-27.774734,-42.10759,10.111271747482963,0.06108302746830355,0.7126919030407739,59.772887788057865
31/01/2020, 11:08:38,-0.05269043,4.6583133,8.974138,-0.033826265,-0.046203323,0.02126436,0.09530859,0.2482152,0.3137474,-32.06732,-27.774734,-42.10759,10.111271747482963,0.06108302746830355,0.41125654559840735,59.772887788057865
31/01/2020, 11:08:38,-0.05269043,4.6583133,8.974138,-0.033826265,-0.046203323,0.02126436,0.09530859,0.2482152,0.3137474,-32.25737,-27.769333,-41.885773,10.111271747482963,0.06108302746830355,0.41125654559840735,59.716762496157784
31/01/2020, 11:08:38,0.06466553,4.6942387,9.041199,-0.033826265,-0.046203323,0.02126436,0.09530859,0.2482152,0.3137474,-32.25737,-27.769333,-41.885773,10.187410502067662,0.06108302746830355,0.41125654559840735,59.716762496157784
31/01/2020, 11:08:38,0.17723145,4.6032276,9.048384,-0.033826265,-0.046203323,0.02126436,0.09530859,0.2482152,0.3137474,-32.25737,-27.769333,-41.885773,10.153539445813674,0.06108302746830355,0.41125654559840735,59.716762496157784
31/01/2020, 11:08:38,0.17723145,4.6032276,9.048384,-0.033826265,-0.046203323,0.02126436,-0.14741603,0.24787712,0.19212818,-32.25737,-27.769333,-41.885773,10.153539445813674,0.06108302746830355,0.3465368519453067,59.716762496157784
31/01/2020, 11:08:38,0.17723145,4.6032276,9.048384,-0.033826265,-0.046203323,0.02126436,-0.14741603,0.24787712,0.19212818,-32.533356,-27.869736,-41.673492,10.153539445813674,0.06108302746830355,0.3465368519453067,59.76471680155456
31/01/2020, 11:08:38,0.17723145,4.6032276,9.048384,-0.033826265,-0.046203323,0.02126436,-0.2959901,0.43852472,0.092905045,-32.533356,-27.869736,-41.673492,10.153539445813674,0.06108302746830355,0.5371642438966446,59.76471680155456
31/01/2020, 11:08:38,0.27542725,4.5002418,9.12263,-0.033826265,-0.046203323,0.02126436,-0.2959901,0.43852472,0.092905045,-32.533356,-27.869736,-41.673492,10.175972500531126,0.06108302746830355,0.5371642438966446,59.76471680155456
31/01/2020, 11:08:38,0.30416748,4.402046,9.1202345,-0.033826265,-0.046203323,0.02126436,-0.2959901,0.43852472,0.092905045,-32.533356,-27.869736,-41.673492,10.131594434075184,0.06108302746830355,0.5371642438966446,59.76471680155456
31/01/2020, 11:08:38,0.30416748,4.402046,9.1202345,-0.033826265,-0.046203323,0.02126436,-0.2959901,0.43852472,0.092905045,-32.283295,-27.553574,-42.106796,10.131594434075184,0.06108302746830355,0.5371642438966446,59.78622605178784
31/01/2020, 11:08:38,0.30416748,4.402046,9.1202345,-0.10346487,-0.09995945,0.0432555,-0.2959901,0.43852472,0.092905045,-32.283295,-27.553574,-42.106796,10.131594434075184,0.15022619354850575,0.5371642438966446,59.78622605178784
31/01/2020, 11:08:38,0.30416748,4.402046,9.1202345,-0.10346487,-0.09995945,0.0432555,-0.083146356,0.5958042,0.13412762,-32.283295,-27.553574,-42.106796,10.131594434075184,0.15022619354850575,0.6163490862518499,59.78622605178784
31/01/2020, 11:08:38,0.23231691,4.358936,9.074729,-0.10346487,-0.09995945,0.0432555,-0.083146356,0.5958042,0.13412762,-32.283295,-27.553574,-42.106796,10.070004893009882,0.15022619354850575,0.6163490862518499,59.78622605178784
31/01/2020, 11:08:38,0.17962648,4.406836,8.995694,-0.10346487,-0.09995945,0.0432555,-0.083146356,0.5958042,0.13412762,-32.283295,-27.553574,-42.106796,10.018731602421742,0.15022619354850575,0.6163490862518499,59.78622605178784
31/01/2020, 11:08:38,0.17962648,4.406836,8.995694,-0.10346487,-0.09995945,0.0432555,-0.083146356,0.5958042,0.13412762,-32.402298,-27.334793,-42.101425,10.018731602421742,0.15022619354850575,0.6163490862518499,59.74637921004759
31/01/2020, 11:08:38,0.17962648,4.406836,8.995694,-0.10346487,-0.09995945,0.0432555,0.10272804,0.42081738,0.20728779,-32.402298,-27.334793,-42.101425,10.018731602421742,0.15022619354850575,0.4802171805279965,59.74637921004759
31/01/2020, 11:08:38,0.19160157,4.4595265,8.8951025,-0.10346487,-0.09995945,0.0432555,0.10272804,0.42081738,0.20728779,-32.402298,-27.334793,-42.101425,9.95223274525931,0.15022619354850575,0.4802171805279965,59.74637921004759
31/01/2020, 11:08:38,0.25866213,4.5457473,8.885523,-0.10346487,-0.09995945,0.0432555,0.10272804,0.42081738,0.20728779,-32.402298,-27.334793,-42.101425,9.984149468905386,0.15022619354850575,0.4802171805279965,59.74637921004759
31/01/2020, 11:08:39,0.8933423,3.6332448,8.614885,-0.8377246,-0.1671546,-0.060591552,0.3550819,0.12127066,-0.4554758,-32.44249,-26.901398,-41.85057,9.392272205418795,0.8563845771922538,0.5901253501478055,59.39419666621841
31/01/2020, 11:08:39,0.9196875,3.8080812,8.490345,-0.8377246,-0.1671546,-0.060591552,0.3550819,0.12127066,-0.4554758,-32.44249,-26.901398,-41.85057,9.350575672136715,0.8563845771922538,0.5901253501478055,59.39419666621841
31/01/2020, 11:08:39,0.9196875,3.8080812,8.490345,-0.8377246,-0.1671546,-0.060591552,0.3550819,0.12127066,-0.4554758,-32.4308,-26.899475,-41.15767,9.350575672136715,0.8563845771922538,0.5901253501478055,58.900699168101006
31/01/2020, 11:08:39,0.9196875,3.8080812,8.490345,-0.8377246,-0.1671546,-0.060591552,0.4182714,0.1908598,-0.5626936,-32.4308,-26.899475,-41.15767,9.350575672136715,0.8563845771922538,0.7266378065491333,58.900699168101006
31/01/2020, 11:08:39,0.8262818,3.9398074,8.461604,-0.8377246,-0.1671546,-0.060591552,0.4182714,0.1908598,-0.5626936,-32.4308,-26.899475,-41.15767,9.370355826370924,0.8563845771922538,0.7266378065491333,58.900699168101006
31/01/2020, 11:08:39,0.57959473,3.8152664,8.851993,-0.8377246,-0.1671546,-0.060591552,0.4182714,0.1908598,-0.5626936,-32.4308,-26.899475,-41.15767,9.656601920395651,0.8563845771922538,0.7266378065491333,58.900699168101006
31/01/2020, 11:08:39,0.57959473,3.8152664,8.851993,-0.8377246,-0.1671546,-0.060591552,0.4182714,0.1908598,-0.5626936,-32.536224,-27.008469,-42.322037,9.656601920395651,0.8563845771922538,0.7266378065491333,59.826566570884395
31/01/2020, 11:08:39,0.19878663,3.03928,8.880733,-0.8377246,-0.1671546,-0.060591552,0.4182714,0.1908598,-0.5626936,-32.536224,-27.008469,-42.322037,9.388511545836677,0.8563845771922538,0.7266378065491333,59.826566570884395
31/01/2020, 11:08:39,0.25387207,2.186653,8.983719,-0.8377246,-0.1671546,-0.060591552,0.4182714,0.1908598,-0.5626936,-32.536224,-27.008469,-42.322037,9.249492240033566,0.8563845771922538,0.7266378065491333,59.826566570884395
31/01/2020, 11:08:39,0.25387207,2.186653,8.983719,-0.8377246,-0.1671546,-0.060591552,0.40967274,0.67854667,-0.7881746,-32.536224,-27.008469,-42.322037,9.249492240033566,0.8563845771922538,1.117799882404904,59.826566570884395
31/01/2020, 11:08:39,0.25387207,2.186653,8.983719,-0.8377246,-0.1671546,-0.060591552,0.40967274,0.67854667,-0.7881746,-33.037277,-26.779205,-41.98851,9.249492240033566,0.8563845771922538,1.117799882404904,59.76305302614203
31/01/2020, 11:08:39,0.5364844,1.8154249,8.969349,-0.8377246,-0.1671546,-0.060591552,0.40967274,0.67854667,-0.7881746,-33.037277,-26.779205,-41.98851,9.166940765280554,0.8563845771922538,1.117799882404904,59.76305302614203
31/01/2020, 11:08:39,0.847837,1.9830762,8.686736,-0.8377246,-0.1671546,-0.060591552,0.40967274,0.67854667,-0.7881746,-33.037277,-26.779205,-41.98851,8.950463842393022,0.8563845771922538,1.117799882404904,59.76305302614203
31/01/2020, 11:08:39,0.847837,1.9830762,8.686736,-0.8377246,-0.1671546,-0.060591552,0.020147443,0.9473877,-0.5080652,-33.037277,-26.779205,-41.98851,8.950463842393022,0.8563845771922538,1.0752114379082385,59.76305302614203
31/01/2020, 11:08:39,0.847837,1.9830762,8.686736,-0.8377246,-0.1671546,-0.060591552,0.020147443,0.9473877,-0.5080652,-33.413345,-26.010605,-41.920677,8.950463842393022,0.8563845771922538,1.0752114379082385,59.5847831862927
31/01/2020, 11:08:39,0.847837,1.9830762,8.686736,-1.5719844,-0.12561578,-0.01660927,0.020147443,0.9473877,-0.5080652,-33.413345,-26.010605,-41.920677,8.950463842393022,1.5770828060415967,1.0752114379082385,59.5847831862927
31/01/2020, 11:08:39,1.0322535,2.5219557,8.190968,-1.5719844,-0.12561578,-0.01660927,0.020147443,0.9473877,-0.5080652,-33.413345,-26.010605,-41.920677,8.632366857282463,1.5770828060415967,1.0752114379082385,59.5847831862927
31/01/2020, 11:08:39,0.855022,3.04886,7.829319,-1.5719844,-0.12561578,-0.01660927,0.020147443,0.9473877,-0.5080652,-33.413345,-26.010605,-41.920677,8.445403862213984,1.5770828060415967,1.0752114379082385,59.5847831862927
31/01/2020, 11:08:39,0.855022,3.04886,7.829319,-1.5719844,-0.12561578,-0.01660927,-0.35887358,-0.39182687,-0.45664024,-33.413345,-26.010605,-41.920677,8.445403862213984,1.5770828060415967,0.7005989223805101,59.5847831862927
31/01/2020, 11:08:39,0.855022,3.04886,7.829319,-1.5719844,-0.12561578,-0.01660927,-0.35887358,-0.39182687,-0.45664024,-33.62793,-25.1725,-42.60125,8.445403862213984,1.5770828060415967,0.7005989223805101,59.82774371147849
31/01/2020, 11:08:40,0.16765137,3.4344583,8.940608,0.045586187,-0.29177105,-0.05203944,-0.34485957,0.6170356,-0.70101833,-37.93155,-20.275208,-32.69313,9.579043915862488,0.29986088771321395,0.9955339233060612,54.0252462874979
31/01/2020, 11:08:40,0.16765137,3.4344583,8.940608,0.045586187,-0.29177105,-0.05203944,-0.47820842,0.68641376,-0.4698887,-37.93155,-20.275208,-32.69313,9.579043915862488,0.29986088771321395,0.9595011883879389,54.0252462874979
31/01/2020, 11:08:40,0.28979737,3.3434474,8.741821,0.045586187,-0.29177105,-0.05203944,-0.47820842,0.68641376,-0.4698887,-37.93155,-20.275208,-32.69313,9.363870075600206,0.29986088771321395,0.9595011883879389,54.0252462874979
31/01/2020, 11:08:40,0.47181886,3.3889527,8.602911,0.045586187,-0.29177105,-0.05203944,-0.47820842,0.68641376,-0.4698887,-37.93155,-20.275208,-32.69313,9.25838491624084,0.29986088771321395,0.9595011883879389,54.0252462874979
31/01/2020, 11:08:40,0.47181886,3.3889527,8.602911,0.045586187,-0.29177105,-0.05203944,-0.47820842,0.68641376,-0.4698887,-38.201096,-20.263962,-32.709106,9.25838491624084,0.29986088771321395,0.9595011883879389,54.220268309470576
31/01/2020, 11:08:40,0.6586304,3.5015187,8.586145,0.045586187,-0.29177105,-0.05203944,-0.47820842,0.68641376,-0.4698887,-38.201096,-20.263962,-32.709106,9.296037876634818,0.29986088771321395,0.9595011883879389,54.220268309470576
31/01/2020, 11:08:40,0.8430469,3.6284547,8.590936,0.045586187,-0.29177105,-0.05203944,-0.47820842,0.68641376,-0.4698887,-38.201096,-20.263962,-32.709106,9.363791315899292,0.29986088771321395,0.9595011883879389,54.220268309470576
31/01/2020, 11:08:40,0.8430469,3.6284547,8.590936,0.045586187,-0.29177105,-0.05203944,-0.74960744,0.48268676,-0.3463869,-38.201096,-20.263962,-32.709106,9.363791315899292,0.29986088771321395,0.956494494111493,54.220268309470576
31/01/2020, 11:08:40,0.8430469,3.6284547,8.590936,0.045586187,-0.29177105,-0.05203944,-0.74960744,0.48268676,-0.3463869,-37.819107,-20.711319,-31.424835,9.363791315899292,0.29986088771321395,0.956494494111493,53.35507341968383
31/01/2020, 11:08:40,0.8430469,3.6284547,8.590936,0.045586187,-0.29177105,-0.05203944,-0.77046597,0.39446306,-0.3344164,-37.819107,-20.711319,-31.424835,9.363791315899292,0.29986088771321395,0.9279295447608501,53.35507341968383
31/01/2020, 11:08:40,0.84544194,3.7362306,8.686736,0.045586187,-0.29177105,-0.05203944,-0.77046597,0.39446306,-0.3344164,-37.819107,-20.711319,-31.424835,9.493870414356667,0.29986088771321395,0.9279295447608501,53.35507341968383
31/01/2020, 11:08:40,0.76161623,3.642825,8.782537,0.045586187,-0.29177105,-0.05203944,-0.77046597,0.39446306,-0.3344164,-37.819107,-20.711319,-31.424835,9.538511240763366,0.29986088771321395,0.9279295447608501,53.35507341968383
31/01/2020, 11:08:40,0.76161623,3.642825,8.782537,0.045586187,-0.29177105,-0.05203944,-0.77046597,0.39446306,-0.3344164,-38.244446,-20.157867,-31.537033,9.538511240763366,0.29986088771321395,0.9279295447608501,53.5122575636277
31/01/2020, 11:08:40,0.76161623,3.642825,8.782537,0.045586187,-0.29177105,-0.05203944,-0.5148089,0.48893523,-0.7116251,-38.244446,-20.157867,-31.537033,9.538511240763366,0.29986088771321395,1.005234370461637,53.5122575636277
31/01/2020, 11:08:40,0.61073,3.535049,8.880733,0.045586187,-0.29177105,-0.05203944,-0.5148089,0.48893523,-0.7116251,-38.244446,-20.157867,-31.537033,9.577941984913684,0.29986088771321395,1.005234370461637,53.5122575636277
31/01/2020, 11:08:40,0.37601808,3.4464333,8.993299,0.045586187,-0.29177105,-0.05203944,-0.5148089,0.48893523,-0.7116251,-38.244446,-20.157867,-31.537033,9.638397718778585,0.29986088771321395,1.005234370461637,53.5122575636277
31/01/2020, 11:08:40,0.37601808,3.4464333,8.993299,0.045586187,-0.29177105,-0.05203944,-0.5148089,0.48893523,-0.7116251,-38.279022,-20.695023,-31.451721,9.638397718778585,0.29986088771321395,1.005234370461637,53.69151019935261
31/01/2020, 11:08:40,0.37601808,3.4464333,8.993299,0.045586187,-0.12072886,0.08968124,-0.5148089,0.48893523,-0.7116251,-38.279022,-20.695023,-31.451721,9.638397718778585,0.15715050756550972,1.005234370461637,53.69151019935261
31/01/2020, 11:08:40,0.29698244,3.3506324,9.043594,0.045586187,-0.12072886,0.08968124,-0.5148089,0.48893523,-0.7116251,-38.279022,-20.695023,-31.451721,9.648913679672978,0.15715050756550972,1.005234370461637,53.69151019935261
31/01/2020, 11:08:40,0.25147706,3.3458424,9.005274,0.045586187,-0.12072886,0.08968124,-0.5148089,0.48893523,-0.7116251,-38.279022,-20.695023,-31.451721,9.61003945753406,0.15715050756550972,1.005234370461637,53.69151019935261
31/01/2020, 11:08:41,0.89573735,3.0656252,9.699829,0.48296556,0.25312054,0.0041601406,-0.1827569,0.748044,0.07669735,-39.475586,-11.92099,-33.414307,10.21210496468523,0.5452917075213717,0.773855551805398,53.074926054870126
31/01/2020, 11:08:41,0.78556645,2.8476784,9.644744,0.48296556,0.25312054,0.0041601406,-0.1827569,0.748044,0.07669735,-39.475586,-11.92099,-33.414307,10.086995207530192,0.5452917075213717,0.773855551805398,53.074926054870126
31/01/2020, 11:08:41,0.73527104,2.8500733,9.462723,0.48296556,0.25312054,0.0041601406,-0.1827569,0.748044,0.07669735,-39.475586,-11.92099,-33.414307,9.909927542928004,0.5452917075213717,0.773855551805398,53.074926054870126
31/01/2020, 11:08:41,0.73527104,2.8500733,9.462723,0.48296556,0.25312054,0.0041601406,-0.1827569,0.748044,0.07669735,-38.926666,-12.57959,-33.670135,9.909927542928004,0.5452917075213717,0.773855551805398,52.983105337390235
31/01/2020, 11:08:41,0.73527104,2.8500733,9.462723,0.3510187,0.062530644,0.031038199,-0.1827569,0.748044,0.07669735,-38.926666,-12.57959,-33.670135,9.909927542928004,0.35789324791395266,0.773855551805398,52.983105337390235
31/01/2020, 11:08:41,0.73527104,2.8500733,9.462723,0.3510187,0.062530644,0.031038199,0.19877613,0.2645023,0.20549774,-38.926666,-12.57959,-33.670135,9.909927542928004,0.35789324791395266,0.389490346293186,52.983105337390235
31/01/2020, 11:08:41,0.62031007,3.1255007,9.295072,0.3510187,0.062530644,0.031038199,0.19877613,0.2645023,0.20549774,-38.926666,-12.57959,-33.670135,9.826082391217833,0.35789324791395266,0.389490346293186,52.983105337390235
31/01/2020, 11:08:41,0.5388794,3.544629,9.1130495,0.3510187,0.062530644,0.031038199,0.19877613,0.2645023,0.20549774,-38.926666,-12.57959,-33.670135,9.792980024315733,0.35789324791395266,0.389490346293186,52.983105337390235
31/01/2020, 11:08:41,0.5388794,3.544629,9.1130495,0.3510187,0.062530644,0.031038199,0.19877613,0.2645023,0.20549774,-39.407166,-12.67572,-33.927155,9.792980024315733,0.35789324791395266,0.389490346293186,53.52242887906364
31/01/2020, 11:08:41,0.5388794,3.544629,9.1130495,0.3510187,0.062530644,0.031038199,0.11258888,-0.27853465,0.3750229,-39.407166,-12.67572,-33.927155,9.792980024315733,0.35789324791395266,0.4805205248579937,53.52242887906364
31/01/2020, 11:08:41,0.39996827,3.891907,9.067544,0.3510187,0.062530644,0.031038199,0.11258888,-0.27853465,0.3750229,-39.407166,-12.67572,-33.927155,9.875589522729951,0.35789324791395266,0.4805205248579937,53.52242887906364
31/01/2020, 11:08:41,0.27542725,4.009263,9.065149,0.3510187,0.062530644,0.031038199,0.11258888,-0.27853465,0.3750229,-39.407166,-12.67572,-33.927155,9.915996281105281,0.35789324791395266,0.4805205248579937,53.52242887906364
31/01/2020, 11:08:41,0.27542725,4.009263,9.065149,0.3510187,0.062530644,0.031038199,0.11258888,-0.27853465,0.3750229,-39.323135,-12.5686035,-34.031403,9.915996281105281,0.35789324791395266,0.4805205248579937,53.50154326960531
31/01/2020, 11:08:41,0.15328126,3.8679566,9.223221,0.3510187,0.062530644,0.031038199,0.11258888,-0.27853465,0.3750229,-39.323135,-12.5686035,-34.031403,10.00261896155087,0.35789324791395266,0.4805205248579937,53.50154326960531
31/01/2020, 11:08:41,0.08861572,3.6452198,9.402847,0.3510187,0.062530644,0.031038199,0.11258888,-0.27853465,0.3750229,-39.323135,-12.5686035,-34.031403,10.085088860158171,0.35789324791395266,0.4805205248579937,53.50154326960531
31/01/2020, 11:08:41,0.08861572,3.6452198,9.402847,0.3510187,0.062530644,0.031038199,-0.040668428,-0.06144452,0.045344353,-39.323135,-12.5686035,-34.031403,10.085088860158171,0.35789324791395266,0.08651855587131356,53.50154326960531
31/01/2020, 11:08:41,0.08861572,3.6452198,9.402847,0.3510187,0.062530644,0.031038199,-0.040668428,-0.06144452,0.045344353,-39.116516,-12.682587,-33.909454,10.085088860158171,0.35789324791395266,0.08651855587131356,53.29916445408874
31/01/2020, 11:08:41,0.08861572,3.6452198,9.402847,0.3510187,0.062530644,0.031038199,-0.25228524,0.67470455,-0.17233753,-39.116516,-12.682587,-33.909454,10.085088860158171,0.35789324791395266,0.7406580185233199,53.29916445408874
31/01/2020, 11:08:41,0.040715333,3.3386574,9.635164,0.3510187,0.062530644,0.031038199,-0.25228524,0.67470455,-0.17233753,-39.116516,-12.682587,-33.909454,10.197287931971843,0.35789324791395266,0.7406580185233199,53.29916445408874
31/01/2020, 11:08:41,0.098195806,3.1207106,9.83874,0.3510187,0.062530644,0.031038199,-0.25228524,0.67470455,-0.17233753,-39.116516,-12.682587,-33.909454,10.322271493596464,0.35789324791395266,0.7406580185233199,53.29916445408874
31/01/2020, 11:08:42,0.07903565,3.5949244,9.438772,0.06024695,-0.07063793,0.17275888,-0.70801216,0.3486786,0.3233385,-39.586792,-13.417084,-32.100998,10.100502418528293,0.19612506493136955,0.8528808670282227,52.70300090216398
31/01/2020, 11:08:42,0.2802173,3.530259,9.501043,0.06024695,-0.07063793,0.17275888,-0.70801216,0.3486786,0.3233385,-39.586792,-13.417084,-32.100998,10.139579564797563,0.19612506493136955,0.8528808670282227,52.70300090216398
31/01/2020, 11:08:42,0.3520679,3.4416432,9.606423,0.06024695,-0.07063793,0.17275888,-0.70801216,0.3486786,0.3233385,-39.586792,-13.417084,-32.100998,10.210398135868715,0.19612506493136955,0.8528808670282227,52.70300090216398
31/01/2020, 11:08:42,0.3520679,3.4416432,9.606423,0.06024695,-0.07063793,0.17275888,-0.70801216,0.3486786,0.3233385,-39.611435,-13.311127,-32.904404,10.210398135868715,0.19612506493136955,0.8528808670282227,53.187890106289835
31/01/2020, 11:08:42,0.3520679,3.4416432,9.606423,-0.446771,-0.33575335,0.3401359,-0.70801216,0.3486786,0.3233385,-39.611435,-13.311127,-32.904404,10.210398135868715,0.654237776110473,0.8528808670282227,53.187890106289835
31/01/2020, 11:08:42,0.3520679,3.4416432,9.606423,-0.446771,-0.33575335,0.3401359,-0.76675236,0.65991926,0.1608839,-39.611435,-13.311127,-32.904404,10.210398135868715,0.654237776110473,1.0243467419256946,53.187890106289835
31/01/2020, 11:08:42,0.39757326,3.307522,9.697434,-0.446771,-0.33575335,0.3401359,-0.76675236,0.65991926,0.1608839,-39.611435,-13.311127,-32.904404,10.25368231907134,0.654237776110473,1.0243467419256946,53.187890106289835
31/01/2020, 11:08:42,0.32093263,3.0895753,9.788445,-0.446771,-0.33575335,0.3401359,-0.76675236,0.65991926,0.1608839,-39.611435,-13.311127,-32.904404,10.26947603337364,0.654237776110473,1.0243467419256946,53.187890106289835
31/01/2020, 11:08:42,0.32093263,3.0895753,9.788445,-0.446771,-0.33575335,0.3401359,-0.76675236,0.65991926,0.1608839,-40.04338,-12.868805,-32.902817,10.26947603337364,0.654237776110473,1.0243467419256946,53.40106583958319
31/01/2020, 11:08:42,0.4143384,2.9482691,9.735755,-0.446771,-0.33575335,0.3401359,-0.76675236,0.65991926,0.1608839,-40.04338,-12.868805,-32.902817,10.180809984773921,0.654237776110473,1.0243467419256946,53.40106583958319
31/01/2020, 11:08:42,0.53169435,3.0368848,9.6758795,-0.446771,-0.33575335,0.3401359,-0.76675236,0.65991926,0.1608839,-40.04338,-12.868805,-32.902817,10.155196293608856,0.654237776110473,1.0243467419256946,53.40106583958319
31/01/2020, 11:08:42,0.53169435,3.0368848,9.6758795,-0.446771,-0.33575335,0.3401359,-0.77644247,0.34405446,0.22716713,-40.04338,-12.868805,-32.902817,10.155196293608856,0.654237776110473,0.8791139191894128,53.40106583958319
31/01/2020, 11:08:42,0.53169435,3.0368848,9.6758795,-0.446771,-0.33575335,0.3401359,-0.77644247,0.34405446,0.22716713,-40.040787,-12.758377,-32.089462,10.155196293608856,0.654237776110473,0.8791139191894128,52.87508277101327
31/01/2020, 11:08:42,0.59156984,3.2739918,9.522598,-0.446771,-0.33575335,0.3401359,-0.77644247,0.34405446,0.22716713,-40.040787,-12.758377,-32.089462,10.087063749283635,0.654237776110473,0.8791139191894128,52.87508277101327
31/01/2020, 11:08:42,0.5388794,3.535049,9.321417,-0.446771,-0.33575335,0.3401359,-0.77644247,0.34405446,0.22716713,-40.040787,-12.758377,-32.089462,9.983775555624057,0.654237776110473,0.8791139191894128,52.87508277101327
31/01/2020, 11:08:42,0.5388794,3.535049,9.321417,-0.446771,-0.33575335,0.3401359,-0.58138216,0.25033808,0.3814926,-40.040787,-12.758377,-32.089462,9.983775555624057,0.654237776110473,0.7390608762569976,52.87508277101327
31/01/2020, 11:08:42,0.5388794,3.535049,9.321417,-0.446771,-0.33575335,0.3401359,-0.58138216,0.25033808,0.3814926,-40.478577,-12.317001,-32.43431,9.983775555624057,0.654237776110473,0.7390608762569976,53.31236455942237
31/01/2020, 11:08:42,0.4382886,3.532654,9.144185,-0.446771,-0.33575335,0.3401359,-0.58138216,0.25033808,0.3814926,-40.478577,-12.317001,-32.43431,9.812637873550916,0.654237776110473,0.7390608762569976,53.31236455942237
31/01/2020, 11:08:42,0.4526587,3.439248,9.065149,-0.446771,-0.33575335,0.3401359,-0.58138216,0.25033808,0.3814926,-40.478577,-12.317001,-32.43431,9.706196951608378,0.654237776110473,0.7390608762569976,53.31236455942237
31/01/2020, 11:08:42,0.4526587,3.439248,9.065149,-0.446771,-0.33575335,0.3401359,-0.6922927,-0.053868294,0.5554714,-40.478577,-12.317001,-32.43431,9.706196951608378,0.654237776110473,0.8892240779695627,53.31236455942237
31/01/2020, 11:08:43,-0.46463382,1.9926564,8.5430355,0.9227883,-0.2856624,-0.15955168,0.35929286,-0.77006984,-0.59342384,-37.336227,-5.071045,-37.30565,8.784646811113662,0.979080200894639,1.0364606964702514,53.02283288356868
31/01/2020, 11:08:43,-0.2802173,1.2358302,8.976534,0.9227883,-0.2856624,-0.15955168,0.35929286,-0.77006984,-0.59342384,-37.336227,-5.071045,-37.30565,9.065536865340235,0.979080200894639,1.0364606964702514,53.02283288356868
31/01/2020, 11:08:43,-0.2802173,1.2358302,8.976534,0.9227883,-0.2856624,-0.15955168,-0.8376531,0.8680215,-1.111866,-37.336227,-5.071045,-37.30565,9.065536865340235,0.979080200894639,1.6405395504847133,53.02283288356868
31/01/2020, 11:08:43,-0.2802173,1.2358302,8.976534,0.9227883,-0.2856624,-0.15955168,-0.8376531,0.8680215,-1.111866,-38.095993,-5.8788757,-37.405502,9.065536865340235,0.979080200894639,1.6405395504847133,53.71254480560963
31/01/2020, 11:08:43,-0.14370118,1.3004956,9.237591,0.9227883,-0.2856624,-0.15955168,-0.8376531,0.8680215,-1.111866,-38.095993,-5.8788757,-37.405502,9.329792200179236,0.979080200894639,1.6405395504847133,53.71254480560963
31/01/2020, 11:08:43,-0.17244141,2.0549269,9.153765,0.9227883,-0.2856624,-0.15955168,-0.8376531,0.8680215,-1.111866,-38.095993,-5.8788757,-37.405502,9.383169460542272,0.979080200894639,1.6405395504847133,53.71254480560963
31/01/2020, 11:08:43,-0.17244141,2.0549269,9.153765,0.9227883,-0.2856624,-0.15955168,-1.5784277,0.81280017,-1.2418718,-38.095993,-5.8788757,-37.405502,9.383169460542272,0.979080200894639,2.166638798520716,53.71254480560963
31/01/2020, 11:08:43,-0.17244141,2.0549269,9.153765,0.9227883,-0.2856624,-0.15955168,-1.5784277,0.81280017,-1.2418718,-37.946533,-6.767456,-36.514008,9.383169460542272,0.979080200894639,2.166638798520716,53.09435555960916
31/01/2020, 11:08:43,-0.17244141,2.0549269,9.153765,0.8445976,-0.17204152,-0.47109285,-1.5784277,0.81280017,-1.2418718,-37.946533,-6.767456,-36.514008,9.383169460542272,0.9822788946660109,2.166638798520716,53.09435555960916
31/01/2020, 11:08:43,-0.4406836,3.290757,8.669971,0.8445976,-0.17204152,-0.47109285,-1.5784277,0.81280017,-1.2418718,-37.946533,-6.767456,-36.514008,9.283947894310655,0.9822788946660109,2.166638798520716,53.09435555960916
31/01/2020, 11:08:43,-0.90052736,4.519402,8.260423,0.8445976,-0.17204152,-0.47109285,-1.5784277,0.81280017,-1.2418718,-37.946533,-6.767456,-36.514008,9.4588861657815,0.9822788946660109,2.166638798520716,53.09435555960916
31/01/2020, 11:08:43,-0.90052736,4.519402,8.260423,0.8445976,-0.17204152,-0.47109285,-0.90840065,-1.2606977,-0.69584656,-37.946533,-6.767456,-36.514008,9.4588861657815,0.9822788946660109,1.7025724444875883,53.09435555960916
31/01/2020, 11:08:43,-0.90052736,4.519402,8.260423,0.8445976,-0.17204152,-0.47109285,-0.90840065,-1.2606977,-0.69584656,-38.333466,-6.65152,-36.06012,9.4588861657815,0.9822788946660109,1.7025724444875883,53.04742713886317
31/01/2020, 11:08:43,-1.0681788,5.3097587,7.9682302,0.8445976,-0.17204152,-0.47109285,-0.90840065,-1.2606977,-0.69584656,-38.333466,-6.65152,-36.06012,9.634689212904265,0.9822788946660109,1.7025724444875883,53.04742713886317
31/01/2020, 11:08:43,-0.8047266,5.1900077,7.9059596,0.8445976,-0.17204152,-0.47109285,-0.90840065,-1.2606977,-0.69584656,-38.333466,-6.65152,-36.06012,9.491467851882213,0.9822788946660109,1.7025724444875883,53.04742713886317
31/01/2020, 11:08:43,-0.8047266,5.1900077,7.9059596,0.8445976,-0.17204152,-0.47109285,-0.5735236,-2.0714493,0.04041481,-38.333466,-6.65152,-36.06012,9.491467851882213,0.9822788946660109,2.149759236193566,53.04742713886317
31/01/2020, 11:08:43,-0.8047266,5.1900077,7.9059596,0.8445976,-0.17204152,-0.47109285,-0.5735236,-2.0714493,0.04041481,-38.838165,-6.944031,-35.878433,9.491467851882213,0.9822788946660109,2.149759236193566,53.32808468947746
31/01/2020, 11:08:43,-0.34727785,4.0427933,8.054451,0.8445976,-0.17204152,-0.47109285,-0.5735236,-2.0714493,0.04041481,-38.838165,-6.944031,-35.878433,9.018811456684853,0.9822788946660109,2.149759236193566,53.32808468947746
31/01/2020, 11:08:43,0.040715333,2.6536818,8.5502205,0.8445976,-0.17204152,-0.47109285,-0.5735236,-2.0714493,0.04041481,-38.838165,-6.944031,-35.878433,8.95265072560167,0.9822788946660109,2.149759236193566,53.32808468947746
31/01/2020, 11:08:43,0.040715333,2.6536818,8.5502205,0.8445976,-0.17204152,-0.47109285,-0.85971344,-0.16466904,-0.49675655,-38.838165,-6.944031,-35.878433,8.95265072560167,0.9822788946660109,1.0064741208363341,53.32808468947746
31/01/2020, 11:08:44,-8.351434,10.981165,6.4018874,1.5825225,1.3966599,1.7597861,-5.1654067,3.1966624,0.3356161,-36.906845,9.340393,-37.53357,15.209095683639179,2.748069041848072,6.083807628240577,53.46145325776856
31/01/2020, 11:08:44,-6.935977,8.440049,6.440208,1.5825225,1.3966599,1.7597861,-5.1654067,3.1966624,0.3356161,-36.906845,9.340393,-37.53357,12.681422840440552,2.748069041848072,6.083807628240577,53.46145325776856
31/01/2020, 11:08:44,-3.661985,6.10251,6.557564,1.5825225,1.3966599,1.7597861,-5.1654067,3.1966624,0.3356161,-36.906845,9.340393,-37.53357,9.67741723342603,2.748069041848072,6.083807628240577,53.46145325776856
31/01/2020, 11:08:44,-3.661985,6.10251,6.557564,1.5825225,1.3966599,1.7597861,-5.1654067,3.1966624,0.3356161,-34.35875,8.08342,-40.111618,9.67741723342603,2.748069041848072,6.083807628240577,53.43039619193568
31/01/2020, 11:08:44,-0.8430469,5.1564775,6.3779373,1.5825225,1.3966599,1.7597861,-5.1654067,3.1966624,0.3356161,-34.35875,8.08342,-40.111618,8.244881576222927,2.748069041848072,6.083807628240577,53.43039619193568
31/01/2020, 11:08:44,-0.4167334,3.5542092,7.7646537,1.5825225,1.3966599,1.7597861,-5.1654067,3.1966624,0.3356161,-34.35875,8.08342,-40.111618,8.549615009921451,2.748069041848072,6.083807628240577,53.43039619193568
31/01/2020, 11:08:44,-0.4167334,3.5542092,7.7646537,1.5825225,1.3966599,1.7597861,-7.07051,2.4105234,-0.38084507,-34.35875,8.08342,-40.111618,8.549615009921451,2.748069041848072,7.479824629983456,53.43039619193568
31/01/2020, 11:08:44,-0.4167334,3.5542092,7.7646537,1.5825225,1.3966599,1.7597861,-7.07051,2.4105234,-0.38084507,-31.674438,7.6384583,-41.882904,8.549615009921451,2.748069041848072,7.479824629983456,53.06405326737609
31/01/2020, 11:08:44,-0.4167334,3.5542092,7.7646537,0.65645117,1.0252539,2.1348572,-7.07051,2.4105234,-0.38084507,-31.674438,7.6384583,-41.882904,8.549615009921451,2.45757784112521,7.479824629983456,53.06405326737609
31/01/2020, 11:08:44,-0.4167334,3.5542092,7.7646537,0.65645117,1.0252539,2.1348572,-8.324854,6.426968,-2.282607,-31.674438,7.6384583,-41.882904,8.549615009921451,2.45757784112521,10.761942501784404,53.06405326737609
31/01/2020, 11:08:44,-1.3819263,1.094524,9.148975,0.65645117,1.0252539,2.1348572,-8.324854,6.426968,-2.282607,-31.674438,7.6384583,-41.882904,9.317266417786982,2.45757784112521,10.761942501784404,53.06405326737609
31/01/2020, 11:08:44,-3.774551,0.38559815,9.295072,0.65645117,1.0252539,2.1348572,-8.324854,6.426968,-2.282607,-31.674438,7.6384583,-41.882904,10.03963528358959,2.45757784112521,10.761942501784404,53.06405326737609
31/01/2020, 11:08:44,-3.774551,0.38559815,9.295072,0.65645117,1.0252539,2.1348572,-8.324854,6.426968,-2.282607,-30.38237,7.3414307,-42.988266,10.03963528358959,2.45757784112521,10.761942501784404,53.15050351263417
31/01/2020, 11:08:44,-4.82357,2.5842261,8.380174,0.65645117,1.0252539,2.1348572,-8.324854,6.426968,-2.282607,-30.38237,7.3414307,-42.988266,10.008614341113933,2.45757784112521,10.761942501784404,53.15050351263417
31/01/2020, 11:08:44,-4.4906616,5.158872,6.559959,0.65645117,1.0252539,2.1348572,-8.324854,6.426968,-2.282607,-30.38237,7.3414307,-42.988266,9.476975501152905,2.45757784112521,10.761942501784404,53.15050351263417
31/01/2020, 11:08:44,-4.4906616,5.158872,6.559959,0.65645117,1.0252539,2.1348572,-3.5716398,1.3994966,-2.0454555,-30.38237,7.3414307,-42.988266,9.476975501152905,2.45757784112521,4.347308284571446,53.15050351263417
31/01/2020, 11:08:44,-4.4906616,5.158872,6.559959,0.65645117,1.0252539,2.1348572,-3.5716398,1.3994966,-2.0454555,-28.205063,8.0729065,-44.43257,9.476975501152905,2.45757784112521,4.347308284571446,53.24425596020162
31/01/2020, 11:08:44,-4.4906616,5.158872,6.559959,0.65645117,1.0252539,2.1348572,-0.24480139,-1.4752371,-0.65027523,-28.205063,8.0729065,-44.43257,9.476975501152905,2.45757784112521,1.630677830683887,53.24425596020162
31/01/2020, 11:08:44,-2.9530592,4.8331494,5.709727,0.65645117,1.0252539,2.1348572,-0.24480139,-1.4752371,-0.65027523,-28.205063,8.0729065,-44.43257,8.042441937056422,2.45757784112521,1.630677830683887,53.24425596020162
31/01/2020, 11:08:44,-2.4884255,3.4440382,5.240303,0.65645117,1.0252539,2.1348572,-0.24480139,-1.4752371,-0.65027523,-28.205063,8.0729065,-44.43257,6.746438777529253,2.45757784112521,1.630677830683887,53.24425596020162
31/01/2020, 11:08:45,0.4047583,2.0621119,9.79084,0.3021495,-0.12561578,-0.4087846,-0.63973397,1.2288165,0.08177662,-34.752274,8.97644,-37.261444,10.013824714236431,0.5236205627672497,1.3877813161262387,51.73695213435985
31/01/2020, 11:08:45,0.48379397,2.0381618,9.80521,0.3021495,-0.12561578,-0.4087846,-0.63973397,1.2288165,0.08177662,-34.752274,8.97644,-37.261444,10.026480205811605,0.5236205627672497,1.3877813161262387,51.73695213435985
31/01/2020, 11:08:45,0.45744875,2.090852,9.778865,0.3021495,-0.12561578,-0.4087846,-0.63973397,1.2288165,0.08177662,-34.752274,8.97644,-37.261444,10.010350618173408,0.5236205627672497,1.3877813161262387,51.73695213435985
31/01/2020, 11:08:45,0.45744875,2.090852,9.778865,0.3021495,-0.12561578,-0.4087846,-0.63973397,1.2288165,0.08177662,-35.26419,8.241928,-37.218185,10.010350618173408,0.5236205627672497,1.3877813161262387,51.9296240022059
31/01/2020, 11:08:45,0.17723145,2.1243825,9.721385,0.3021495,-0.12561578,-0.4087846,-0.63973397,1.2288165,0.08177662,-35.26419,8.241928,-37.218185,9.952373502535963,0.5236205627672497,1.3877813161262387,51.9296240022059
31/01/2020, 11:08:45,-0.117355965,2.2896388,9.6615095,0.3021495,-0.12561578,-0.4087846,-0.63973397,1.2288165,0.08177662,-35.26419,8.241928,-37.218185,9.9298028253152,0.5236205627672497,1.3877813161262387,51.9296240022059
31/01/2020, 11:08:45,-0.117355965,2.2896388,9.6615095,0.3021495,-0.12561578,-0.4087846,-0.36213118,0.6725702,0.10014248,-35.26419,8.241928,-37.218185,9.9298028253152,0.5236205627672497,0.7704013361947719,51.9296240022059
31/01/2020, 11:08:45,-0.117355965,2.2896388,9.6615095,0.3021495,-0.12561578,-0.4087846,-0.36213118,0.6725702,0.10014248,-35.38179,7.272354,-37.401657,9.9298028253152,0.5236205627672497,0.7704013361947719,51.996559152525215
31/01/2020, 11:08:45,-0.117355965,2.2896388,9.6615095,0.3021495,-0.12561578,-0.4087846,-0.01878187,0.35413814,0.15820885,-35.38179,7.272354,-37.401657,9.9298028253152,0.5236205627672497,0.38832540124590775,51.996559152525215
31/01/2020, 11:08:45,-0.34488282,2.440525,9.637559,0.3021495,-0.12561578,-0.4087846,-0.01878187,0.35413814,0.15820885,-35.38179,7.272354,-37.401657,9.947745923882692,0.5236205627672497,0.38832540124590775,51.996559152525215
31/01/2020, 11:08:45,-0.35925296,2.574646,9.604029,0.3021495,-0.12561578,-0.4087846,-0.01878187,0.35413814,0.15820885,-35.38179,7.272354,-37.401657,9.949634767103793,0.5236205627672497,0.38832540124590775,51.996559152525215
31/01/2020, 11:08:45,-0.35925296,2.574646,9.604029,0.3021495,-0.12561578,-0.4087846,-0.01878187,0.35413814,0.15820885,-35.526382,6.858841,-37.773254,9.949634767103793,0.5236205627672497,0.38832540124590775,52.30665632925581
31/01/2020, 11:08:45,-0.35925296,2.574646,9.604029,0.512287,0.016104909,-0.34525466,-0.01878187,0.35413814,0.15820885,-35.526382,6.858841,-37.773254,9.949634767103793,0.6179790770369312,0.38832540124590775,52.30665632925581
31/01/2020, 11:08:45,-0.35925296,2.574646,9.604029,0.512287,0.016104909,-0.34525466,-0.20370238,0.72912514,0.022919655,-35.526382,6.858841,-37.773254,9.949634767103793,0.6179790770369312,0.7573925277667114,52.30665632925581
31/01/2020, 11:08:45,-0.36164796,2.6417067,9.592053,0.512287,0.016104909,-0.34525466,-0.20370238,0.72912514,0.022919655,-35.526382,6.858841,-37.773254,9.955746694779071,0.6179790770369312,0.7573925277667114,52.30665632925581
31/01/2020, 11:08:45,-0.26105714,2.6464968,9.606423,0.512287,0.016104909,-0.34525466,-0.20370238,0.72912514,0.022919655,-35.526382,6.858841,-37.773254,9.967721209734961,0.6179790770369312,0.7573925277667114,52.30665632925581
31/01/2020, 11:08:45,-0.26105714,2.6464968,9.606423,0.512287,0.016104909,-0.34525466,-0.20370238,0.72912514,0.022919655,-35.363174,6.2617035,-36.6398,9.967721209734961,0.6179790770369312,0.7573925277667114,51.305341399879424
31/01/2020, 11:08:45,-0.26105714,2.6464968,9.606423,0.512287,0.016104909,-0.34525466,-0.7985656,0.526662,0.031147957,-35.363174,6.2617035,-36.6398,9.967721209734961,0.6179790770369312,0.9571050665259218,51.305341399879424
31/01/2020, 11:08:45,-0.09580079,2.5698562,9.690249,0.512287,0.016104909,-0.34525466,-0.7985656,0.526662,0.031147957,-35.363174,6.2617035,-36.6398,10.025680664058969,0.6179790770369312,0.9571050665259218,51.305341399879424
31/01/2020, 11:08:45,0.011975098,2.3064039,9.932146,0.512287,0.016104909,-0.34525466,-0.7985656,0.526662,0.031147957,-35.363174,6.2617035,-36.6398,10.196429171158986,0.6179790770369312,0.9571050665259218,51.305341399879424
31/01/2020, 11:08:46,1.7675245,5.465435,7.8436894,0.5318347,-0.20502824,-0.31959832,0.083191276,0.06377268,0.14735603,-43.03203,-12.943161,-26.571213,9.722067007275536,0.653473666574599,0.18083568066031924,52.20450378842913
31/01/2020, 11:08:46,1.7675245,5.465435,7.8436894,0.5318347,-0.20502824,-0.31959832,0.14580262,0.3626728,-0.14211082,-43.03203,-12.943161,-26.571213,9.722067007275536,0.653473666574599,0.4159152000905433,52.20450378842913
31/01/2020, 11:08:46,1.6238233,5.736072,7.6449027,0.5318347,-0.20502824,-0.31959832,0.14580262,0.3626728,-0.14211082,-43.03203,-12.943161,-26.571213,9.694527433801529,0.653473666574599,0.4159152000905433,52.20450378842913
31/01/2020, 11:08:46,1.4394068,6.0210795,7.510782,0.5318347,-0.20502824,-0.31959832,0.14580262,0.3626728,-0.14211082,-43.03203,-12.943161,-26.571213,9.733300229144216,0.653473666574599,0.4159152000905433,52.20450378842913
31/01/2020, 11:08:46,1.4394068,6.0210795,7.510782,0.5318347,-0.20502824,-0.31959832,0.14580262,0.3626728,-0.14211082,-42.978134,-13.49501,-26.137466,9.733300229144216,0.653473666574599,0.4159152000905433,52.080730332153436
31/01/2020, 11:08:46,1.4394068,6.0210795,7.510782,0.5318347,-0.20502824,-0.31959832,0.5024866,0.092059135,-0.08701944,-42.978134,-13.49501,-26.137466,9.733300229144216,0.653473666574599,0.5182084885932063,52.080730332153436
31/01/2020, 11:08:46,1.1184741,6.1863356,7.4676714,0.5318347,-0.20502824,-0.31959832,0.5024866,0.092059135,-0.08701944,-42.978134,-13.49501,-26.137466,9.76154947384835,0.653473666574599,0.5182084885932063,52.080730332153436
31/01/2020, 11:08:46,0.9053174,6.104905,7.5012016,0.5318347,-0.20502824,-0.31959832,0.5024866,0.092059135,-0.08701944,-42.978134,-13.49501,-26.137466,9.713778469655853,0.653473666574599,0.5182084885932063,52.080730332153436
31/01/2020, 11:08:46,0.9053174,6.104905,7.5012016,0.5318347,-0.20502824,-0.31959832,0.5024866,0.092059135,-0.08701944,-42.930054,-13.814453,-25.908783,9.713778469655853,0.653473666574599,0.5182084885932063,52.01051490980031
31/01/2020, 11:08:46,0.83586186,5.7480474,7.805369,0.5318347,-0.20502824,-0.31959832,0.5024866,0.092059135,-0.08701944,-42.930054,-13.814453,-25.908783,9.72946540569277,0.653473666574599,0.5182084885932063,52.01051490980031
31/01/2020, 11:08:46,0.8262818,5.352869,8.008945,0.5318347,-0.20502824,-0.31959832,0.5024866,0.092059135,-0.08701944,-42.930054,-13.814453,-25.908783,9.668461922442916,0.653473666574599,0.5182084885932063,52.01051490980031
31/01/2020, 11:08:46,0.8262818,5.352869,8.008945,0.5318347,-0.20502824,-0.31959832,0.79699004,-0.10185814,-0.16959572,-42.930054,-13.814453,-25.908783,9.668461922442916,0.653473666574599,0.8211765383904716,52.01051490980031
31/01/2020, 11:08:46,0.8262818,5.352869,8.008945,0.5318347,-0.20502824,-0.31959832,0.79699004,-0.10185814,-0.16959572,-42.95465,-14.580246,-25.4991,9.668461922442916,0.653473666574599,0.8211765383904716,52.037387442468685
31/01/2020, 11:08:46,0.8262818,5.352869,8.008945,0.1604288,-0.14149827,-0.16321687,0.79699004,-0.10185814,-0.16959572,-42.95465,-14.580246,-25.4991,9.668461922442916,0.2690704552115243,0.8211765383904716,52.037387442468685
31/01/2020, 11:08:46,1.0059083,5.1924024,8.023315,0.1604288,-0.14149827,-0.16321687,0.79699004,-0.10185814,-0.16959572,-42.95465,-14.580246,-25.4991,9.609707809853612,0.2690704552115243,0.8211765383904716,52.037387442468685
31/01/2020, 11:08:46,1.1352394,5.247488,7.95865,0.1604288,-0.14149827,-0.16321687,0.79699004,-0.10185814,-0.16959572,-42.95465,-14.580246,-25.4991,9.600260963004358,0.2690704552115243,0.8211765383904716,52.037387442468685
31/01/2020, 11:08:46,1.1352394,5.247488,7.95865,0.1604288,-0.14149827,-0.16321687,0.48783094,0.4172945,-0.47931576,-42.95465,-14.580246,-25.4991,9.600260963004358,0.2690704552115243,0.8011599841786317,52.037387442468685
31/01/2020, 11:08:46,1.1352394,5.247488,7.95865,0.1604288,-0.14149827,-0.16321687,-0.016732752,0.46409178,-0.46626568,-42.95465,-14.580246,-25.4991,9.600260963004358,0.2690704552115243,0.6580766263000554,52.037387442468685
31/01/2020, 11:08:46,1.1352394,5.247488,7.95865,0.1604288,-0.14149827,-0.16321687,-0.016732752,0.46409178,-0.46626568,-42.99208,-15.234436,-25.199585,9.600260963004358,0.2690704552115243,0.6580766263000554,52.10975077120648
31/01/2020, 11:08:46,1.1352394,5.247488,7.95865,0.1604288,-0.14149827,-0.16321687,-0.016732752,0.46409178,-0.46626568,-42.856796,-15.6801605,-24.641006,9.600260963004358,0.2690704552115243,0.6580766263000554,51.86281538752821
31/01/2020, 11:08:47,0.94603276,5.7863674,7.5395217,-0.039934915,0.04786989,0.015155711,0.6342019,-0.21189737,-0.006131172,-42.58963,-18.38675,-23.272232,9.550990170772982,0.0641562112398187,0.6686928428302427,51.899382730742914
31/01/2020, 11:08:47,0.92208254,5.8198977,7.6041875,-0.039934915,0.04786989,0.015155711,0.6342019,-0.21189737,-0.006131172,-42.58963,-18.38675,-23.272232,9.62003701935939,0.0641562112398187,0.6686928428302427,51.899382730742914
31/01/2020, 11:08:47,0.84544194,5.7863674,7.6664577,-0.039934915,0.04786989,0.015155711,0.6342019,-0.21189737,-0.006131172,-42.58963,-18.38675,-23.272232,9.642167437506005,0.0641562112398187,0.6686928428302427,51.899382730742914
31/01/2020, 11:08:47,0.84544194,5.7863674,7.6664577,-0.039934915,0.04786989,0.015155711,0.6342019,-0.21189737,-0.006131172,-42.48358,-18.497635,-23.388107,9.642167437506005,0.0641562112398187,0.6686928428302427,51.90395707673679
31/01/2020, 11:08:47,0.84544194,5.7863674,7.6664577,-0.15355581,0.04298297,0.01026879,0.6342019,-0.21189737,-0.006131172,-42.48358,-18.497635,-23.388107,9.642167437506005,0.1597885184452758,0.6686928428302427,51.90395707673679
31/01/2020, 11:08:47,0.852627,5.6833816,7.7335186,-0.15355581,0.04298297,0.01026879,0.6342019,-0.21189737,-0.006131172,-42.48358,-18.497635,-23.388107,9.635097749237763,0.1597885184452758,0.6686928428302427,51.90395707673679
31/01/2020, 11:08:47,0.9627979,5.712122,7.7215433,-0.15355581,0.04298297,0.01026879,0.6342019,-0.21189737,-0.006131172,-42.48358,-18.497635,-23.388107,9.65285181716734,0.1597885184452758,0.6686928428302427,51.90395707673679
31/01/2020, 11:08:47,0.9627979,5.712122,7.7215433,-0.15355581,0.04298297,0.01026879,0.8568343,-0.20944643,-0.11644745,-42.48358,-18.497635,-23.388107,9.65285181716734,0.1597885184452758,0.8897150218439803,51.90395707673679
31/01/2020, 11:08:47,0.9627979,5.712122,7.7215433,-0.15355581,0.04298297,0.01026879,0.8568343,-0.20944643,-0.11644745,-42.373642,-18.607895,-23.273026,9.65285181716734,0.1597885184452758,0.8897150218439803,51.80166988276121
31/01/2020, 11:08:47,1.0346485,5.829478,7.680828,-0.15355581,0.04298297,0.01026879,0.8568343,-0.20944643,-0.11644745,-42.373642,-18.607895,-23.273026,9.697856932475164,0.1597885184452758,0.8897150218439803,51.80166988276121
31/01/2020, 11:08:47,1.0777588,5.934859,7.7335186,-0.15355581,0.04298297,0.01026879,0.8568343,-0.20944643,-0.11644745,-42.373642,-18.607895,-23.273026,9.807722616130661,0.1597885184452758,0.8897150218439803,51.80166988276121
31/01/2020, 11:08:47,1.0777588,5.934859,7.7335186,-0.15355581,0.04298297,0.01026879,0.8607692,-0.15383482,-0.17134857,-42.373642,-18.607895,-23.273026,9.807722616130661,0.1597885184452758,0.8910382267790726,51.80166988276121
31/01/2020, 11:08:47,1.0777588,5.934859,7.7335186,-0.15355581,0.04298297,0.01026879,0.8607692,-0.15383482,-0.17134857,-42.304565,-18.394867,-23.604965,9.807722616130661,0.1597885184452758,0.8910382267790726,51.81931848859142
31/01/2020, 11:08:47,1.0777588,5.934859,7.7335186,-0.15355581,0.04298297,0.01026879,0.80747694,-0.26410913,-0.062233448,-42.304565,-18.394867,-23.604965,9.807722616130661,0.1597885184452758,0.8518483680230831,51.81931848859142
31/01/2020, 11:08:47,1.1232642,5.9133034,7.7311234,-0.15355581,0.04298297,0.01026879,0.80747694,-0.26410913,-0.062233448,-42.304565,-18.394867,-23.604965,9.79791554440897,0.1597885184452758,0.8518483680230831,51.81931848859142
31/01/2020, 11:08:47,1.1208692,5.8989334,7.7071733,-0.15355581,0.04298297,0.01026879,0.80747694,-0.26410913,-0.062233448,-42.304565,-18.394867,-23.604965,9.77007083210669,0.1597885184452758,0.8518483680230831,51.81931848859142
31/01/2020, 11:08:47,1.1208692,5.8989334,7.7071733,-0.15355581,0.04298297,0.01026879,0.80747694,-0.26410913,-0.062233448,-42.946396,-18.702103,-23.420914,9.77007083210669,0.1597885184452758,0.8518483680230831,52.37080065155496
31/01/2020, 11:08:47,1.1208692,5.8989334,7.7071733,-0.15355581,0.04298297,0.01026879,1.001424,-0.090201855,-0.13615656,-42.946396,-18.702103,-23.420914,9.77007083210669,0.1597885184452758,1.014655074753782,52.37080065155496
31/01/2020, 11:08:47,1.1208692,5.944439,7.800579,-0.15355581,0.04298297,0.01026879,1.001424,-0.090201855,-0.13615656,-42.946396,-18.702103,-23.420914,9.871258063728256,0.1597885184452758,1.014655074753782,52.37080065155496
31/01/2020, 11:08:47,1.1232642,5.7696023,7.817344,-0.15355581,0.04298297,0.01026879,1.001424,-0.090201855,-0.13615656,-42.946396,-18.702103,-23.420914,9.780639207051452,0.1597885184452758,1.014655074753782,52.37080065155496
31/01/2020, 11:08:48,2.6584718,1.7603394,8.102351,-1.6660576,-1.2447205,1.1061606,-0.15907931,0.24245143,-0.8995123,-45.05783,-3.0789032,-22.511932,8.70714430493843,2.355561136159521,0.9450985584020171,50.462608547563704
31/01/2020, 11:08:48,3.0201197,1.2597803,8.358619,-1.6660576,-1.2447205,1.1061606,-0.15907931,0.24245143,-0.8995123,-45.05783,-3.0789032,-22.511932,8.976339808350716,2.355561136159521,0.9450985584020171,50.462608547563704
31/01/2020, 11:08:48,3.0201197,1.2597803,8.358619,-1.6660576,-1.2447205,1.1061606,-0.15907931,0.24245143,-0.8995123,-46.660645,-2.1215363,-21.185593,8.976339808350716,2.355561136159521,0.9450985584020171,51.28884869191466
31/01/2020, 11:08:48,3.0201197,1.2597803,8.358619,-2.2109492,-1.6869867,1.2234467,-0.15907931,0.24245143,-0.8995123,-46.660645,-2.1215363,-21.185593,8.976339808350716,3.0382630326632833,0.9450985584020171,51.28884869191466
31/01/2020, 11:08:48,3.0201197,1.2597803,8.358619,-2.2109492,-1.6869867,1.2234467,-0.3566656,-0.001488924,-1.2238917,-46.660645,-2.1215363,-21.185593,8.976339808350716,3.0382630326632833,1.2748033394782265,51.28884869191466
31/01/2020, 11:08:48,3.3578174,0.9651929,8.382568,-2.2109492,-1.6869867,1.2234467,-0.3566656,-0.001488924,-1.2238917,-46.660645,-2.1215363,-21.185593,9.081519004511408,3.0382630326632833,1.2748033394782265,51.28884869191466
31/01/2020, 11:08:48,3.5853443,0.84065187,8.313113,-2.2109492,-1.6869867,1.2234467,-0.3566656,-0.001488924,-1.2238917,-46.660645,-2.1215363,-21.185593,9.092262683483893,3.0382630326632833,1.2748033394782265,51.28884869191466
31/01/2020, 11:08:48,3.5853443,0.84065187,8.313113,-2.2109492,-1.6869867,1.2234467,-0.3566656,-0.001488924,-1.2238917,-45.565018,0.58699036,-21.76155,9.092262683483893,3.0382630326632833,1.2748033394782265,50.49832168909649
31/01/2020, 11:08:48,3.7601807,0.83586186,8.150251,-2.2109492,-1.6869867,1.2234467,-0.3566656,-0.001488924,-1.2238917,-45.565018,0.58699036,-21.76155,9.014667033973055,3.0382630326632833,1.2748033394782265,50.49832168909649
31/01/2020, 11:08:48,3.781736,0.43110353,8.315508,-2.2109492,-1.6869867,1.2234467,-0.3566656,-0.001488924,-1.2238917,-45.565018,0.58699036,-21.76155,9.145219958820068,3.0382630326632833,1.2748033394782265,50.49832168909649
31/01/2020, 11:08:48,3.781736,0.43110353,8.315508,-2.2109492,-1.6869867,1.2234467,-0.11872125,-0.5242764,-0.757638,-45.565018,0.58699036,-21.76155,9.145219958820068,3.0382630326632833,0.9289648850821478,50.49832168909649
31/01/2020, 11:08:48,3.781736,0.43110353,8.315508,-2.2109492,-1.6869867,1.2234467,-0.11872125,-0.5242764,-0.757638,-47.677002,1.4298706,-18.065247,9.145219958820068,3.0382630326632833,0.9289648850821478,51.004844664563585
31/01/2020, 11:08:48,3.781736,0.43110353,8.315508,-2.2109492,-1.6869867,1.2234467,0.08511686,-0.42982286,-0.7575464,-47.677002,1.4298706,-18.065247,9.145219958820068,3.0382630326632833,0.8751395083424273,51.004844664563585
31/01/2020, 11:08:48,3.9445972,-0.20118165,8.255632,-2.2109492,-1.6869867,1.2234467,0.08511686,-0.42982286,-0.7575464,-47.677002,1.4298706,-18.065247,9.151818825140808,3.0382630326632833,0.8751395083424273,51.004844664563585
31/01/2020, 11:08:48,4.4762917,-0.82388675,8.305928,-2.2109492,-1.6869867,1.2234467,0.08511686,-0.42982286,-0.7575464,-47.677002,1.4298706,-18.065247,9.471241742294835,3.0382630326632833,0.8751395083424273,51.004844664563585
31/01/2020, 11:08:48,4.4762917,-0.82388675,8.305928,-2.2109492,-1.6869867,1.2234467,0.08511686,-0.42982286,-0.7575464,-48.742615,3.4623566,-17.123917,9.471241742294835,3.0382630326632833,0.8751395083424273,51.778942881244795
31/01/2020, 11:08:48,5.2977834,-1.4034815,8.396939,-2.2109492,-1.6869867,1.2234467,0.08511686,-0.42982286,-0.7575464,-48.742615,3.4623566,-17.123917,10.027205901600894,3.0382630326632833,0.8751395083424273,51.778942881244795
31/01/2020, 11:08:48,6.013894,-1.8753004,8.49274,-2.2109492,-1.6869867,1.2234467,0.08511686,-0.42982286,-0.7575464,-48.742615,3.4623566,-17.123917,10.574039004348803,3.0382630326632833,0.8751395083424273,51.778942881244795
31/01/2020, 11:08:48,6.013894,-1.8753004,8.49274,-2.2109492,-1.6869867,1.2234467,-0.097284794,-0.28749812,-0.6611309,-48.742615,3.4623566,-17.123917,10.574039004348803,3.0382630326632833,0.7274706673458295,51.778942881244795
31/01/2020, 11:08:48,6.013894,-1.8753004,8.49274,-2.2109492,-1.6869867,1.2234467,-0.097284794,-0.28749812,-0.6611309,-49.524017,5.4033966,-15.287582,10.574039004348803,3.0382630326632833,0.7274706673458295,52.11079699392907
31/01/2020, 11:08:49,3.6021094,3.2524366,9.137,0.5929212,0.839551,-0.642135,0.21395254,-1.467232,0.69675255,-52.55095,-0.7433777,-12.833603,10.345931904798165,1.2119153312184734,1.6382946965275293,54.10042721527651
31/01/2020, 11:08:49,3.4943337,3.1901662,9.16095,0.5929212,0.839551,-0.642135,0.21395254,-1.467232,0.69675255,-52.55095,-0.7433777,-12.833603,10.310699707405856,1.2119153312184734,1.6382946965275293,54.10042721527651
31/01/2020, 11:08:49,3.4943337,3.1901662,9.16095,0.5929212,0.839551,-0.642135,0.12268877,-1.4184234,0.9349923,-52.55095,-0.7433777,-12.833603,10.310699707405856,1.2119153312184734,1.703287451513169,54.10042721527651
31/01/2020, 11:08:49,3.4943337,3.1901662,9.16095,0.5929212,0.839551,-0.642135,0.12268877,-1.4184234,0.9349923,-52.28058,-1.4065704,-13.431534,10.310699707405856,1.2119153312184734,1.703287451513169,53.996698427861794
31/01/2020, 11:08:49,3.4943337,3.1901662,9.16095,0.75785476,0.7613602,-0.39901078,0.12268877,-1.4184234,0.9349923,-52.28058,-1.4065704,-13.431534,10.310699707405856,1.1459593510258772,1.703287451513169,53.996698427861794
31/01/2020, 11:08:49,3.4943337,3.1901662,9.16095,0.75785476,0.7613602,-0.39901078,-0.09570694,-1.3842859,1.3488245,-52.28058,-1.4065704,-13.431534,10.310699707405856,1.1459593510258772,1.9351317474772245,53.996698427861794
31/01/2020, 11:08:49,3.4584084,3.3554225,9.050779,0.75785476,0.7613602,-0.39901078,-0.09570694,-1.3842859,1.3488245,-52.28058,-1.4065704,-13.431534,10.253587430564576,1.1459593510258772,1.9351317474772245,53.996698427861794
31/01/2020, 11:08:49,3.4847536,3.6284547,9.129815,0.75785476,0.7613602,-0.39901078,-0.09570694,-1.3842859,1.3488245,-52.28058,-1.4065704,-13.431534,10.42414096728536,1.1459593510258772,1.9351317474772245,53.996698427861794
31/01/2020, 11:08:49,3.4847536,3.6284547,9.129815,0.75785476,0.7613602,-0.39901078,-0.09570694,-1.3842859,1.3488245,-51.803513,-1.6253967,-14.679108,10.42414096728536,1.1459593510258772,1.9351317474772245,53.867634357948276
31/01/2020, 11:08:49,3.4871485,3.8152664,9.012459,0.75785476,0.7613602,-0.39901078,-0.09570694,-1.3842859,1.3488245,-51.803513,-1.6253967,-14.679108,10.389459848726585,1.1459593510258772,1.9351317474772245,53.867634357948276
31/01/2020, 11:08:49,3.4775686,3.911067,8.8879175,0.75785476,0.7613602,-0.39901078,-0.09570694,-1.3842859,1.3488245,-51.803513,-1.6253967,-14.679108,10.314310763096817,1.1459593510258772,1.9351317474772245,53.867634357948276
31/01/2020, 11:08:49,3.4775686,3.911067,8.8879175,0.75785476,0.7613602,-0.39901078,-0.299484,-1.3622062,1.4144745,-51.803513,-1.6253967,-14.679108,10.314310763096817,1.1459593510258772,1.9864628206180912,53.867634357948276
31/01/2020, 11:08:49,3.4775686,3.911067,8.8879175,0.75785476,0.7613602,-0.39901078,-0.299484,-1.3622062,1.4144745,-51.466232,-2.5418549,-14.611359,10.314310763096817,1.1459593510258772,1.9864628206180912,53.560488185234696
31/01/2020, 11:08:49,3.4775686,3.911067,8.8879175,0.75785476,0.7613602,-0.39901078,-0.2875924,-1.3795667,1.3241286,-51.466232,-2.5418549,-14.611359,10.314310763096817,1.1459593510258772,1.9337089267218297,53.560488185234696
31/01/2020, 11:08:49,3.4799635,3.9541774,8.801697,0.75785476,0.7613602,-0.39901078,-0.2875924,-1.3795667,1.3241286,-51.466232,-2.5418549,-14.611359,10.257462218142086,1.1459593510258772,1.9337089267218297,53.560488185234696
31/01/2020, 11:08:49,3.4560134,4.014053,8.650811,0.75785476,0.7613602,-0.39901078,-0.2875924,-1.3795667,1.3241286,-51.466232,-2.5418549,-14.611359,10.143627737115409,1.1459593510258772,1.9337089267218297,53.560488185234696
31/01/2020, 11:08:49,3.4560134,4.014053,8.650811,0.75785476,0.7613602,-0.39901078,-0.2875924,-1.3795667,1.3241286,-51.00769,-3.1773224,-16.256287,10.143627737115409,1.1459593510258772,1.9337089267218297,53.62971858245515
31/01/2020, 11:08:49,3.4560134,4.014053,8.650811,0.75785476,0.7613602,-0.39901078,-0.12492013,-1.0179555,1.2827168,-51.00769,-3.1773224,-16.256287,10.143627737115409,1.1459593510258772,1.6423156782629382,53.62971858245515
31/01/2020, 11:08:49,3.391348,4.1146436,8.523875,0.75785476,0.7613602,-0.39901078,-0.12492013,-1.0179555,1.2827168,-51.00769,-3.1773224,-16.256287,10.054251899802896,1.1459593510258772,1.6423156782629382,53.62971858245515
31/01/2020, 11:08:49,3.319497,4.2224197,8.358619,0.75785476,0.7613602,-0.39901078,-0.12492013,-1.0179555,1.2827168,-51.00769,-3.1773224,-16.256287,9.935511898321927,1.1459593510258772,1.6423156782629382,53.62971858245515
31/01/2020, 11:08:50,8.641231,-1.0298585,2.4572902,-0.24152038,-0.30765355,-0.77774704,-0.69188595,-1.2884165,0.21585369,-48.420563,-6.8357544,27.67929,9.042662741265527,0.8705591574445954,1.4782814587377986,56.19093852405379
31/01/2020, 11:08:50,8.571775,-0.9196875,2.1052222,-0.24152038,-0.30765355,-0.77774704,-0.69188595,-1.2884165,0.21585369,-48.420563,-6.8357544,27.67929,8.874295457371382,0.8705591574445954,1.4782814587377986,56.19093852405379
31/01/2020, 11:08:50,8.571775,-0.9196875,2.1052222,-0.24152038,-0.30765355,-0.77774704,-0.69188595,-1.2884165,0.21585369,-48.51323,-8.006165,28.077461,8.874295457371382,0.8705591574445954,1.4782814587377986,56.62133806760264
31/01/2020, 11:08:50,8.571775,-0.9196875,2.1052222,-0.24152038,-0.30765355,-0.77774704,-0.80197144,-1.0572203,0.1546216,-48.51323,-8.006165,28.077461,8.874295457371382,0.8705591574445954,1.3359569116537608,56.62133806760264
31/01/2020, 11:08:50,8.4376545,-0.93405765,1.8968556,-0.24152038,-0.30765355,-0.77774704,-0.80197144,-1.0572203,0.1546216,-48.51323,-8.006165,28.077461,8.698536556210387,0.8705591574445954,1.3359569116537608,56.62133806760264
31/01/2020, 11:08:50,8.116721,-0.91729254,1.84177,-0.24152038,-0.30765355,-0.77774704,-0.80197144,-1.0572203,0.1546216,-48.51323,-8.006165,28.077461,8.373452382553356,0.8705591574445954,1.3359569116537608,56.62133806760264
31/01/2020, 11:08:50,8.116721,-0.91729254,1.84177,-0.24152038,-0.30765355,-0.77774704,-0.80197144,-1.0572203,0.1546216,-48.43048,-9.088654,28.028214,8.373452382553356,0.8705591574445954,1.3359569116537608,56.689468699224356
31/01/2020, 11:08:50,8.116721,-0.91729254,1.84177,-0.21952923,-0.054755434,-0.5175186,-0.80197144,-1.0572203,0.1546216,-48.43048,-9.088654,28.028214,8.373452382553356,0.5648156508569149,1.3359569116537608,56.689468699224356
31/01/2020, 11:08:50,8.006551,-0.82388675,1.8681153,-0.21952923,-0.054755434,-0.5175186,-0.80197144,-1.0572203,0.1546216,-48.43048,-9.088654,28.028214,8.262777965755722,0.5648156508569149,1.3359569116537608,56.689468699224356
31/01/2020, 11:08:50,8.01613,-0.847837,1.9232007,-0.21952923,-0.054755434,-0.5175186,-0.80197144,-1.0572203,0.1546216,-48.43048,-9.088654,28.028214,8.287090919849705,0.5648156508569149,1.3359569116537608,56.689468699224356
31/01/2020, 11:08:50,8.01613,-0.847837,1.9232007,-0.21952923,-0.054755434,-0.5175186,-0.8905554,-0.8067669,-0.46213913,-48.43048,-9.088654,28.028214,8.287090919849705,0.5648156508569149,1.287452654680311,56.689468699224356
31/01/2020, 11:08:50,8.01613,-0.847837,1.9232007,-0.21952923,-0.054755434,-0.5175186,-0.8905554,-0.8067669,-0.46213913,-48.269592,-9.739136,28.34903,8.287090919849705,0.5648156508569149,1.287452654680311,56.81964255693049
31/01/2020, 11:08:50,8.01613,-0.847837,1.9232007,-0.21952923,-0.054755434,-0.5175186,-1.2446165,-0.28947335,-1.0052335,-48.269592,-9.739136,28.34903,8.287090919849705,0.5648156508569149,1.6258411726229038,56.81964255693049
31/01/2020, 11:08:50,8.171807,-0.859812,1.9902613,-0.21952923,-0.054755434,-0.5175186,-1.2446165,-0.28947335,-1.0052335,-48.269592,-9.739136,28.34903,8.454516614782063,0.5648156508569149,1.6258411726229038,56.81964255693049
31/01/2020, 11:08:50,8.384964,-0.7376661,2.095642,-0.21952923,-0.054755434,-0.5175186,-1.2446165,-0.28947335,-1.0052335,-48.269592,-9.739136,28.34903,8.674300438731917,0.5648156508569149,1.6258411726229038,56.81964255693049
31/01/2020, 11:08:50,8.384964,-0.7376661,2.095642,-0.21952923,-0.054755434,-0.5175186,-1.2446165,-0.28947335,-1.0052335,-48.02066,-9.952576,28.346413,8.674300438731917,0.5648156508569149,1.6258411726229038,56.64412324896667
31/01/2020, 11:08:50,8.384964,-0.7376661,2.095642,-0.21952923,-0.054755434,-0.5175186,-1.4652176,-0.9450613,-0.5723032,-48.02066,-9.952576,28.346413,8.674300438731917,0.5648156508569149,1.8350843092744766,56.64412324896667
31/01/2020, 11:08:50,8.693921,-0.62749517,2.0333717,-0.21952923,-0.054755434,-0.5175186,-1.4652176,-0.9450613,-0.5723032,-48.02066,-9.952576,28.346413,8.950565038583184,0.5648156508569149,1.8350843092744766,56.64412324896667
31/01/2020, 11:08:50,8.998089,-0.7496411,1.9591261,-0.21952923,-0.054755434,-0.5175186,-1.4652176,-0.9450613,-0.5723032,-48.02066,-9.952576,28.346413,9.239358184198611,0.5648156508569149,1.8350843092744766,56.64412324896667
31/01/2020, 11:08:50,8.998089,-0.7496411,1.9591261,-0.21952923,-0.054755434,-0.5175186,-1.4652176,-0.9450613,-0.5723032,-47.664124,-10.386047,29.030853,9.239358184198611,0.5648156508569149,1.8350843092744766,56.7673241740124
31/01/2020, 11:08:51,9.158555,-1.0202783,2.668052,-0.013056852,0.17248635,-0.019052729,0.39099216,-2.3253345,0.1633923,-44.749054,-24.338669,24.750893,9.593674967588557,0.1740259428379275,2.363631249324801,56.6344004682418
31/01/2020, 11:08:51,9.208851,-1.2166699,2.9626393,-0.013056852,0.17248635,-0.019052729,0.39099216,-2.3253345,0.1633923,-44.749054,-24.338669,24.750893,9.749894956886422,0.1740259428379275,2.363631249324801,56.6344004682418
31/01/2020, 11:08:51,9.378897,-1.2166699,3.2284865,-0.013056852,0.17248635,-0.019052729,0.39099216,-2.3253345,0.1633923,-44.749054,-24.338669,24.750893,9.993353519752466,0.1740259428379275,2.363631249324801,56.6344004682418
31/01/2020, 11:08:51,9.378897,-1.2166699,3.2284865,-0.013056852,0.17248635,-0.019052729,0.39099216,-2.3253345,0.1633923,-44.683853,-24.016434,24.65377,9.993353519752466,0.1740259428379275,2.363631249324801,56.40251960637205
31/01/2020, 11:08:51,9.309442,-1.1687696,3.180586,-0.013056852,0.17248635,-0.019052729,0.39099216,-2.3253345,0.1633923,-44.683853,-24.016434,24.65377,9.906959805602334,0.1740259428379275,2.363631249324801,56.40251960637205
31/01/2020, 11:08:51,9.1849,-0.6658155,2.9578493,-0.013056852,0.17248635,-0.019052729,0.39099216,-2.3253345,0.1633923,-44.683853,-24.016434,24.65377,9.672361435376407,0.1740259428379275,2.363631249324801,56.40251960637205
31/01/2020, 11:08:51,9.1849,-0.6658155,2.9578493,-0.013056852,0.17248635,-0.019052729,0.12880802,-2.5693007,0.5785594,-44.683853,-24.016434,24.65377,9.672361435376407,0.1740259428379275,2.63678370789846,56.40251960637205
31/01/2020, 11:08:51,9.1849,-0.6658155,2.9578493,-0.013056852,0.17248635,-0.019052729,0.12880802,-2.5693007,0.5785594,-44.767303,-24.35254,24.060112,9.672361435376407,0.1740259428379275,2.63678370789846,56.35642472609418
31/01/2020, 11:08:51,9.1849,-0.6658155,2.9578493,1.2660944,0.255564,-0.086247884,0.12880802,-2.5693007,0.5785594,-44.767303,-24.35254,24.060112,9.672361435376407,1.2945063940887356,2.63678370789846,56.35642472609418
31/01/2020, 11:08:51,8.883128,0.06466553,2.7207422,1.2660944,0.255564,-0.086247884,0.12880802,-2.5693007,0.5785594,-44.767303,-24.35254,24.060112,9.290671983595574,1.2945063940887356,2.63678370789846,56.35642472609418
31/01/2020, 11:08:51,8.732242,0.7831714,2.459685,1.2660944,0.255564,-0.086247884,0.12880802,-2.5693007,0.5785594,-44.767303,-24.35254,24.060112,9.105792227389438,1.2945063940887356,2.63678370789846,56.35642472609418
31/01/2020, 11:08:51,8.732242,0.7831714,2.459685,1.2660944,0.255564,-0.086247884,-0.1859932,-3.1719086,0.948256,-44.767303,-24.35254,24.060112,9.105792227389438,1.2945063940887356,3.315838840265313,56.35642472609418
31/01/2020, 11:08:51,8.732242,0.7831714,2.459685,1.2660944,0.255564,-0.086247884,-0.1859932,-3.1719086,0.948256,-45.04988,-24.454102,23.926659,9.105792227389438,1.2945063940887356,3.315838840265313,56.568364417629795
31/01/2020, 11:08:51,8.713081,1.2070899,2.3782544,1.2660944,0.255564,-0.086247884,-0.1859932,-3.1719086,0.948256,-45.04988,-24.454102,23.926659,9.112131850914595,1.2945063940887356,3.315838840265313,56.568364417629795
31/01/2020, 11:08:51,8.801697,1.2741505,2.323169,1.2660944,0.255564,-0.086247884,-0.1859932,-3.1719086,0.948256,-45.04988,-24.454102,23.926659,9.191868134575714,1.2945063940887356,3.315838840265313,56.568364417629795
31/01/2020, 11:08:51,8.801697,1.2741505,2.323169,1.2660944,0.255564,-0.086247884,-0.0737772,-3.1741414,1.1609347,-45.04988,-24.454102,23.926659,9.191868134575714,1.2945063940887356,3.3805896073714323,56.568364417629795
31/01/2020, 11:08:51,8.801697,1.2741505,2.323169,1.2660944,0.255564,-0.086247884,-0.0737772,-3.1741414,1.1609347,-45.143936,-24.427505,23.901878,9.191868134575714,1.2945063940887356,3.3805896073714323,56.62135449965815
31/01/2020, 11:08:51,8.914263,1.0322535,2.2944288,1.2660944,0.255564,-0.086247884,-0.0737772,-3.1741414,1.1609347,-45.143936,-24.427505,23.901878,9.26250677149994,1.2945063940887356,3.3805896073714323,56.62135449965815
31/01/2020, 11:08:51,9.029224,0.5604346,2.4261549,1.2660944,0.255564,-0.086247884,-0.0737772,-3.1741414,1.1609347,-45.143936,-24.427505,23.901878,9.366280343476603,1.2945063940887356,3.3805896073714323,56.62135449965815
31/01/2020, 11:08:51,9.029224,0.5604346,2.4261549,1.2660944,0.255564,-0.086247884,-0.18788338,-2.716247,0.9351883,-45.143936,-24.427505,23.901878,9.366280343476603,1.2945063940887356,2.8788670543725106,56.62135449965815
31/01/2020, 11:08:52,9.606423,0.0047900393,3.288362,-0.07414335,-0.07796831,0.07502048,0.07693672,-2.054892,0.56700015,-45.289383,-24.856522,22.556435,10.153655394838504,0.13116541173170637,2.1330705148195865,56.37169162127469
31/01/2020, 11:08:52,9.522598,0.17244141,3.0847852,-0.07414335,-0.07796831,0.07502048,0.07693672,-2.054892,0.56700015,-45.289383,-24.856522,22.556435,10.0112693330253,0.13116541173170637,2.1330705148195865,56.37169162127469
31/01/2020, 11:08:52,9.496253,0.34967285,2.936294,-0.07414335,-0.07796831,0.07502048,0.07693672,-2.054892,0.56700015,-45.289383,-24.856522,22.556435,9.945999965848287,0.13116541173170637,2.1330705148195865,56.37169162127469
31/01/2020, 11:08:52,9.496253,0.34967285,2.936294,-0.07414335,-0.07796831,0.07502048,0.07693672,-2.054892,0.56700015,-45.430252,-25.279068,22.879486,9.945999965848287,0.13116541173170637,2.1330705148195865,56.8014961571087
31/01/2020, 11:08:52,9.520203,0.4766089,2.7494826,-0.07414335,-0.07796831,0.07502048,0.07693672,-2.054892,0.56700015,-45.430252,-25.279068,22.879486,9.920739338969982,0.13116541173170637,2.1330705148195865,56.8014961571087
31/01/2020, 11:08:52,9.393267,0.37122804,2.6249416,-0.07414335,-0.07796831,0.07502048,0.07693672,-2.054892,0.56700015,-45.430252,-25.279068,22.879486,9.760204274295656,0.13116541173170637,2.1330705148195865,56.8014961571087
31/01/2020, 11:08:52,9.393267,0.37122804,2.6249416,-0.07414335,-0.07796831,0.07502048,0.39826584,-2.5115547,0.95147157,-45.430252,-25.279068,22.879486,9.760204274295656,0.13116541173170637,2.7151097441747787,56.8014961571087
31/01/2020, 11:08:52,9.393267,0.37122804,2.6249416,-0.07414335,-0.07796831,0.07502048,0.39826584,-2.5115547,0.95147157,-45.870605,-24.845917,22.527702,9.760204274295656,0.13116541173170637,2.7151097441747787,56.82366934173822
31/01/2020, 11:08:52,9.299861,0.21794678,2.5459058,-0.07414335,-0.07796831,0.07502048,0.39826584,-2.5115547,0.95147157,-45.870605,-24.845917,22.527702,9.644508855125242,0.13116541173170637,2.7151097441747787,56.82366934173822
31/01/2020, 11:08:52,9.2184305,0.0,2.5842261,-0.07414335,-0.07796831,0.07502048,0.39826584,-2.5115547,0.95147157,-45.870605,-24.845917,22.527702,9.573802062606129,0.13116541173170637,2.7151097441747787,56.82366934173822
31/01/2020, 11:08:52,9.2184305,0.0,2.5842261,-0.07414335,-0.07796831,0.07502048,0.2990427,-2.1321425,0.68372846,-45.870605,-24.845917,22.527702,9.573802062606129,0.13116541173170637,2.258969447940289,56.82366934173822
31/01/2020, 11:08:52,9.2184305,0.0,2.5842261,-0.07414335,-0.07796831,0.07502048,0.2990427,-2.1321425,0.68372846,-45.167877,-24.970673,23.127151,9.573802062606129,0.13116541173170637,2.258969447940289,56.555607652834894
31/01/2020, 11:08:52,9.2184305,0.0,2.5842261,-0.11568217,-0.020546991,0.04081204,0.2990427,-2.1321425,0.68372846,-45.167877,-24.970673,23.127151,9.573802062606129,0.12437912205669226,2.258969447940289,56.555607652834894
31/01/2020, 11:08:52,9.2184305,0.0,2.5842261,-0.11568217,-0.020546991,0.04081204,0.29115677,-1.8131621,0.35538793,-45.167877,-24.970673,23.127151,9.573802062606129,0.12437912205669226,1.8704624029437535,56.555607652834894
31/01/2020, 11:08:52,9.192085,-0.1460962,2.6967921,-0.11568217,-0.020546991,0.04081204,0.29115677,-1.8131621,0.35538793,-45.167877,-24.970673,23.127151,9.580629593524964,0.12437912205669226,1.8704624029437535,56.555607652834894
31/01/2020, 11:08:52,9.515413,-0.1939966,2.7686427,-0.11568217,-0.020546991,0.04081204,0.29115677,-1.8131621,0.35538793,-45.167877,-24.970673,23.127151,9.911917415413418,0.12437912205669226,1.8704624029437535,56.555607652834894
31/01/2020, 11:08:52,9.515413,-0.1939966,2.7686427,-0.11568217,-0.020546991,0.04081204,0.29115677,-1.8131621,0.35538793,-45.48076,-24.747543,23.123123,9.911917415413418,0.12437912205669226,1.8704624029437535,56.70642939850092
31/01/2020, 11:08:52,9.604029,-0.2083667,2.8836036,-0.11568217,-0.020546991,0.04081204,0.29115677,-1.8131621,0.35538793,-45.48076,-24.747543,23.123123,10.029753414444261,0.12437912205669226,1.8704624029437535,56.70642939850092
31/01/2020, 11:08:52,9.618399,-0.035925295,2.9722195,-0.11568217,-0.020546991,0.04081204,0.29115677,-1.8131621,0.35538793,-45.48076,-24.747543,23.123123,10.067222660360432,0.12437912205669226,1.8704624029437535,56.70642939850092
31/01/2020, 11:08:52,9.618399,-0.035925295,2.9722195,-0.11568217,-0.020546991,0.04081204,0.06457043,-2.0521445,0.15789557,-45.48076,-24.747543,23.123123,10.067222660360432,0.12437912205669226,2.0592225501327124,56.70642939850092
31/01/2020, 11:08:53,8.878338,0.62510014,2.9410841,-0.24029864,0.14072137,0.17275888,-0.5633116,-1.6089236,0.79905796,-46.631805,-20.438202,24.230865,9.373665734107949,0.32770653127673194,1.8826705927563248,56.38599308019838
31/01/2020, 11:08:53,9.096285,0.6945557,2.818938,-0.24029864,0.14072137,0.17275888,-0.5633116,-1.6089236,0.79905796,-46.631805,-20.438202,24.230865,9.54836203402001,0.32770653127673194,1.8826705927563248,56.38599308019838
31/01/2020, 11:08:53,9.045989,0.68737066,2.7303224,-0.24029864,0.14072137,0.17275888,-0.5633116,-1.6089236,0.79905796,-46.631805,-20.438202,24.230865,9.474020068897394,0.32770653127673194,1.8826705927563248,56.38599308019838
31/01/2020, 11:08:53,9.045989,0.68737066,2.7303224,-0.24029864,0.14072137,0.17275888,-0.5633116,-1.6089236,0.79905796,-46.705933,-19.787964,24.255241,9.474020068897394,0.32770653127673194,1.8826705927563248,56.22565598313347
31/01/2020, 11:08:53,8.856783,0.87178713,2.454895,-0.24029864,0.14072137,0.17275888,-0.5633116,-1.6089236,0.79905796,-46.705933,-19.787964,24.255241,9.231962192843845,0.32770653127673194,1.8826705927563248,56.22565598313347
31/01/2020, 11:08:53,8.159832,0.92926764,2.6656568,-0.24029864,0.14072137,0.17275888,-0.5633116,-1.6089236,0.79905796,-46.705933,-19.787964,24.255241,8.634357117831623,0.32770653127673194,1.8826705927563248,56.22565598313347
31/01/2020, 11:08:53,8.159832,0.92926764,2.6656568,-0.24029864,0.14072137,0.17275888,-0.90187454,-1.296499,0.53789926,-46.705933,-19.787964,24.255241,8.634357117831623,0.32770653127673194,1.6684193095018958,56.22565598313347
31/01/2020, 11:08:53,8.159832,0.92926764,2.6656568,-0.24029864,0.14072137,0.17275888,-0.90187454,-1.296499,0.53789926,-46.951843,-20.219849,23.888,8.634357117831623,0.32770653127673194,1.6684193095018958,56.42654013613611
31/01/2020, 11:08:53,7.8365045,1.2549903,2.2561085,-0.24029864,0.14072137,0.17275888,-0.90187454,-1.296499,0.53789926,-46.951843,-20.219849,23.888,8.250807751880922,0.32770653127673194,1.6684193095018958,56.42654013613611
31/01/2020, 11:08:53,7.4030056,1.4226416,2.1052222,-0.24029864,0.14072137,0.17275888,-0.90187454,-1.296499,0.53789926,-46.951843,-20.219849,23.888,7.826899881317531,0.32770653127673194,1.6684193095018958,56.42654013613611
31/01/2020, 11:08:53,7.4030056,1.4226416,2.1052222,-0.24029864,0.14072137,0.17275888,-0.44830704,-0.74504775,0.24258256,-46.951843,-20.219849,23.888,7.826899881317531,0.32770653127673194,0.9027301063374481,56.42654013613611
31/01/2020, 11:08:53,7.4030056,1.4226416,2.1052222,-0.24029864,0.14072137,0.17275888,-0.44830704,-0.74504775,0.24258256,-46.87291,-19.74356,24.23999,7.826899881317531,0.32770653127673194,0.9027301063374481,56.342301768467905
31/01/2020, 11:08:53,7.4030056,1.4226416,2.1052222,-1.2628866,0.39606294,0.9436706,-0.44830704,-0.74504775,0.24258256,-46.87291,-19.74356,24.23999,7.826899881317531,1.6255038213174609,0.9027301063374481,56.342301768467905
31/01/2020, 11:08:53,7.4030056,1.4226416,2.1052222,-1.2628866,0.39606294,0.9436706,-0.27952576,-0.51527506,-0.05091381,-46.87291,-19.74356,24.23999,7.826899881317531,1.6255038213174609,0.5884175842722724,56.342301768467905
31/01/2020, 11:08:53,7.582632,1.8034497,1.7890797,-1.2628866,0.39606294,0.9436706,-0.27952576,-0.51527506,-0.05091381,-46.87291,-19.74356,24.23999,7.996846008445839,1.6255038213174609,0.5884175842722724,56.342301768467905
31/01/2020, 11:08:53,7.582632,1.9160157,1.8992506,-1.2628866,0.39606294,0.9436706,-0.27952576,-0.51527506,-0.05091381,-46.87291,-19.74356,24.23999,8.048265546376317,1.6255038213174609,0.5884175842722724,56.342301768467905
31/01/2020, 11:08:53,7.582632,1.9160157,1.8992506,-1.2628866,0.39606294,0.9436706,-0.27952576,-0.51527506,-0.05091381,-47.00757,-19.793152,24.11869,8.048265546376317,1.6255038213174609,0.5884175842722724,56.419779992678414
31/01/2020, 11:08:53,7.575447,2.0333717,2.555486,-1.2628866,0.39606294,0.9436706,-0.27952576,-0.51527506,-0.05091381,-47.00757,-19.793152,24.11869,8.249394367380708,1.6255038213174609,0.5884175842722724,56.419779992678414
31/01/2020, 11:08:53,7.683223,1.9854712,3.1470559,-1.2628866,0.39606294,0.9436706,-0.27952576,-0.51527506,-0.05091381,-47.00757,-19.793152,24.11869,8.53685942466118,1.6255038213174609,0.5884175842722724,56.419779992678414
31/01/2020, 11:08:53,7.683223,1.9854712,3.1470559,-1.2628866,0.39606294,0.9436706,-1.1629572,-0.0556885,-0.20714211,-47.00757,-19.793152,24.11869,8.53685942466118,1.6255038213174609,1.1825728281674646,56.419779992678414
31/01/2020, 11:08:54,1.5447876,5.6905665,7.8772197,-0.82917255,0.12117369,0.5417214,-0.19825709,0.33178997,-0.5875926,-43.445282,-12.914459,-31.27243,9.839690353458648,0.9978337847485836,0.70331751245303,55.065785094430446
31/01/2020, 11:08:54,1.2358302,5.4438796,8.011341,-0.82917255,0.12117369,0.5417214,-0.19825709,0.33178997,-0.5875926,-43.445282,-12.914459,-31.27243,9.764460432588315,0.9978337847485836,0.70331751245303,55.065785094430446
31/01/2020, 11:08:54,1.2094849,5.4247193,8.095166,-0.82917255,0.12117369,0.5417214,-0.19825709,0.33178997,-0.5875926,-43.445282,-12.914459,-31.27243,9.81947806988626,0.9978337847485836,0.70331751245303,55.065785094430446
31/01/2020, 11:08:54,1.2094849,5.4247193,8.095166,-0.82917255,0.12117369,0.5417214,0.4515108,0.09466076,-0.29037237,-43.445282,-12.914459,-31.27243,9.81947806988626,0.9978337847485836,0.5451043609320078,55.065785094430446
31/01/2020, 11:08:54,1.2094849,5.4247193,8.095166,-0.82917255,0.12117369,0.5417214,0.4515108,0.09466076,-0.29037237,-43.554794,-12.318146,-30.766296,9.81947806988626,0.9978337847485836,0.5451043609320078,54.72953330370083
31/01/2020, 11:08:54,1.3052857,5.3001785,8.416099,-0.82917255,0.12117369,0.5417214,0.4515108,0.09466076,-0.29037237,-43.554794,-12.318146,-30.766296,10.03127004522976,0.9978337847485836,0.5451043609320078,54.72953330370083
31/01/2020, 11:08:54,1.5639478,5.005591,8.456815,-0.82917255,0.12117369,0.5417214,0.4515108,0.09466076,-0.29037237,-43.554794,-12.318146,-30.766296,9.950858712270778,0.9978337847485836,0.5451043609320078,54.72953330370083
31/01/2020, 11:08:54,1.5639478,5.005591,8.456815,-0.82917255,0.12117369,0.5417214,0.39068627,0.22881603,-0.50250196,-43.554794,-12.318146,-30.766296,9.950858712270778,0.9978337847485836,0.6763880287551556,54.72953330370083
31/01/2020, 11:08:54,1.5639478,5.005591,8.456815,-0.82917255,0.12117369,0.5417214,0.39068627,0.22881603,-0.50250196,-43.468704,-12.264267,-30.69487,9.950858712270778,0.9978337847485836,0.6763880287551556,54.60874962087703
31/01/2020, 11:08:54,1.5639478,5.005591,8.456815,-0.82917255,0.12117369,0.5417214,-0.4051546,0.13535023,-0.068068504,-43.468704,-12.264267,-30.69487,9.950858712270778,0.9978337847485836,0.4325543246267772,54.60874962087703
31/01/2020, 11:08:54,1.9351759,4.991221,8.533455,-0.82917255,0.12117369,0.5417214,-0.4051546,0.13535023,-0.068068504,-43.468704,-12.264267,-30.69487,10.07358152670137,0.9978337847485836,0.4325543246267772,54.60874962087703
31/01/2020, 11:08:54,2.2513185,5.012776,8.519085,-0.82917255,0.12117369,0.5417214,-0.4051546,0.13535023,-0.068068504,-43.468704,-12.264267,-30.69487,10.137611407019811,0.9978337847485836,0.4325543246267772,54.60874962087703
31/01/2020, 11:08:54,2.2513185,5.012776,8.519085,-0.82917255,0.12117369,0.5417214,-0.4051546,0.13535023,-0.068068504,-43.625183,-10.972092,-30.997223,10.137611407019811,0.9978337847485836,0.4325543246267772,54.62939890061482
31/01/2020, 11:08:54,2.2513185,5.012776,8.519085,-0.82917255,0.12117369,0.5417214,-0.37523305,0.123829365,0.25923252,-43.625183,-10.972092,-30.997223,10.137611407019811,0.9978337847485836,0.47258338575288455,54.62939890061482
31/01/2020, 11:08:54,2.3854396,5.0606766,8.399334,-0.82917255,0.12117369,0.5417214,-0.37523305,0.123829365,0.25923252,-43.625183,-10.972092,-30.997223,10.092055316495756,0.9978337847485836,0.47258338575288455,54.62939890061482
31/01/2020, 11:08:54,2.339934,5.110972,8.198153,-0.82917255,0.12117369,0.5417214,-0.37523305,0.123829365,0.25923252,-43.625183,-10.972092,-30.997223,9.940172573505501,0.9978337847485836,0.47258338575288455,54.62939890061482
31/01/2020, 11:08:54,2.339934,5.110972,8.198153,-0.82917255,0.12117369,0.5417214,-0.37523305,0.123829365,0.25923252,-43.97484,-8.992554,-31.779297,9.940172573505501,0.9978337847485836,0.47258338575288455,54.99614651799126
31/01/2020, 11:08:54,2.339934,5.110972,8.198153,-0.6251436,0.16149078,0.67977685,-0.37523305,0.123829365,0.25923252,-43.97484,-8.992554,-31.779297,9.940172573505501,0.9375395140146642,0.47258338575288455,54.99614651799126
31/01/2020, 11:08:54,2.1674929,5.151687,8.241262,-0.6251436,0.16149078,0.67977685,-0.37523305,0.123829365,0.25923252,-43.97484,-8.992554,-31.779297,9.957726261870771,0.9375395140146642,0.47258338575288455,54.99614651799126
31/01/2020, 11:08:54,1.954336,5.125342,8.095166,-0.6251436,0.16149078,0.67977685,-0.37523305,0.123829365,0.25923252,-43.97484,-8.992554,-31.779297,9.778562000940832,0.9375395140146642,0.47258338575288455,54.99614651799126
31/01/2020, 11:08:55,2.1770728,-3.4703834,8.933423,-2.3306787,-0.2526757,0.2912667,-0.4206723,0.28749537,1.3594828,-30.436966,39.423767,-25.416641,9.827983213886334,2.362359947331097,1.451830624142176,55.91643728831972
31/01/2020, 11:08:55,2.1770728,-3.4703834,8.933423,-2.3306787,-0.2526757,0.2912667,-0.7554874,1.1902235,0.730196,-30.436966,39.423767,-25.416641,9.827983213886334,2.362359947331097,1.5876332246477172,55.91643728831972
31/01/2020, 11:08:55,2.5099807,-4.2128396,9.091495,-2.3306787,-0.2526757,0.2912667,-0.7554874,1.1902235,0.730196,-30.436966,39.423767,-25.416641,10.329728644539456,2.362359947331097,1.5876332246477172,55.91643728831972
31/01/2020, 11:08:55,2.6369166,-4.7133985,9.424402,-2.3306787,-0.2526757,0.2912667,-0.7554874,1.1902235,0.730196,-30.436966,39.423767,-25.416641,10.862265504338684,2.362359947331097,1.5876332246477172,55.91643728831972
31/01/2020, 11:08:55,2.6369166,-4.7133985,9.424402,-2.3306787,-0.2526757,0.2912667,-0.7554874,1.1902235,0.730196,-30.335312,40.067604,-23.631912,10.862265504338684,2.362359947331097,1.5876332246477172,55.53477575953548
31/01/2020, 11:08:55,2.6560767,-4.8906302,9.718989,-2.3306787,-0.2526757,0.2912667,-0.7554874,1.1902235,0.730196,-30.335312,40.067604,-23.631912,11.199632221131765,2.362359947331097,1.5876332246477172,55.53477575953548
31/01/2020, 11:08:55,2.5291407,-4.9433208,9.836346,-2.3306787,-0.2526757,0.2912667,-0.7554874,1.1902235,0.730196,-30.335312,40.067604,-23.631912,11.295426905405188,2.362359947331097,1.5876332246477172,55.53477575953548
31/01/2020, 11:08:55,2.5291407,-4.9433208,9.836346,-2.3306787,-0.2526757,0.2912667,-0.52820814,1.461823,0.041715622,-30.335312,40.067604,-23.631912,11.295426905405188,2.362359947331097,1.5548859999374383,55.53477575953548
31/01/2020, 11:08:55,2.5291407,-4.9433208,9.836346,-2.3306787,-0.2526757,0.2912667,-0.52820814,1.461823,0.041715622,-30.293137,40.334618,-22.800629,11.295426905405188,2.362359947331097,1.5548859999374383,55.357241354499266
31/01/2020, 11:08:55,2.3782544,-4.8499146,9.735755,-2.3306787,-0.2526757,0.2912667,-0.52820814,1.461823,0.041715622,-30.293137,40.334618,-22.800629,11.133853330183207,2.362359947331097,1.5548859999374383,55.357241354499266
31/01/2020, 11:08:55,2.2225783,-4.6822634,9.419612,-2.3306787,-0.2526757,0.2912667,-0.52820814,1.461823,0.041715622,-30.293137,40.334618,-22.800629,10.751396815146176,2.362359947331097,1.5548859999374383,55.357241354499266
31/01/2020, 11:08:55,2.2225783,-4.6822634,9.419612,-2.3306787,-0.2526757,0.2912667,0.47619486,0.58279777,0.16818619,-30.293137,40.334618,-22.800629,10.751396815146176,2.362359947331097,0.7711688354701127,55.357241354499266
31/01/2020, 11:08:55,2.2225783,-4.6822634,9.419612,-2.3306787,-0.2526757,0.2912667,0.47619486,0.58279777,0.16818619,-30.215897,41.048615,-21.879517,10.751396815146176,2.362359947331097,0.7711688354701127,55.46803049486613
31/01/2020, 11:08:55,2.208208,-4.600833,9.10347,-2.3306787,-0.2526757,0.2912667,0.47619486,0.58279777,0.16818619,-30.215897,41.048615,-21.879517,10.436331250091122,2.362359947331097,0.7711688354701127,55.46803049486613
31/01/2020, 11:08:55,2.2345533,-4.88584,8.739427,-2.3306787,-0.2526757,0.2912667,0.47619486,0.58279777,0.16818619,-30.215897,41.048615,-21.879517,10.258763962996124,2.362359947331097,0.7711688354701127,55.46803049486613
31/01/2020, 11:08:55,2.2345533,-4.88584,8.739427,-2.3306787,-0.2526757,0.2912667,0.79883623,-0.52093744,0.7521944,-30.215897,41.048615,-21.879517,10.258763962996124,2.362359947331097,1.2146240430407964,55.46803049486613
31/01/2020, 11:08:55,2.2345533,-4.88584,8.739427,-2.3306787,-0.2526757,0.2912667,0.79883623,-0.52093744,0.7521944,-30.263947,41.92881,-19.955917,10.258763962996124,2.362359947331097,1.2146240430407964,55.42716135098117
31/01/2020, 11:08:55,2.2345533,-4.88584,8.739427,-1.325195,-0.020546991,0.33891416,0.79883623,-0.52093744,0.7521944,-30.263947,41.92881,-19.955917,10.258763962996124,1.368000969438025,1.2146240430407964,55.42716135098117
31/01/2020, 11:08:55,2.4261549,-5.3384986,8.547825,-1.325195,-0.020546991,0.33891416,0.79883623,-0.52093744,0.7521944,-30.263947,41.92881,-19.955917,10.365862454084285,1.368000969438025,1.2146240430407964,55.42716135098117
31/01/2020, 11:08:55,2.6776319,-5.688172,8.528665,-1.325195,-0.020546991,0.33891416,0.79883623,-0.52093744,0.7521944,-30.263947,41.92881,-19.955917,10.595429730348688,1.368000969438025,1.2146240430407964,55.42716135098117
31/01/2020, 11:08:56,1.6836988,-1.6286134,9.754915,0.48296556,0.18836884,-0.22063819,-0.41513467,0.9605746,0.34688568,-27.702393,42.0903,-20.26358,10.032227783584,0.5634001780266258,1.102438244321322,54.31048447161261
31/01/2020, 11:08:56,1.7411792,-1.5256275,9.64714,0.48296556,0.18836884,-0.22063819,-0.41513467,0.9605746,0.34688568,-27.702393,42.0903,-20.26358,9.921015363169575,0.5634001780266258,1.102438244321322,54.31048447161261
31/01/2020, 11:08:56,1.7411792,-1.5256275,9.64714,0.48296556,0.18836884,-0.22063819,-0.73554623,0.357718,1.0778961,-27.702393,42.0903,-20.26358,9.921015363169575,0.5634001780266258,1.3530892287222729,54.31048447161261
31/01/2020, 11:08:56,1.7411792,-1.5256275,9.64714,0.48296556,0.18836884,-0.22063819,-0.73554623,0.357718,1.0778961,-27.40776,41.868294,-20.95758,9.921015363169575,0.5634001780266258,1.3530892287222729,54.2527377001891
31/01/2020, 11:08:56,1.7411792,-1.5256275,9.64714,0.6332383,0.3985064,0.07502048,-0.73554623,0.357718,1.0778961,-27.40776,41.868294,-20.95758,9.921015363169575,0.7519482625318894,1.3530892287222729,54.2527377001891
31/01/2020, 11:08:56,1.7148341,-1.4154567,9.642349,0.6332383,0.3985064,0.07502048,-0.73554623,0.357718,1.0778961,-27.40776,41.868294,-20.95758,9.895406633017208,0.7519482625318894,1.3530892287222729,54.2527377001891
31/01/2020, 11:08:56,2.2489235,-1.1184741,9.685459,0.6332383,0.3985064,0.07502048,-0.73554623,0.357718,1.0778961,-27.40776,41.868294,-20.95758,10.005836304541763,0.7519482625318894,1.3530892287222729,54.2527377001891
31/01/2020, 11:08:56,2.2489235,-1.1184741,9.685459,0.6332383,0.3985064,0.07502048,-0.45848608,0.41376638,0.40485382,-27.40776,41.868294,-20.95758,10.005836304541763,0.7519482625318894,0.7384569876154076,54.2527377001891
31/01/2020, 11:08:56,2.2489235,-1.1184741,9.685459,0.6332383,0.3985064,0.07502048,-0.45848608,0.41376638,0.40485382,-27.555008,41.426643,-20.99379,10.005836304541763,0.7519482625318894,0.7384569876154076,54.00170782612716
31/01/2020, 11:08:56,2.2489235,-1.1184741,9.685459,0.6332383,0.3985064,0.07502048,-0.17461514,1.0992715,0.52140236,-27.555008,41.426643,-20.99379,10.005836304541763,0.7519482625318894,1.2291252085651676,54.00170782612716
31/01/2020, 11:08:56,2.6656568,-1.0394385,9.683064,0.6332383,0.3985064,0.07502048,-0.17461514,1.0992715,0.52140236,-27.555008,41.426643,-20.99379,10.09692507250385,0.7519482625318894,1.2291252085651676,54.00170782612716
31/01/2020, 11:08:56,2.8309133,-1.0178833,9.996812,0.6332383,0.3985064,0.07502048,-0.17461514,1.0992715,0.52140236,-27.555008,41.426643,-20.99379,10.439655360951049,0.7519482625318894,1.2291252085651676,54.00170782612716
31/01/2020, 11:08:56,2.8309133,-1.0178833,9.996812,0.6332383,0.3985064,0.07502048,-0.17461514,1.0992715,0.52140236,-27.794876,41.073578,-21.13176,10.439655360951049,0.7519482625318894,1.2291252085651676,53.9086746535874
31/01/2020, 11:08:56,2.8309133,-1.0178833,9.996812,0.6332383,0.3985064,0.07502048,-0.09568691,1.253676,0.38229942,-27.794876,41.073578,-21.13176,10.439655360951049,0.7519482625318894,1.31415847209238,53.9086746535874
31/01/2020, 11:08:56,2.5147705,-1.8465601,10.095008,0.6332383,0.3985064,0.07502048,-0.09568691,1.253676,0.38229942,-27.794876,41.073578,-21.13176,10.566126982709372,0.7519482625318894,1.31415847209238,53.9086746535874
31/01/2020, 11:08:56,2.0621119,-1.9782863,10.121353,0.6332383,0.3985064,0.07502048,-0.09568691,1.253676,0.38229942,-27.794876,41.073578,-21.13176,10.517020083054922,0.7519482625318894,1.31415847209238,53.9086746535874
31/01/2020, 11:08:56,2.0621119,-1.9782863,10.121353,0.6332383,0.3985064,0.07502048,-0.09568691,1.253676,0.38229942,-27.454102,41.750656,-22.642883,10.517020083054922,0.7519482625318894,1.31415847209238,54.85932139472285
31/01/2020, 11:08:56,1.21188,-1.5280225,9.793235,0.6332383,0.3985064,0.07502048,-0.09568691,1.253676,0.38229942,-27.454102,41.750656,-22.642883,9.985537253636577,0.7519482625318894,1.31415847209238,54.85932139472285
31/01/2020, 11:08:56,1.5783179,-0.79993653,9.484278,0.6332383,0.3985064,0.07502048,-0.09568691,1.253676,0.38229942,-27.454102,41.750656,-22.642883,9.64792774424663,0.7519482625318894,1.31415847209238,54.85932139472285
31/01/2020, 11:08:56,1.5783179,-0.79993653,9.484278,0.6332383,0.3985064,0.07502048,0.875628,1.6191027,0.4159174,-27.454102,41.750656,-22.642883,9.64792774424663,0.7519482625318894,1.8871155958152606,54.85932139472285
31/01/2020, 11:08:57,0.95561284,3.1470559,9.596844,0.55016065,0.07841314,-0.08869134,-0.12558293,0.96903396,0.31292152,-34.771942,24.610893,-28.148102,10.144780228574302,0.5627535077011734,1.0260203517884199,51.05976558848475
31/01/2020, 11:08:57,0.8214917,3.4895437,9.527389,0.55016065,0.07841314,-0.08869134,-0.12558293,0.96903396,0.31292152,-34.771942,24.610893,-28.148102,10.179533227395034,0.5627535077011734,1.0260203517884199,51.05976558848475
31/01/2020, 11:08:57,0.7664063,3.6045046,9.568104,0.55016065,0.07841314,-0.08869134,-0.12558293,0.96903396,0.31292152,-34.771942,24.610893,-28.148102,10.253216181275292,0.5627535077011734,1.0260203517884199,51.05976558848475
31/01/2020, 11:08:57,0.7664063,3.6045046,9.568104,0.55016065,0.07841314,-0.08869134,-0.12558293,0.96903396,0.31292152,-34.659424,24.305023,-28.96576,10.253216181275292,0.5627535077011734,1.0260203517884199,51.29351833360977
31/01/2020, 11:08:57,0.7664063,3.6045046,9.568104,0.729755,0.27511168,-0.060591552,-0.12558293,0.96903396,0.31292152,-34.659424,24.305023,-28.96576,10.253216181275292,0.7822404408584819,1.0260203517884199,51.29351833360977
31/01/2020, 11:08:57,0.88376224,3.5134938,9.635164,0.729755,0.27511168,-0.060591552,-0.12558293,0.96903396,0.31292152,-34.659424,24.305023,-28.96576,10.293787667698387,0.7822404408584819,1.0260203517884199,51.29351833360977
31/01/2020, 11:08:57,0.98435307,3.3937428,10.003997,0.729755,0.27511168,-0.060591552,-0.12558293,0.96903396,0.31292152,-34.659424,24.305023,-28.96576,10.60973110424859,0.7822404408584819,1.0260203517884199,51.29351833360977
31/01/2020, 11:08:57,0.98435307,3.3937428,10.003997,0.729755,0.27511168,-0.060591552,-0.40370226,0.60824466,0.50858593,-34.659424,24.305023,-28.96576,10.60973110424859,0.7822404408584819,0.889717216554136,51.29351833360977
31/01/2020, 11:08:57,0.98435307,3.3937428,10.003997,0.729755,0.27511168,-0.060591552,-0.40370226,0.60824466,0.50858593,-34.68689,24.442566,-29.724976,10.60973110424859,0.7822404408584819,0.889717216554136,51.8092030021859
31/01/2020, 11:08:57,1.104104,3.159031,10.099798,0.729755,0.27511168,-0.060591552,-0.40370226,0.60824466,0.50858593,-34.68689,24.442566,-29.724976,10.639757787879452,0.7822404408584819,0.889717216554136,51.8092030021859
31/01/2020, 11:08:57,0.974773,3.0895753,10.221944,0.729755,0.27511168,-0.060591552,-0.40370226,0.60824466,0.50858593,-34.68689,24.442566,-29.724976,10.723049661310812,0.7822404408584819,0.889717216554136,51.8092030021859
31/01/2020, 11:08:57,0.974773,3.0895753,10.221944,0.729755,0.27511168,-0.060591552,-0.5840386,0.85634255,0.18748188,-34.68689,24.442566,-29.724976,10.723049661310812,0.7822404408584819,1.0533627719946748,51.8092030021859
31/01/2020, 11:08:57,0.974773,3.0895753,10.221944,0.729755,0.27511168,-0.060591552,-0.5840386,0.85634255,0.18748188,-34.203583,23.619957,-29.655594,10.723049661310812,0.7822404408584819,1.0533627719946748,51.061156362261585
31/01/2020, 11:08:57,0.855022,3.0105398,10.114168,0.729755,0.27511168,-0.060591552,-0.5840386,0.85634255,0.18748188,-34.203583,23.619957,-29.655594,10.587294747158728,0.7822404408584819,1.0533627719946748,51.061156362261585
31/01/2020, 11:08:57,0.8047266,3.3721876,9.975257,0.729755,0.27511168,-0.060591552,-0.5840386,0.85634255,0.18748188,-34.203583,23.619957,-29.655594,10.560539040503999,0.7822404408584819,1.0533627719946748,51.061156362261585
31/01/2020, 11:08:57,0.8047266,3.3721876,9.975257,0.729755,0.27511168,-0.060591552,-0.69157624,1.1626022,0.18374062,-34.203583,23.619957,-29.655594,10.560539040503999,0.7822404408584819,1.3651674462834125,51.061156362261585
