DATE,TIME,ax,ay,az,gx,gy,gz,lx,ly,lz,mx,my,mz,ma,mg,ml,mm
31/01/2020, 11:42:08,2.6776319,-0.60354495,10.782378,-0.00855211,0.00244346,-0.04153882,-0.39975703,-0.13708314,-0.4311428,-46.8472,-28.713715,-28.627731,11.126259858337349,0.04248037922456628,0.6037231064517531,61.95711753173308
31/01/2020, 11:42:08,2.703977,-0.45026368,10.95482,-0.00855211,0.00244346,-0.04153882,-0.39975703,-0.13708314,-0.4311428,-46.8472,-28.713715,-28.627731,11.29257737570819,0.04248037922456628,0.6037231064517531,61.95711753173308
31/01/2020, 11:42:08,2.703977,-0.45026368,10.95482,-0.00855211,0.00244346,-0.04153882,0.01674819,-0.6250279,0.31260204,-46.8472,-28.713715,-28.627731,11.29257737570819,0.04248037922456628,0.6990424942332476,61.95711753173308
31/01/2020, 11:42:08,2.703977,-0.45026368,10.95482,-0.00855211,0.00244346,-0.04153882,0.01674819,-0.6250279,0.31260204,-46.856293,-28.605194,-28.507263,11.29257737570819,0.04248037922456628,0.6990424942332476,61.858171256046134
31/01/2020, 11:42:08,2.43813,-0.3161426,10.686578,-0.00855211,0.00244346,-0.04153882,0.01674819,-0.6250279,0.31260204,-46.856293,-28.605194,-28.507263,10.965736115962486,0.04248037922456628,0.6990424942332476,61.858171256046134
31/01/2020, 11:42:08,1.9399658,-0.37122804,10.2315235,-0.00855211,0.00244346,-0.04153882,0.01674819,-0.6250279,0.31260204,-46.856293,-28.605194,-28.507263,10.420429508755396,0.04248037922456628,0.6990424942332476,61.858171256046134
31/01/2020, 11:42:08,1.9399658,-0.37122804,10.2315235,-0.00855211,0.00244346,-0.04153882,0.76486623,-0.2679819,1.170187,-46.856293,-28.605194,-28.507263,10.420429508755396,0.04248037922456628,1.4234367750479249,61.858171256046134
31/01/2020, 11:42:08,1.9399658,-0.37122804,10.2315235,-0.00855211,0.00244346,-0.04153882,0.76486623,-0.2679819,1.170187,-46.759323,-28.60759,-28.5027,10.420429508755396,0.04248037922456628,1.4234367750479249,61.78375548275357
31/01/2020, 11:42:08,1.9399658,-0.37122804,10.2315235,0.0036651902,0.0855211,-0.05742131,0.76486623,-0.2679819,1.170187,-46.759323,-28.60759,-28.5027,10.420429508755396,0.1030752130225323,1.4234367750479249,61.78375548275357
31/01/2020, 11:42:08,1.9399658,-0.37122804,10.2315235,0.0036651902,0.0855211,-0.05742131,0.76486623,-0.2679819,1.170187,-46.566666,-28.502579,-27.911163,10.420429508755396,0.1030752130225323,1.4234367750479249,61.31789610470611
31/01/2020, 11:42:08,1.9399658,-0.37122804,10.2315235,0.0036651902,0.0855211,-0.05742131,0.76486623,-0.2679819,1.170187,-46.835526,-28.711807,-27.93483,10.420429508755396,0.1030752130225323,1.4234367750479249,61.63026072232049
31/01/2020, 11:42:08,1.9399658,-0.37122804,10.2315235,0.0036651902,0.0855211,-0.05742131,0.76486623,-0.2679819,1.170187,-47.022324,-28.815872,-28.179901,10.420429508755396,0.1030752130225323,1.4234367750479249,61.931899979294876
31/01/2020, 11:42:08,1.9399658,-0.37122804,10.2315235,0.0036651902,0.0855211,-0.05742131,0.76486623,-0.2679819,1.170187,-46.756073,-28.717056,-28.969604,10.420429508755396,0.1030752130225323,1.4234367750479249,62.04867176419107
31/01/2020, 11:42:08,1.9399658,-0.37122804,10.2315235,0.0036651902,0.0855211,-0.05742131,0.51584804,0.019403309,1.0763731,-46.756073,-28.717056,-28.969604,10.420429508755396,0.1030752130225323,1.1937565666268848,62.04867176419107
31/01/2020, 11:42:08,1.9399658,-0.37122804,10.2315235,0.0036651902,0.0855211,-0.05742131,-0.38699782,-0.16504586,0.19554234,-46.756073,-28.717056,-28.969604,10.420429508755396,0.1030752130225323,0.46394423361116893,62.04867176419107
31/01/2020, 11:42:08,1.9399658,-0.37122804,10.2315235,0.0036651902,0.0855211,-0.05742131,-0.64965165,-0.32596946,-0.35364532,-46.756073,-28.717056,-28.969604,10.420429508755396,0.1030752130225323,0.8083120467620981,62.04867176419107
31/01/2020, 11:42:08,1.9399658,-0.37122804,10.2315235,0.0036651902,0.0855211,-0.05742131,-0.57206106,0.27003026,-0.55044746,-46.756073,-28.717056,-28.969604,10.420429508755396,0.1030752130225323,0.8385479178137327,62.04867176419107
31/01/2020, 11:42:08,1.5112574,-0.4981641,9.81,0.0036651902,0.0855211,-0.05742131,-0.57206106,0.27003026,-0.55044746,-46.756073,-28.717056,-28.969604,9.938217881009537,0.1030752130225323,0.8385479178137327,62.04867176419107
31/01/2020, 11:42:08,1.22146,-0.6514453,9.436378,0.0036651902,0.0855211,-0.05742131,-0.57206106,0.27003026,-0.55044746,-46.756073,-28.717056,-28.969604,9.53737732879879,0.1030752130225323,0.8385479178137327,62.04867176419107
31/01/2020, 11:42:08,1.2310401,-0.6586304,9.263936,0.0036651902,0.0855211,-0.05742131,-0.57206106,0.27003026,-0.55044746,-46.756073,-28.717056,-28.969604,9.368551902397028,0.1030752130225323,0.8385479178137327,62.04867176419107
31/01/2020, 11:42:09,-2.2225783,1.4322218,5.5564456,-1.325577,-0.27733272,0.05742131,3.9960542,-2.492356,5.696806,-47.0365,-29.508362,-27.304886,6.153470657434506,1.3554944057533365,7.391473856169955,61.87675209260684
31/01/2020, 11:42:09,-2.2225783,1.4322218,5.5564456,-1.325577,-0.27733272,0.05742131,2.4688349,-0.17554039,4.182911,-47.0365,-29.508362,-27.304886,6.153470657434506,1.3554944057533365,4.860319314152655,61.87675209260684
31/01/2020, 11:42:09,-2.2225783,1.4322218,5.5564456,-1.325577,-0.27733272,0.05742131,2.4688349,-0.17554039,4.182911,-46.992584,-28.487503,-27.028778,6.153470657434506,1.3554944057533365,4.860319314152655,61.24047392769749
31/01/2020, 11:42:09,-2.2225783,1.4322218,5.5564456,0.7696899,0.70493823,-0.7354815,2.4688349,-0.17554039,4.182911,-46.992584,-28.487503,-27.028778,6.153470657434506,1.276829479282625,4.860319314152655,61.24047392769749
31/01/2020, 11:42:09,-2.2225783,1.4322218,5.5564456,0.7696899,0.70493823,-0.7354815,-1.813827,0.81912476,-1.8311605,-46.992584,-28.487503,-27.028778,6.153470657434506,1.276829479282625,2.704456107150956,61.24047392769749
31/01/2020, 11:42:09,-3.307522,1.4154567,4.5696974,0.7696899,0.70493823,-0.7354815,-1.813827,0.81912476,-1.8311605,-46.992584,-28.487503,-27.028778,5.815956829986403,1.276829479282625,2.704456107150956,61.24047392769749
31/01/2020, 11:42:09,-2.3303542,0.13891114,4.5720925,0.7696899,0.70493823,-0.7354815,-1.813827,0.81912476,-1.8311605,-46.992584,-28.487503,-27.028778,5.133602750344669,1.276829479282625,2.704456107150956,61.24047392769749
31/01/2020, 11:42:09,-2.3303542,0.13891114,4.5720925,0.7696899,0.70493823,-0.7354815,-1.813827,0.81912476,-1.8311605,-47.3105,-27.712784,-27.791382,5.133602750344669,1.276829479282625,2.704456107150956,61.47066621769364
31/01/2020, 11:42:09,-2.3303542,0.13891114,4.5720925,0.7696899,0.70493823,-0.7354815,-4.9414,1.3732853,-5.0953627,-47.3105,-27.712784,-27.791382,5.133602750344669,1.276829479282625,7.229527483381979,61.47066621769364
31/01/2020, 11:42:09,-0.732876,-1.1711646,4.2990603,0.7696899,0.70493823,-0.7354815,-4.9414,1.3732853,-5.0953627,-47.3105,-27.712784,-27.791382,4.515601142448552,1.276829479282625,7.229527483381979,61.47066621769364
31/01/2020, 11:42:09,1.21188,-2.0980372,6.2965064,0.7696899,0.70493823,-0.7354815,-4.9414,1.3732853,-5.0953627,-47.3105,-27.712784,-27.791382,6.746584783251672,1.276829479282625,7.229527483381979,61.47066621769364
31/01/2020, 11:42:09,1.21188,-2.0980372,6.2965064,0.7696899,0.70493823,-0.7354815,-4.9414,1.3732853,-5.0953627,-47.198227,-28.685074,-27.698517,6.746584783251672,1.276829479282625,7.229527483381979,61.78765186177101
31/01/2020, 11:42:09,1.21188,-2.0980372,6.2965064,0.7696899,0.70493823,-0.7354815,-2.2797096,-1.0734177,-5.3800173,-47.198227,-28.685074,-27.698517,6.746584783251672,1.276829479282625,5.940865860951446,61.78765186177101
31/01/2020, 11:42:09,3.9709425,-3.6284547,9.520203,0.7696899,0.70493823,-0.7354815,-2.2797096,-1.0734177,-5.3800173,-47.198227,-28.685074,-27.698517,10.934730264771547,1.276829479282625,5.940865860951446,61.78765186177101
31/01/2020, 11:42:09,6.71324,-3.3793726,11.1104965,0.7696899,0.70493823,-0.7354815,-2.2797096,-1.0734177,-5.3800173,-47.198227,-28.685074,-27.698517,13.413831867035114,1.276829479282625,5.940865860951446,61.78765186177101
31/01/2020, 11:42:09,6.71324,-3.3793726,11.1104965,0.7696899,0.70493823,-0.7354815,-2.2797096,-1.0734177,-5.3800173,-46.28093,-29.811508,-27.718445,13.413831867035114,1.276829479282625,5.940865860951446,61.63572539366169
31/01/2020, 11:42:09,6.71324,-3.3793726,11.1104965,0.7696899,0.70493823,-0.7354815,2.2757769,-3.1500921,-0.12620068,-46.28093,-29.811508,-27.718445,13.413831867035114,1.276829479282625,3.888208756847962,61.63572539366169
31/01/2020, 11:42:09,7.683223,-1.089734,13.380975,0.7696899,0.70493823,-0.7354815,2.2757769,-3.1500921,-0.12620068,-46.28093,-29.811508,-27.718445,15.46835214327239,1.276829479282625,3.888208756847962,61.63572539366169
31/01/2020, 11:42:09,6.638994,1.5926881,15.88377,0.7696899,0.70493823,-0.7354815,2.2757769,-3.1500921,-0.12620068,-46.28093,-29.811508,-27.718445,17.2889284979715,1.276829479282625,3.888208756847962,61.63572539366169
31/01/2020, 11:42:09,6.638994,1.5926881,15.88377,0.7696899,0.70493823,-0.7354815,2.2757769,-3.1500921,-0.12620068,-45.78694,-30.375519,-28.161697,17.2889284979715,1.276829479282625,3.888208756847962,61.74299439265891
31/01/2020, 11:42:10,1.2525953,3.3817677,9.524993,-0.1710422,-0.49968758,-0.27733272,0.930715,-0.45267272,0.7724991,-40.428375,-30.57405,-24.412964,10.184833757764238,0.5965371360610889,1.2914712090013982,56.260278334722685
31/01/2020, 11:42:10,1.4082716,2.9578493,9.2328005,-0.1710422,-0.49968758,-0.27733272,0.930715,-0.45267272,0.7724991,-40.428375,-30.57405,-24.412964,9.796770172000999,0.5965371360610889,1.2914712090013982,56.260278334722685
31/01/2020, 11:42:10,1.1160791,2.9746144,8.768167,-0.1710422,-0.49968758,-0.27733272,0.930715,-0.45267272,0.7724991,-40.428375,-30.57405,-24.412964,9.32602314865192,0.5965371360610889,1.2914712090013982,56.260278334722685
31/01/2020, 11:42:10,1.1160791,2.9746144,8.768167,-0.1710422,-0.49968758,-0.27733272,0.930715,-0.45267272,0.7724991,-40.496353,-31.110703,-23.976593,9.32602314865192,0.5965371360610889,1.2914712090013982,56.41548938091016
31/01/2020, 11:42:10,0.9532178,2.0381618,9.002879,-0.1710422,-0.49968758,-0.27733272,0.930715,-0.45267272,0.7724991,-40.496353,-31.110703,-23.976593,9.279793121605598,0.5965371360610889,1.2914712090013982,56.41548938091016
31/01/2020, 11:42:10,2.7255323,3.9733377,8.650811,-0.1710422,-0.49968758,-0.27733272,0.930715,-0.45267272,0.7724991,-40.496353,-31.110703,-23.976593,9.90214485367755,0.5965371360610889,1.2914712090013982,56.41548938091016
31/01/2020, 11:42:10,2.7255323,3.9733377,8.650811,-0.1710422,-0.49968758,-0.27733272,1.4046243,-1.3190148,0.40914917,-40.496353,-31.110703,-23.976593,9.90214485367755,0.5965371360610889,1.9698153715689324,56.41548938091016
31/01/2020, 11:42:10,2.7255323,3.9733377,8.650811,-0.1710422,-0.49968758,-0.27733272,1.4046243,-1.3190148,0.40914917,-40.43892,-31.4113,-23.451218,9.90214485367755,0.5965371360610889,1.9698153715689324,56.31993957535391
31/01/2020, 11:42:10,2.7255323,3.9733377,8.650811,0.3738494,-0.95905805,1.4734064,1.4046243,-1.3190148,0.40914917,-40.43892,-31.4113,-23.451218,9.90214485367755,1.7973542288680997,1.9698153715689324,56.31993957535391
31/01/2020, 11:42:10,2.7255323,3.9733377,8.650811,0.3738494,-0.95905805,1.4734064,0.7917831,-2.1458259,0.13664436,-40.43892,-31.4113,-23.451218,9.90214485367755,1.7973542288680997,2.2913229332552283,56.31993957535391
31/01/2020, 11:42:10,4.287085,6.4928985,9.862691,0.3738494,-0.95905805,1.4734064,0.7917831,-2.1458259,0.13664436,-40.43892,-31.4113,-23.451218,12.56222516277738,1.7973542288680997,2.2913229332552283,56.31993957535391
31/01/2020, 11:42:10,1.7866846,6.715635,8.763377,0.3738494,-0.95905805,1.4734064,0.7917831,-2.1458259,0.13664436,-40.43892,-31.4113,-23.451218,11.184309223950887,1.7973542288680997,2.2913229332552283,56.31993957535391
31/01/2020, 11:42:10,1.7866846,6.715635,8.763377,0.3738494,-0.95905805,1.4734064,0.7917831,-2.1458259,0.13664436,-41.102844,-30.834717,-23.26677,11.184309223950887,1.7973542288680997,2.2913229332552283,56.40537317631925
31/01/2020, 11:42:10,1.7866846,6.715635,8.763377,0.3738494,-0.95905805,1.4734064,3.7790666,2.2294478,1.0456934,-41.102844,-30.834717,-23.26677,11.184309223950887,1.7973542288680997,4.510571631754923,56.40537317631925
31/01/2020, 11:42:10,-1.7914747,5.606741,8.6077,0.3738494,-0.95905805,1.4734064,3.7790666,2.2294478,1.0456934,-41.102844,-30.834717,-23.26677,10.427724151393047,1.7973542288680997,4.510571631754923,56.40537317631925
31/01/2020, 11:42:10,-3.8056862,4.655918,8.066426,0.3738494,-0.95905805,1.4734064,3.7790666,2.2294478,1.0456934,-41.102844,-30.834717,-23.26677,10.06121534209438,1.7973542288680997,4.510571631754923,56.40537317631925
31/01/2020, 11:42:10,-3.8056862,4.655918,8.066426,0.3738494,-0.95905805,1.4734064,3.7790666,2.2294478,1.0456934,-41.16478,-30.418854,-23.245209,10.06121534209438,1.7973542288680997,4.510571631754923,56.21552702008129
31/01/2020, 11:42:10,-3.8056862,4.655918,8.066426,0.3738494,-0.95905805,1.4734064,-2.390746,1.2129965,-0.13814068,-41.16478,-30.418854,-23.245209,10.06121534209438,1.7973542288680997,2.6844199203282817,56.21552702008129
31/01/2020, 11:42:10,-3.0776002,4.1936793,8.226892,0.3738494,-0.95905805,1.4734064,-2.390746,1.2129965,-0.13814068,-41.16478,-30.418854,-23.245209,9.733464404925401,1.7973542288680997,2.6844199203282817,56.21552702008129
31/01/2020, 11:42:10,-0.5963599,4.397256,8.952583,0.3738494,-0.95905805,1.4734064,-2.390746,1.2129965,-0.13814068,-41.16478,-30.418854,-23.245209,9.992009434785901,1.7973542288680997,2.6844199203282817,56.21552702008129
31/01/2020, 11:42:41,2.203418,5.0031962,8.413704,-0.28466308,0.02687806,0.06352996,0.12093532,0.08235502,-0.2406683,-45.81761,-32.212967,-11.959183,10.033814688007,0.2929019560403864,0.28165391998151706,57.27085498650231
31/01/2020, 11:42:41,-0.50774413,6.0833497,8.624466,-0.28466308,0.02687806,0.06352996,0.12093532,0.08235502,-0.2406683,-45.81761,-32.212967,-11.959183,10.566284139970236,0.2929019560403864,0.28165391998151706,57.27085498650231
31/01/2020, 11:42:41,-0.3281177,6.13604,8.298743,-0.28466308,0.02687806,0.06352996,0.12093532,0.08235502,-0.2406683,-45.81761,-32.212967,-11.959183,10.326073318916274,0.2929019560403864,0.28165391998151706,57.27085498650231
31/01/2020, 11:42:41,-0.1939966,6.0258694,7.9730206,-0.28466308,0.02687806,0.06352996,0.12093532,0.08235502,-0.2406683,-45.81761,-32.212967,-11.959183,9.995888809132733,0.2929019560403864,0.28165391998151706,57.27085498650231
31/01/2020, 11:42:41,-0.24908204,5.7983427,7.6592727,-0.28466308,0.02687806,0.06352996,0.12093532,0.08235502,-0.2406683,-45.81761,-32.212967,-11.959183,9.609749103455046,0.2929019560403864,0.28165391998151706,57.27085498650231
31/01/2020, 11:42:41,-0.50534916,5.374424,7.5203614,-0.28466308,0.02687806,0.06352996,0.12093532,0.08235502,-0.2406683,-45.81761,-32.212967,-11.959183,9.25719432858359,0.2929019560403864,0.28165391998151706,57.27085498650231
31/01/2020, 11:42:41,-0.69695073,5.0271463,7.6233473,-0.28466308,0.02687806,0.06352996,0.12093532,0.08235502,-0.2406683,-45.81761,-32.212967,-11.959183,9.158240247519341,0.2929019560403864,0.28165391998151706,57.27085498650231
31/01/2020, 11:42:41,-0.87418216,4.641548,7.831714,-0.28466308,0.02687806,0.06352996,0.12093532,0.08235502,-0.2406683,-45.81761,-32.212967,-11.959183,9.145704474078837,0.2929019560403864,0.28165391998151706,57.27085498650231
31/01/2020, 11:42:41,-0.97237796,4.4906616,8.056846,-0.28466308,0.02687806,0.06352996,0.12093532,0.08235502,-0.2406683,-45.81761,-32.212967,-11.959183,9.27492979777131,0.2929019560403864,0.28165391998151706,57.27085498650231
31/01/2020, 11:42:41,-0.97237796,4.4906616,8.056846,-0.28466308,0.02687806,0.06352996,0.12093532,0.08235502,-0.2406683,15.215164,-43.49945,2.3079834,9.27492979777131,0.2929019560403864,0.28165391998151706,46.141415434567016
31/01/2020, 11:42:41,-0.97237796,4.4906616,8.056846,-0.28466308,0.02687806,0.06352996,-1.8612303,1.6310854,-1.0688052,15.215164,-43.49945,2.3079834,9.27492979777131,0.2929019560403864,2.6957303687421765,46.141415434567016
31/01/2020, 11:42:41,-0.97237796,4.4906616,8.056846,-0.28466308,0.02687806,0.06352996,-2.271236,0.8798394,-1.1208496,15.215164,-43.49945,2.3079834,9.27492979777131,0.2929019560403864,2.6812187453532372,46.141415434567016
31/01/2020, 11:42:41,-0.90052736,4.6607084,8.226892,-0.28466308,0.02687806,0.06352996,-2.271236,0.8798394,-1.1208496,15.215164,-43.49945,2.3079834,9.49815309955939,0.2929019560403864,2.6812187453532372,46.141415434567016
31/01/2020, 11:42:41,-0.79035646,5.039121,8.337064,-0.28466308,0.02687806,0.06352996,-2.271236,0.8798394,-1.1208496,15.215164,-43.49945,2.3079834,9.77363995303869,0.2929019560403864,2.6812187453532372,46.141415434567016
31/01/2020, 11:42:41,-0.79035646,5.039121,8.337064,-0.28466308,0.02687806,0.06352996,-2.271236,0.8798394,-1.1208496,15.124039,-43.496124,2.6498718,9.77363995303869,0.2929019560403864,2.6812187453532372,46.126686348388255
31/01/2020, 11:42:41,-0.5676197,5.1636624,8.305928,-0.28466308,0.02687806,0.06352996,-2.271236,0.8798394,-1.1208496,15.124039,-43.496124,2.6498718,9.79663440155566,0.2929019560403864,2.6812187453532372,46.126686348388255
31/01/2020, 11:42:41,-0.34488282,5.1924024,8.190968,-0.28466308,0.02687806,0.06352996,-2.271236,0.8798394,-1.1208496,15.124039,-43.496124,2.6498718,9.704222587111879,0.2929019560403864,2.6812187453532372,46.126686348388255
31/01/2020, 11:42:41,-0.34488282,5.1924024,8.190968,-0.28466308,0.02687806,0.06352996,-2.5035474,0.33434296,-0.6908121,15.124039,-43.496124,2.6498718,9.704222587111879,0.2929019560403864,2.6185408760623465,46.126686348388255
31/01/2020, 11:42:41,-0.34488282,5.1924024,8.190968,-0.28466308,0.02687806,0.06352996,-2.5035474,0.33434296,-0.6908121,15.124039,-43.496124,2.6498718,9.704222587111879,0.2929019560403864,2.6185408760623465,46.126686348388255
31/01/2020, 11:42:41,-0.34488282,5.1924024,8.190968,0.13072512,-0.08185591,0.021991141,-2.5035474,0.33434296,-0.6908121,15.124039,-43.496124,2.6498718,9.704222587111879,0.15579812515375777,2.6185408760623465,46.126686348388255
31/01/2020, 11:42:42,-0.2083667,5.230723,8.131092,0.26878062,0.13316858,0.10751224,-1.0323609,0.45522213,0.5081196,14.401169,-43.046646,2.637741,9.670498284002779,0.31864678520286405,1.2374092894280622,45.46828656932071
31/01/2020, 11:42:42,-0.40715334,5.855823,7.6592727,0.26878062,0.13316858,0.10751224,-1.0323609,0.45522213,0.5081196,14.401169,-43.046646,2.637741,9.649916847389495,0.31864678520286405,1.2374092894280622,45.46828656932071
31/01/2020, 11:42:42,-0.40715334,5.855823,7.6592727,0.26878062,0.13316858,0.10751224,-1.090153,-0.16685152,0.22275352,14.401169,-43.046646,2.637741,9.649916847389495,0.31864678520286405,1.1251186960077582,45.46828656932071
31/01/2020, 11:42:42,-0.40715334,5.855823,7.6592727,0.26878062,0.13316858,0.10751224,-1.090153,-0.16685152,0.22275352,14.598343,-43.160873,2.1799774,9.649916847389495,0.31864678520286405,1.1251186960077582,45.61496366998277
31/01/2020, 11:42:42,-0.6849756,6.4210477,7.4916215,0.26878062,0.13316858,0.10751224,-1.090153,-0.16685152,0.22275352,14.598343,-43.160873,2.1799774,9.890573169684707,0.31864678520286405,1.1251186960077582,45.61496366998277
31/01/2020, 11:42:42,-0.80233157,6.7779055,7.7167535,0.26878062,0.13316858,0.10751224,-1.090153,-0.16685152,0.22275352,14.598343,-43.160873,2.1799774,10.302039736816752,0.31864678520286405,1.1251186960077582,45.61496366998277
31/01/2020, 11:42:42,-0.80233157,6.7779055,7.7167535,0.26878062,0.13316858,0.10751224,-0.789186,0.09532404,-0.039465904,14.598343,-43.160873,2.1799774,10.302039736816752,0.31864678520286405,0.7959012338176864,45.61496366998277
31/01/2020, 11:42:42,-0.80233157,6.7779055,7.7167535,0.26878062,0.13316858,0.10751224,-0.789186,0.09532404,-0.039465904,14.64566,-43.703125,1.6931915,10.302039736816752,0.31864678520286405,0.7959012338176864,46.1229379038323
31/01/2020, 11:42:42,-0.8765772,6.7324004,8.224498,0.26878062,0.13316858,0.10751224,-0.789186,0.09532404,-0.039465904,14.64566,-43.703125,1.6931915,10.66470660383411,0.31864678520286405,0.7959012338176864,46.1229379038323
31/01/2020, 11:42:42,-1.1591895,6.2917166,8.59333,0.26878062,0.13316858,0.10751224,-0.789186,0.09532404,-0.039465904,14.64566,-43.703125,1.6931915,10.713297566803137,0.31864678520286405,0.7959012338176864,46.1229379038323
31/01/2020, 11:42:42,-1.1591895,6.2917166,8.59333,0.26878062,0.13316858,0.10751224,-1.1708738,1.2313004,-0.9533553,14.64566,-43.703125,1.6931915,10.713297566803137,0.31864678520286405,1.9483152409104894,46.1229379038323
31/01/2020, 11:42:42,-1.1591895,6.2917166,8.59333,0.26878062,0.13316858,0.10751224,-1.1708738,1.2313004,-0.9533553,14.361252,-43.584915,2.7238007,10.713297566803137,0.31864678520286405,1.9483152409104894,45.9707458476482
31/01/2020, 11:42:42,-1.5256275,5.6857767,8.880733,0.26878062,0.13316858,0.10751224,-1.1708738,1.2313004,-0.9533553,14.361252,-43.584915,2.7238007,10.654717567039373,0.31864678520286405,1.9483152409104894,45.9707458476482
31/01/2020, 11:42:42,-1.8585353,5.479805,8.813672,0.26878062,0.13316858,0.10751224,-1.1708738,1.2313004,-0.9533553,14.361252,-43.584915,2.7238007,10.543397529419495,0.31864678520286405,1.9483152409104894,45.9707458476482
31/01/2020, 11:42:42,-1.8585353,5.479805,8.813672,0.26878062,0.13316858,0.10751224,-1.5596206,2.1227074,-0.88020563,14.361252,-43.584915,2.7238007,10.543397529419495,0.31864678520286405,2.777240535787212,45.9707458476482
31/01/2020, 11:42:42,-1.8585353,5.479805,8.813672,0.26878062,0.13316858,0.10751224,-1.5596206,2.1227074,-0.88020563,14.329483,-43.370102,2.1563263,10.543397529419495,0.31864678520286405,2.777240535787212,45.726902020185065
31/01/2020, 11:42:42,-1.8585353,5.479805,8.813672,-0.13683376,0.040317092,0.23335044,-1.5596206,2.1227074,-0.88020563,14.329483,-43.370102,2.1563263,10.543397529419495,0.27349839718582836,2.777240535787212,45.726902020185065
31/01/2020, 11:42:42,-1.5112574,5.6833816,8.634046,-0.13683376,0.040317092,0.23335044,-1.5596206,2.1227074,-0.88020563,14.329483,-43.370102,2.1563263,10.446600802434507,0.27349839718582836,2.777240535787212,45.726902020185065
31/01/2020, 11:42:42,-0.974773,5.977969,8.514295,-0.13683376,0.040317092,0.23335044,-1.5596206,2.1227074,-0.88020563,14.329483,-43.370102,2.1563263,10.448899976758552,0.27349839718582836,2.777240535787212,45.726902020185065
31/01/2020, 11:42:42,-0.974773,5.977969,8.514295,-0.13683376,0.040317092,0.23335044,-1.8992889,1.6523366,-0.014003754,14.329483,-43.370102,2.1563263,10.448899976758552,0.27349839718582836,2.5174810097542197,45.726902020185065
31/01/2020, 11:42:43,-0.13172609,4.6654983,8.533455,-0.04642574,0.018325951,-0.029321522,-0.40693456,0.22973299,-0.03266716,12.535568,-44.006897,0.96788025,9.72646277894579,0.05788731765525763,0.4684443678285149,45.767720550302194
31/01/2020, 11:42:43,-0.13172609,4.6654983,8.533455,-0.04642574,0.018325951,-0.029321522,0.0063875318,0.38573933,-0.007000923,12.535568,-44.006897,0.96788025,9.72646277894579,0.05788731765525763,0.3858557262474752,45.767720550302194
31/01/2020, 11:42:43,-0.27303225,4.641548,8.344249,-0.04642574,0.018325951,-0.029321522,0.0063875318,0.38573933,-0.007000923,12.535568,-44.006897,0.96788025,9.552225053004863,0.05788731765525763,0.3858557262474752,45.767720550302194
31/01/2020, 11:42:43,-0.6346802,4.8091993,8.272398,-0.04642574,0.018325951,-0.029321522,0.0063875318,0.38573933,-0.007000923,12.535568,-44.006897,0.96788025,9.589775064353114,0.05788731765525763,0.3858557262474752,45.767720550302194
31/01/2020, 11:42:43,-0.6346802,4.8091993,8.272398,-0.04642574,0.018325951,-0.029321522,0.0063875318,0.38573933,-0.007000923,12.406845,-43.789734,0.3958435,9.589775064353114,0.05788731765525763,0.3858557262474752,45.515132550689685
31/01/2020, 11:42:43,-0.97956306,5.0367265,8.222102,-0.04642574,0.018325951,-0.029321522,0.0063875318,0.38573933,-0.007000923,12.406845,-43.789734,0.3958435,9.691806920300586,0.05788731765525763,0.3858557262474752,45.515132550689685
31/01/2020, 11:42:43,-1.2573853,5.125342,8.236472,-0.04642574,0.018325951,-0.029321522,0.0063875318,0.38573933,-0.007000923,12.406845,-43.789734,0.3958435,9.78210715206325,0.05788731765525763,0.3858557262474752,45.515132550689685
31/01/2020, 11:42:43,-1.2573853,5.125342,8.236472,-0.04642574,0.018325951,-0.029321522,0.2758639,0.09058237,-0.024259567,12.406845,-43.789734,0.3958435,9.78210715206325,0.05788731765525763,0.2913667380267958,45.515132550689685
31/01/2020, 11:42:43,-1.2573853,5.125342,8.236472,-0.04642574,0.018325951,-0.029321522,0.2758639,0.09058237,-0.024259567,12.497955,-43.793076,0.053955078,9.78210715206325,0.05788731765525763,0.2913667380267958,45.54157732803185
31/01/2020, 11:42:43,-1.336421,5.1708474,8.356223,-0.04642574,0.018325951,-0.029321522,0.2758639,0.09058237,-0.024259567,12.497955,-43.793076,0.053955078,9.917164349051705,0.05788731765525763,0.2913667380267958,45.54157732803185
31/01/2020, 11:42:43,-1.1615845,5.206773,8.667576,-0.04642574,0.018325951,-0.029321522,0.2758639,0.09058237,-0.024259567,12.497955,-43.793076,0.053955078,10.177751836906264,0.05788731765525763,0.2913667380267958,45.54157732803185
31/01/2020, 11:42:43,-1.1615845,5.206773,8.667576,-0.04642574,0.018325951,-0.029321522,0.14191401,-0.04057741,-0.26117992,12.497955,-43.793076,0.053955078,10.177751836906264,0.05788731765525763,0.30000177547930523,45.54157732803185
31/01/2020, 11:42:43,-1.1615845,5.206773,8.667576,-0.04642574,0.018325951,-0.029321522,0.14191401,-0.04057741,-0.26117992,12.535568,-44.006897,0.96788025,10.177751836906264,0.05788731765525763,0.30000177547930523,45.767720550302194
31/01/2020, 11:42:43,-0.89573735,5.1708474,8.823253,-0.04642574,0.018325951,-0.029321522,0.14191401,-0.04057741,-0.26117992,12.535568,-44.006897,0.96788025,10.265953254194587,0.05788731765525763,0.30000177547930523,45.767720550302194
31/01/2020, 11:42:43,-0.6706055,5.0343313,8.734636,-0.04642574,0.018325951,-0.029321522,0.14191401,-0.04057741,-0.26117992,12.535568,-44.006897,0.96788025,10.10386435869647,0.05788731765525763,0.30000177547930523,45.767720550302194
31/01/2020, 11:42:43,-0.6706055,5.0343313,8.734636,-0.04642574,0.018325951,-0.029321522,-0.53760576,0.3335929,-0.37059212,12.535568,-44.006897,0.96788025,10.10386435869647,0.05788731765525763,0.7332412226911984,45.767720550302194
31/01/2020, 11:42:43,-0.6706055,5.0343313,8.734636,-0.04642574,0.018325951,-0.029321522,-0.53760576,0.3335929,-0.37059212,12.555008,-44.333725,0.14457703,10.10386435869647,0.05788731765525763,0.7332412226911984,46.077416344284856
31/01/2020, 11:42:43,-0.6706055,5.0343313,8.734636,-0.102625325,-0.0122173,0.02076941,-0.53760576,0.3335929,-0.37059212,12.555008,-44.333725,0.14457703,10.10386435869647,0.10541626156331922,0.7332412226911984,46.077416344284856
31/01/2020, 11:42:43,-0.6706055,5.0343313,8.734636,-0.102625325,-0.0122173,0.02076941,-0.87039065,0.4598832,-0.2310381,12.555008,-44.333725,0.14457703,10.10386435869647,0.10541626156331922,1.0111632213495587,46.077416344284856
31/01/2020, 11:42:43,-0.45505372,4.888235,8.58854,-0.102625325,-0.0122173,0.02076941,-0.87039065,0.4598832,-0.2310381,12.555008,-44.333725,0.14457703,9.892670865815287,0.10541626156331922,1.0111632213495587,46.077416344284856
31/01/2020, 11:42:44,-0.30895755,4.4691067,8.813672,-0.23579389,-0.00488692,0.00977384,-0.31275016,-0.09278011,0.023418427,13.71933,-43.18878,-4.009598,9.886818725629615,0.23604696106212475,0.327061515809689,45.492502167659026
31/01/2020, 11:42:44,-0.30895755,4.4691067,8.813672,-0.23579389,-0.00488692,0.00977384,-0.03620726,0.17812395,-0.032859802,13.71933,-43.18878,-4.009598,9.886818725629615,0.23604696106212475,0.18471295052403547,45.492502167659026
31/01/2020, 11:42:44,-0.20118165,4.2248144,8.840017,-0.23579389,-0.00488692,0.00977384,-0.03620726,0.17812395,-0.032859802,13.71933,-43.18878,-4.009598,9.799767195843799,0.23604696106212475,0.18471295052403547,45.492502167659026
31/01/2020, 11:42:44,-0.2706372,3.9685476,8.801697,-0.23579389,-0.00488692,0.00977384,-0.03620726,0.17812395,-0.032859802,13.71933,-43.18878,-4.009598,9.658803268395827,0.23604696106212475,0.18471295052403547,45.492502167659026
31/01/2020, 11:42:44,-0.2706372,3.9685476,8.801697,-0.23579389,-0.00488692,0.00977384,-0.03620726,0.17812395,-0.032859802,13.9761505,-43.73326,-3.563385,9.658803268395827,0.23604696106212475,0.18471295052403547,46.05028363709274
31/01/2020, 11:42:44,-0.2706372,3.9685476,8.801697,-0.23579389,-0.00488692,0.00977384,0.26435474,0.1867094,0.011174202,13.9761505,-43.73326,-3.563385,9.658803268395827,0.23604696106212475,0.3238343566847835,46.05028363709274
31/01/2020, 11:42:44,-0.3903882,3.7985013,8.849598,-0.23579389,-0.00488692,0.00977384,0.26435474,0.1867094,0.011174202,13.9761505,-43.73326,-3.563385,9.63827776359575,0.23604696106212475,0.3238343566847835,46.05028363709274
31/01/2020, 11:42:44,-0.6610254,3.7601807,8.875943,-0.23579389,-0.00488692,0.00977384,0.26435474,0.1867094,0.011174202,13.9761505,-43.73326,-3.563385,9.662208907633548,0.23604696106212475,0.3238343566847835,46.05028363709274
31/01/2020, 11:42:44,-0.6610254,3.7601807,8.875943,-0.23579389,-0.00488692,0.00977384,0.26435474,0.1867094,0.011174202,13.557159,-43.39882,-3.4512787,9.662208907633548,0.23604696106212475,0.3238343566847835,45.59786600469633
31/01/2020, 11:42:44,-0.6610254,3.7601807,8.875943,-0.23579389,-0.00488692,0.00977384,0.30880204,-0.27226806,-0.020363808,13.557159,-43.39882,-3.4512787,9.662208907633548,0.23604696106212475,0.4121932536977006,45.59786600469633
31/01/2020, 11:42:44,-0.852627,3.8320315,8.871153,-0.23579389,-0.00488692,0.00977384,0.30880204,-0.27226806,-0.020363808,13.557159,-43.39882,-3.4512787,9.700968584403475,0.23604696106212475,0.4121932536977006,45.59786600469633
31/01/2020, 11:42:44,-0.91010743,4.061953,8.859178,-0.23579389,-0.00488692,0.00977384,0.30880204,-0.27226806,-0.020363808,13.557159,-43.39882,-3.4512787,9.788400575513542,0.23604696106212475,0.4121932536977006,45.59786600469633
31/01/2020, 11:42:44,-0.91010743,4.061953,8.859178,-0.23579389,-0.00488692,0.00977384,0.30880204,-0.27226806,-0.020363808,13.641159,-43.293335,-3.5572052,9.788400575513542,0.23604696106212475,0.4121932536977006,45.530734469272964
31/01/2020, 11:42:44,-0.91010743,4.061953,8.859178,-0.23579389,-0.00488692,0.00977384,-0.07319534,-0.46378064,0.0463562,13.641159,-43.293335,-3.5572052,9.788400575513542,0.23604696106212475,0.4718039194521382,45.530734469272964
31/01/2020, 11:42:44,-0.81909674,4.3373804,8.899893,-0.23579389,-0.00488692,0.00977384,-0.07319534,-0.46378064,0.0463562,13.641159,-43.293335,-3.5572052,9.934378705626626,0.23604696106212475,0.4718039194521382,45.530734469272964
31/01/2020, 11:42:44,-0.6394702,4.4571314,8.943004,-0.23579389,-0.00488692,0.00977384,-0.07319534,-0.46378064,0.0463562,13.641159,-43.293335,-3.5572052,10.012604891641596,0.23604696106212475,0.4718039194521382,45.530734469272964
31/01/2020, 11:42:44,-0.6394702,4.4571314,8.943004,-0.23579389,-0.00488692,0.00977384,-0.07319534,-0.46378064,0.0463562,13.732285,-43.296677,-3.8990936,10.012604891641596,0.23604696106212475,0.4718039194521382,45.58926164864821
31/01/2020, 11:42:44,-0.6394702,4.4571314,8.943004,-0.014660761,-0.07941245,0.06230823,-0.07319534,-0.46378064,0.0463562,13.732285,-43.296677,-3.8990936,10.012604891641596,0.1019979952848016,0.4718039194521382,45.58926164864821
31/01/2020, 11:42:44,-0.43349856,4.4595265,8.981323,-0.014660761,-0.07941245,0.06230823,-0.07319534,-0.46378064,0.0463562,13.732285,-43.296677,-3.8990936,10.036905157172471,0.1019979952848016,0.4718039194521382,45.58926164864821
31/01/2020, 11:42:44,-0.23710695,4.394861,9.022039,-0.014660761,-0.07941245,0.06230823,-0.07319534,-0.46378064,0.0463562,13.732285,-43.296677,-3.8990936,10.038337513642196,0.1019979952848016,0.4718039194521382,45.58926164864821
31/01/2020, 11:42:45,-0.25866213,3.9877076,9.158555,0.067195155,-0.14294241,0.030543251,0.1606448,-0.58996487,0.12129021,12.691254,-42.844498,-5.5417023,9.992389522747134,0.16087452448719367,0.6233591338518492,45.026984854411296
31/01/2020, 11:42:45,-0.23471193,3.67875,9.105865,0.067195155,-0.14294241,0.030543251,0.1606448,-0.58996487,0.12129021,12.691254,-42.844498,-5.5417023,9.823698910190968,0.16087452448719367,0.6233591338518492,45.026984854411296
31/01/2020, 11:42:45,-0.23471193,3.67875,9.105865,0.067195155,-0.14294241,0.030543251,0.1606448,-0.58996487,0.12129021,12.897507,-43.06726,-6.119919,9.823698910190968,0.16087452448719367,0.6233591338518492,45.37166553778788
31/01/2020, 11:42:45,-0.23471193,3.67875,9.105865,0.067195155,-0.14294241,0.030543251,0.030361712,-0.18574333,-0.15080738,12.897507,-43.06726,-6.119919,9.823698910190968,0.16087452448719367,0.24117480168842556,45.37166553778788
31/01/2020, 11:42:45,-0.23471193,3.67875,9.105865,0.067195155,-0.14294241,0.030543251,0.010581672,-0.20010376,-0.14528656,12.897507,-43.06726,-6.119919,9.823698910190968,0.16087452448719367,0.24751095125745293,45.37166553778788
31/01/2020, 11:42:45,-0.23471193,3.67875,9.105865,0.067195155,-0.14294241,0.030543251,0.010581672,-0.20010376,-0.14528656,12.897507,-43.06726,-6.119919,9.823698910190968,0.16087452448719367,0.24751095125745293,45.37166553778788
31/01/2020, 11:42:45,-0.23471193,3.67875,9.105865,0.067195155,-0.14294241,0.030543251,0.010581672,-0.20010376,-0.14528656,12.897507,-43.06726,-6.119919,9.823698910190968,0.16087452448719367,0.24751095125745293,45.37166553778788
31/01/2020, 11:42:45,-0.23471193,3.67875,9.105865,0.067195155,-0.14294241,0.030543251,-0.001029402,-0.1911254,-0.15012836,12.897507,-43.06726,-6.119919,9.823698910190968,0.16087452448719367,0.2430401228837181,45.37166553778788
31/01/2020, 11:42:45,-0.3065625,3.6859353,9.002879,0.067195155,-0.14294241,0.030543251,-0.001029402,-0.1911254,-0.15012836,12.897507,-43.06726,-6.119919,9.733033040432883,0.16087452448719367,0.2430401228837181,45.37166553778788
31/01/2020, 11:42:45,-0.34727785,3.8607717,8.990904,0.067195155,-0.14294241,0.030543251,-0.001029402,-0.1911254,-0.15012836,12.897507,-43.06726,-6.119919,9.790940292107866,0.16087452448719367,0.2430401228837181,45.37166553778788
31/01/2020, 11:42:45,-0.34727785,3.8607717,8.990904,0.067195155,-0.14294241,0.030543251,-0.001029402,-0.1911254,-0.15012836,12.528442,-43.164627,-5.681244,9.790940292107866,0.16087452448719367,0.2430401228837181,45.303680107596975
31/01/2020, 11:42:45,-0.34727785,3.8607717,8.990904,-0.09407321,-0.15027279,0.08307764,-0.001029402,-0.1911254,-0.15012836,12.528442,-43.164627,-5.681244,9.790940292107866,0.19578961688563465,0.2430401228837181,45.303680107596975
31/01/2020, 11:42:45,-0.34727785,3.8607717,8.990904,-0.09407321,-0.15027279,0.08307764,0.24025509,-0.4301293,0.21529102,12.528442,-43.164627,-5.681244,9.790940292107866,0.19578961688563465,0.5376652653960975,45.303680107596975
31/01/2020, 11:42:45,-0.3903882,3.9637575,8.950189,-0.09407321,-0.15027279,0.08307764,0.24025509,-0.4301293,0.21529102,12.528442,-43.164627,-5.681244,9.796410220625074,0.19578961688563465,0.5376652653960975,45.303680107596975
31/01/2020, 11:42:45,-0.30895755,4.152964,8.990904,-0.09407321,-0.15027279,0.08307764,0.24025509,-0.4301293,0.21529102,12.528442,-43.164627,-5.681244,9.908527530668138,0.19578961688563465,0.5376652653960975,45.303680107596975
31/01/2020, 11:42:45,-0.30895755,4.152964,8.990904,-0.09407321,-0.15027279,0.08307764,0.24025509,-0.4301293,0.21529102,12.791473,-42.95636,-6.0040283,9.908527530668138,0.19578961688563465,0.5376652653960975,45.22078062382311
31/01/2020, 11:42:45,-0.30895755,4.152964,8.990904,-0.09407321,-0.15027279,0.08307764,0.10043517,-0.23264909,0.09180355,12.791473,-42.95636,-6.0040283,9.908527530668138,0.19578961688563465,0.2695194110064882,45.22078062382311
31/01/2020, 11:42:45,-0.098195806,4.1888895,9.14179,-0.09407321,-0.15027279,0.08307764,0.10043517,-0.23264909,0.09180355,12.791473,-42.95636,-6.0040283,10.056280088763705,0.19578961688563465,0.2695194110064882,45.22078062382311
31/01/2020, 11:42:45,0.1939966,4.040398,9.302257,-0.09407321,-0.15027279,0.08307764,0.10043517,-0.23264909,0.09180355,12.791473,-42.95636,-6.0040283,10.143689132220718,0.19578961688563465,0.2695194110064882,45.22078062382311
31/01/2020, 11:42:45,0.1939966,4.040398,9.302257,-0.09407321,-0.15027279,0.08307764,0.10043517,-0.23264909,0.09180355,12.328659,-43.160812,-6.03685,10.143689132220718,0.19578961688563465,0.2695194110064882,45.291225606176155
31/01/2020, 11:42:46,-0.99393314,0.4047583,10.3393,-0.72326416,0.04520401,0.01954768,0.25979123,-0.3343352,0.7660141,7.509323,-39.179474,-17.067581,10.394847766205855,0.7249390017332258,0.8752423161663846,43.39036107504058
31/01/2020, 11:42:46,-0.9987232,1.0226734,10.538086,-0.72326416,0.04520401,0.01954768,0.25979123,-0.3343352,0.7660141,7.509323,-39.179474,-17.067581,10.634592803332167,0.7249390017332258,0.8752423161663846,43.39036107504058
31/01/2020, 11:42:46,-0.9987232,1.0226734,10.538086,-0.72326416,0.04520401,0.01954768,1.1289934,-0.9233371,0.7941847,7.509323,-39.179474,-17.067581,10.634592803332167,0.7249390017332258,1.660694672860627,43.39036107504058
31/01/2020, 11:42:46,-0.9987232,1.0226734,10.538086,-0.72326416,0.04520401,0.01954768,1.1289934,-0.9233371,0.7941847,7.329376,-39.407303,-17.618668,10.634592803332167,0.7249390017332258,1.660694672860627,43.78438902500491
31/01/2020, 11:42:46,-0.77359134,1.4226416,10.626702,-0.72326416,0.04520401,0.01954768,1.1289934,-0.9233371,0.7941847,7.329376,-39.407303,-17.618668,10.749379272261383,0.7249390017332258,1.660694672860627,43.78438902500491
31/01/2020, 11:42:46,-0.62031007,1.2813355,10.459051,-0.72326416,0.04520401,0.01954768,1.1289934,-0.9233371,0.7941847,7.329376,-39.407303,-17.618668,10.555489366257092,0.7249390017332258,1.660694672860627,43.78438902500491
31/01/2020, 11:42:46,-0.62031007,1.2813355,10.459051,-0.72326416,0.04520401,0.01954768,0.66134596,-1.5366766,0.5144949,7.329376,-39.407303,-17.618668,10.555489366257092,0.7249390017332258,1.7502738606259907,43.78438902500491
31/01/2020, 11:42:46,-0.62031007,1.2813355,10.459051,-0.72326416,0.04520401,0.01954768,0.66134596,-1.5366766,0.5144949,7.1469574,-39.364487,-17.601807,10.555489366257092,0.7249390017332258,1.7502738606259907,43.70887106484933
31/01/2020, 11:42:46,-0.62031007,1.2813355,10.459051,-0.37629285,-0.04276055,0.1624901,0.66134596,-1.5366766,0.5144949,7.1469574,-39.364487,-17.601807,10.555489366257092,0.4121016981201854,1.7502738606259907,43.70887106484933
31/01/2020, 11:42:46,-0.24908204,0.79993653,10.459051,-0.37629285,-0.04276055,0.1624901,0.66134596,-1.5366766,0.5144949,7.1469574,-39.364487,-17.601807,10.49255406978363,0.4121016981201854,1.7502738606259907,43.70887106484933
31/01/2020, 11:42:46,-0.038320314,0.34009278,10.41115,-0.37629285,-0.04276055,0.1624901,0.66134596,-1.5366766,0.5144949,7.1469574,-39.364487,-17.601807,10.416773753036551,0.4121016981201854,1.7502738606259907,43.70887106484933
31/01/2020, 11:42:46,-0.038320314,0.34009278,10.41115,-0.37629285,-0.04276055,0.1624901,-0.30043662,-0.8842828,0.6432028,7.1469574,-39.364487,-17.601807,10.416773753036551,0.4121016981201854,1.133987697178237,43.70887106484933
31/01/2020, 11:42:46,-0.038320314,0.34009278,10.41115,-0.37629285,-0.04276055,0.1624901,-0.30043662,-0.8842828,0.6432028,6.973297,-38.83757,-18.185272,10.416773753036551,0.4121016981201854,1.133987697178237,43.44752992527161
31/01/2020, 11:42:46,0.083825685,0.13172609,10.27224,-0.37629285,-0.04276055,0.1624901,-0.30043662,-0.8842828,0.6432028,6.973297,-38.83757,-18.185272,10.273426237363177,0.4121016981201854,1.133987697178237,43.44752992527161
31/01/2020, 11:42:46,0.19878663,0.12454102,10.193204,-0.37629285,-0.04276055,0.1624901,-0.30043662,-0.8842828,0.6432028,6.973297,-38.83757,-18.185272,10.195902749127706,0.4121016981201854,1.133987697178237,43.44752992527161
31/01/2020, 11:42:46,0.19878663,0.12454102,10.193204,-0.37629285,-0.04276055,0.1624901,-0.30520242,-0.19560707,0.83268356,6.973297,-38.83757,-18.185272,10.195902749127706,0.4121016981201854,0.9081698964090835,43.44752992527161
31/01/2020, 11:42:46,0.19878663,0.12454102,10.193204,-0.37629285,-0.04276055,0.1624901,0.06654793,0.12798965,0.745286,6.973297,-38.83757,-18.185272,10.195902749127706,0.4121016981201854,0.7591186871364414,43.44752992527161
31/01/2020, 11:42:46,0.19878663,0.12454102,10.193204,-0.37629285,-0.04276055,0.1624901,0.06654793,0.12798965,0.745286,7.2656097,-38.821136,-18.279846,10.195902749127706,0.4121016981201854,0.7591186871364414,43.52036878144871
31/01/2020, 11:42:46,0.19878663,0.12454102,10.193204,-0.37629285,-0.04276055,0.1624901,0.06654793,0.12798965,0.745286,7.1244507,-38.465836,-18.166428,10.195902749127706,0.4121016981201854,0.7591186871364414,43.132324258420304
31/01/2020, 11:42:46,0.3065625,0.23231691,10.063872,-0.37629285,-0.04276055,0.1624901,0.06654793,0.12798965,0.745286,7.1244507,-38.465836,-18.166428,10.07122029070901,0.4121016981201854,0.7591186871364414,43.132324258420304
31/01/2020, 11:42:47,-0.033530276,0.6011499,9.7621,0.53878295,0.23335044,-0.02687806,0.8196595,-0.40508723,0.21321774,6.2732086,-36.95877,-19.555511,9.780649579741572,0.587760095748344,0.9388285881292127,42.281460605045474
31/01/2020, 11:42:47,-0.033530276,0.6011499,9.7621,0.53878295,0.23335044,-0.02687806,0.8196595,-0.40508723,0.21321774,6.581787,-36.49968,-19.83525,9.780649579741572,0.587760095748344,0.9388285881292127,42.05928799198595
31/01/2020, 11:42:47,-0.033530276,0.6011499,9.7621,0.53878295,0.23335044,-0.02687806,1.0958135,-0.36402154,0.18187618,6.581787,-36.49968,-19.83525,9.780649579741572,0.587760095748344,1.168930229730514,42.05928799198595
31/01/2020, 11:42:47,-0.43110353,0.63707525,9.659114,0.53878295,0.23335044,-0.02687806,1.0958135,-0.36402154,0.18187618,6.581787,-36.49968,-19.83525,9.689695358641723,0.587760095748344,1.168930229730514,42.05928799198595
31/01/2020, 11:42:47,-0.8813672,0.73527104,9.687855,0.53878295,0.23335044,-0.02687806,1.0958135,-0.36402154,0.18187618,6.581787,-36.49968,-19.83525,9.755611802117674,0.587760095748344,1.168930229730514,42.05928799198595
31/01/2020, 11:42:47,-0.8813672,0.73527104,9.687855,0.53878295,0.23335044,-0.02687806,1.0958135,-0.36402154,0.18187618,6.744873,-36.85324,-19.044281,9.755611802117674,0.587760095748344,1.168930229730514,42.02783983510683
31/01/2020, 11:42:47,-0.8813672,0.73527104,9.687855,0.53878295,0.23335044,-0.02687806,0.7628782,-0.5631912,-0.02291298,6.744873,-36.85324,-19.044281,9.755611802117674,0.587760095748344,0.9485211761279477,42.02783983510683
31/01/2020, 11:42:47,-1.104104,0.97237796,9.718989,0.53878295,0.23335044,-0.02687806,0.7628782,-0.5631912,-0.02291298,6.744873,-36.85324,-19.044281,9.82971612218785,0.587760095748344,0.9485211761279477,42.02783983510683
31/01/2020, 11:42:47,-0.728086,1.1472144,9.72857,0.53878295,0.23335044,-0.02687806,0.7628782,-0.5631912,-0.02291298,6.744873,-36.85324,-19.044281,9.82299771283999,0.587760095748344,0.9485211761279477,42.02783983510683
31/01/2020, 11:42:47,-0.728086,1.1472144,9.72857,0.53878295,0.23335044,-0.02687806,0.7628782,-0.5631912,-0.02291298,6.702606,-36.99469,-18.227158,9.82299771283999,0.587760095748344,0.9485211761279477,41.78230830938581
31/01/2020, 11:42:47,-0.728086,1.1472144,9.72857,0.6621777,0.24312428,0.10384705,0.7628782,-0.5631912,-0.02291298,6.702606,-36.99469,-18.227158,9.82299771283999,0.7130027390090052,0.9485211761279477,41.78230830938581
31/01/2020, 11:42:47,-0.08861572,1.3028907,9.7740755,0.6621777,0.24312428,0.10384705,0.7628782,-0.5631912,-0.02291298,6.702606,-36.99469,-18.227158,9.860929411187909,0.7130027390090052,0.9485211761279477,41.78230830938581
31/01/2020, 11:42:47,0.4023633,1.3028907,9.848321,0.6621777,0.24312428,0.10384705,0.7628782,-0.5631912,-0.02291298,6.702606,-36.99469,-18.227158,9.942275697443748,0.7130027390090052,0.9485211761279477,41.78230830938581
31/01/2020, 11:42:47,0.4023633,1.3028907,9.848321,0.6621777,0.24312428,0.10384705,0.04369685,-0.5917796,-0.05755806,6.702606,-36.99469,-18.227158,9.942275697443748,0.7130027390090052,0.5961756685008248,41.78230830938581
31/01/2020, 11:42:47,0.4023633,1.3028907,9.848321,0.6621777,0.24312428,0.10384705,0.04369685,-0.5917796,-0.05755806,6.7882996,-37.270615,-18.365662,9.942275697443748,0.7130027390090052,0.5961756685008248,42.1007987116243
31/01/2020, 11:42:47,0.48618898,1.2430152,9.817185,0.6621777,0.24312428,0.10384705,0.04369685,-0.5917796,-0.05755806,6.7882996,-37.270615,-18.365662,9.907501988441956,0.7130027390090052,0.5961756685008248,42.1007987116243
31/01/2020, 11:42:47,-0.045505375,1.0298585,9.711804,0.6621777,0.24312428,0.10384705,0.04369685,-0.5917796,-0.05755806,6.7882996,-37.270615,-18.365662,9.766361846460576,0.7130027390090052,0.5961756685008248,42.1007987116243
31/01/2020, 11:42:47,-0.045505375,1.0298585,9.711804,0.6621777,0.24312428,0.10384705,-0.56941026,-0.37931746,0.021681786,6.7882996,-37.270615,-18.365662,9.766361846460576,0.7130027390090052,0.6845289522366201,42.1007987116243
31/01/2020, 11:42:47,-0.045505375,1.0298585,9.711804,0.6621777,0.24312428,0.10384705,-0.56941026,-0.37931746,0.021681786,6.9210052,-37.77292,-17.138,9.766361846460576,0.7130027390090052,0.6845289522366201,42.052404944291574
31/01/2020, 11:42:47,-0.045505375,1.0298585,9.711804,0.6621777,0.24312428,0.10384705,0.471664,-0.18281305,0.09781647,6.9210052,-37.77292,-17.138,9.766361846460576,0.7130027390090052,0.5152238461559612,42.052404944291574
31/01/2020, 11:42:48,-0.8885523,0.5484595,9.996812,0.018325951,0.34819305,-0.29810214,1.9296788,-0.7649698,0.34161377,14.506897,-44.170685,2.1239471,10.051197963134973,0.458736445333407,2.1036965237910175,46.540419080855266
31/01/2020, 11:42:48,-0.62989014,0.47900394,10.051897,0.018325951,0.34819305,-0.29810214,1.9296788,-0.7649698,0.34161377,14.506897,-44.170685,2.1239471,10.082997602240788,0.458736445333407,2.1036965237910175,46.540419080855266
31/01/2020, 11:42:48,-0.62989014,0.47900394,10.051897,0.018325951,0.34819305,-0.29810214,1.5691742,-0.5183524,0.19882584,14.506897,-44.170685,2.1239471,10.082997602240788,0.458736445333407,1.6644904595728598,46.540419080855266
31/01/2020, 11:42:48,-0.62989014,0.47900394,10.051897,0.018325951,0.34819305,-0.29810214,1.5691742,-0.5183524,0.19882584,12.3081665,-43.924957,-0.74005127,10.082997602240788,0.458736445333407,1.6644904595728598,45.62280690854418
31/01/2020, 11:42:48,-0.60833496,0.6322852,10.197993,0.018325951,0.34819305,-0.29810214,1.5691742,-0.5183524,0.19882584,12.3081665,-43.924957,-0.74005127,10.23566914647732,0.458736445333407,1.6644904595728598,45.62280690854418
31/01/2020, 11:42:48,-1.0178833,0.8047266,10.159674,0.018325951,0.34819305,-0.29810214,1.5691742,-0.5183524,0.19882584,12.3081665,-43.924957,-0.74005127,10.242199022634178,0.458736445333407,1.6644904595728598,45.62280690854418
31/01/2020, 11:42:48,-1.0178833,0.8047266,10.159674,0.018325951,0.34819305,-0.29810214,0.7637988,-0.6638052,0.25950527,12.3081665,-43.924957,-0.74005127,10.242199022634178,0.458736445333407,1.044686018946126,45.62280690854418
31/01/2020, 11:42:48,-1.0178833,0.8047266,10.159674,0.018325951,0.34819305,-0.29810214,0.7637988,-0.6638052,0.25950527,11.161331,-40.77664,0.43437195,10.242199022634178,0.458736445333407,1.044686018946126,42.278818725686186
31/01/2020, 11:42:48,-1.6118482,0.95561284,10.0063925,0.018325951,0.34819305,-0.29810214,0.7637988,-0.6638052,0.25950527,11.161331,-40.77664,0.43437195,10.18033108854522,0.458736445333407,1.044686018946126,42.278818725686186
31/01/2020, 11:42:48,-2.2249732,0.96758795,9.663904,0.018325951,0.34819305,-0.29810214,0.7637988,-0.6638052,0.25950527,11.161331,-40.77664,0.43437195,9.96382338161689,0.458736445333407,1.044686018946126,42.278818725686186
31/01/2020, 11:42:48,-2.2249732,0.96758795,9.663904,0.018325951,0.34819305,-0.29810214,1.1478777,-0.8628211,0.50246525,11.161331,-40.77664,0.43437195,9.96382338161689,0.458736445333407,1.521366089522811,42.278818725686186
31/01/2020, 11:42:48,-2.2249732,0.96758795,9.663904,0.018325951,0.34819305,-0.29810214,1.1478777,-0.8628211,0.50246525,8.987198,-39.337097,-2.8244019,9.96382338161689,0.458736445333407,1.521366089522811,40.44940277810475
31/01/2020, 11:42:48,-2.2249732,0.96758795,9.663904,0.29810214,0.2797762,-0.087964565,1.1478777,-0.8628211,0.50246525,8.987198,-39.337097,-2.8244019,9.96382338161689,0.4181834105495493,1.521366089522811,40.44940277810475
31/01/2020, 11:42:48,-2.4644752,1.0059083,9.599238,0.29810214,0.2797762,-0.087964565,1.1478777,-0.8628211,0.50246525,8.987198,-39.337097,-2.8244019,9.96146911732182,0.4181834105495493,1.521366089522811,40.44940277810475
31/01/2020, 11:42:48,-2.2058132,1.1687696,9.584868,0.29810214,0.2797762,-0.087964565,1.1478777,-0.8628211,0.50246525,8.987198,-39.337097,-2.8244019,9.904611903209803,0.4181834105495493,1.521366089522811,40.44940277810475
31/01/2020, 11:42:48,-2.2058132,1.1687696,9.584868,0.29810214,0.2797762,-0.087964565,0.7947184,-0.56812245,0.6210785,8.987198,-39.337097,-2.8244019,9.904611903209803,0.4181834105495493,1.1576177769679272,40.44940277810475
31/01/2020, 11:42:48,-2.2058132,1.1687696,9.584868,0.29810214,0.2797762,-0.087964565,0.7947184,-0.56812245,0.6210785,11.137802,-43.37677,-2.2749634,9.904611903209803,0.4181834105495493,1.1576177769679272,44.841613171880546
31/01/2020, 11:42:48,-1.6381935,1.2957057,9.625584,0.29810214,0.2797762,-0.087964565,0.7947184,-0.56812245,0.6210785,11.137802,-43.37677,-2.2749634,9.849588401619243,0.4181834105495493,1.1576177769679272,44.841613171880546
31/01/2020, 11:42:48,-1.22625,1.2885206,9.565708,0.29810214,0.2797762,-0.087964565,0.7947184,-0.56812245,0.6210785,11.137802,-43.37677,-2.2749634,9.729683811521257,0.4181834105495493,1.1576177769679272,44.841613171880546
31/01/2020, 11:42:48,-1.22625,1.2885206,9.565708,0.29810214,0.2797762,-0.087964565,-0.34991646,-0.4500777,0.14409542,11.137802,-43.37677,-2.2749634,9.729683811521257,0.4181834105495493,0.5880263304461635,44.841613171880546
31/01/2020, 11:42:49,6.373147,-1.4992822,14.513819,-3.837454,-1.1838564,2.262644,1.2985063,-4.5522046,4.1371417,21.283112,-36.188705,-11.107407,15.92217901234585,4.6094606874469735,6.286861442094788,43.42772987012173
31/01/2020, 11:42:49,5.949229,-2.684817,15.828685,-3.837454,-1.1838564,2.262644,1.2985063,-4.5522046,4.1371417,21.283112,-36.188705,-11.107407,17.121589538512826,4.6094606874469735,6.286861442094788,43.42772987012173
31/01/2020, 11:42:49,4.773274,-3.171006,17.184265,-3.837454,-1.1838564,2.262644,1.2985063,-4.5522046,4.1371417,21.283112,-36.188705,-11.107407,18.114590563056364,4.6094606874469735,6.286861442094788,43.42772987012173
31/01/2020, 11:42:49,4.773274,-3.171006,17.184265,-3.837454,-1.1838564,2.262644,1.2985063,-4.5522046,4.1371417,20.292694,-36.399185,-13.289673,18.114590563056364,4.6094606874469735,6.286861442094788,43.74139366573817
31/01/2020, 11:42:49,3.1949563,-2.7279274,18.34585,-3.837454,-1.1838564,2.262644,1.2985063,-4.5522046,4.1371417,20.292694,-36.399185,-13.289673,18.82072118211754,4.6094606874469735,6.286861442094788,43.74139366573817
31/01/2020, 11:42:49,2.0285816,-2.2561085,18.573378,-3.837454,-1.1838564,2.262644,1.2985063,-4.5522046,4.1371417,20.292694,-36.399185,-13.289673,18.819551664872968,4.6094606874469735,6.286861442094788,43.74139366573817
31/01/2020, 11:42:49,2.0285816,-2.2561085,18.573378,-3.837454,-1.1838564,2.262644,1.6717548,-4.3553524,5.9808807,20.292694,-36.399185,-13.289673,18.819551664872968,4.6094606874469735,7.585169290945381,43.74139366573817
31/01/2020, 11:42:49,2.0285816,-2.2561085,18.573378,-3.837454,-1.1838564,2.262644,1.6717548,-4.3553524,5.9808807,17.979187,-35.275925,-14.2435,18.819551664872968,4.6094606874469735,7.585169290945381,42.0775392948685
31/01/2020, 11:42:49,1.6549586,-1.5735279,19.066751,-3.837454,-1.1838564,2.262644,1.6717548,-4.3553524,5.9808807,17.979187,-35.275925,-14.2435,19.203017735348322,4.6094606874469735,7.585169290945381,42.0775392948685
31/01/2020, 11:42:49,2.0381618,-0.76401126,18.28358,-3.837454,-1.1838564,2.262644,1.6717548,-4.3553524,5.9808807,17.979187,-35.275925,-14.2435,18.41268971902502,4.6094606874469735,7.585169290945381,42.0775392948685
31/01/2020, 11:42:49,2.0381618,-0.76401126,18.28358,-3.837454,-1.1838564,2.262644,0.5285573,-5.242028,8.064169,17.979187,-35.275925,-14.2435,18.41268971902502,4.6094606874469735,9.63270747939167,42.0775392948685
31/01/2020, 11:42:49,2.0381618,-0.76401126,18.28358,-3.837454,-1.1838564,2.262644,0.5285573,-5.242028,8.064169,16.447037,-35.700027,-16.448654,18.41268971902502,4.6094606874469735,9.63270747939167,42.609332344612405
31/01/2020, 11:42:49,2.5099807,-0.94603276,17.251326,-3.837454,-1.1838564,2.262644,0.5285573,-5.242028,8.064169,16.447037,-35.700027,-16.448654,17.458614383838988,4.6094606874469735,9.63270747939167,42.609332344612405
31/01/2020, 11:42:49,2.459685,-1.6717237,16.192728,-3.837454,-1.1838564,2.262644,0.5285573,-5.242028,8.064169,16.447037,-35.700027,-16.448654,16.463570463217184,4.6094606874469735,9.63270747939167,42.609332344612405
31/01/2020, 11:42:49,2.459685,-1.6717237,16.192728,-3.837454,-1.1838564,2.262644,-2.296151,-4.401208,10.391554,16.447037,-35.700027,-16.448654,16.463570463217184,4.6094606874469735,11.516394065207258,42.609332344612405
31/01/2020, 11:42:49,2.459685,-1.6717237,16.192728,-3.837454,-1.1838564,2.262644,-2.296151,-4.401208,10.391554,14.839813,-35.407944,-18.868652,16.463570463217184,4.6094606874469735,11.516394065207258,42.77813199424124
31/01/2020, 11:42:49,2.459685,-1.6717237,16.192728,-2.7488925,0.6914992,2.0610585,-2.296151,-4.401208,10.391554,14.839813,-35.407944,-18.868652,16.463570463217184,3.504645996824027,11.516394065207258,42.77813199424124
31/01/2020, 11:42:49,1.7483643,-2.1004322,15.581998,-2.7488925,0.6914992,2.0610585,-2.296151,-4.401208,10.391554,14.839813,-35.407944,-18.868652,15.819837253926215,3.504645996824027,11.516394065207258,42.77813199424124
31/01/2020, 11:42:49,0.9627979,-1.7339942,15.086228,-2.7488925,0.6914992,2.0610585,-2.296151,-4.401208,10.391554,14.839813,-35.407944,-18.868652,15.216044238023768,3.504645996824027,11.516394065207258,42.77813199424124
31/01/2020, 11:42:49,0.9627979,-1.7339942,15.086228,-2.7488925,0.6914992,2.0610585,-3.7946227,-2.4803035,10.960795,14.839813,-35.407944,-18.868652,15.216044238023768,3.504645996824027,11.861285873215841,42.77813199424124
31/01/2020, 11:42:50,-1.1591895,1.0490186,10.28661,2.0268502,-0.31031942,-0.8063418,-1.3960946,-0.35712644,1.2447901,-6.2126617,-38.073517,-31.004456,10.404734420585902,2.2033172978972835,1.9042378149637218,49.4920813454463
31/01/2020, 11:42:50,-0.46942386,1.2957057,10.516531,2.0268502,-0.31031942,-0.8063418,-1.3960946,-0.35712644,1.2447901,-6.2126617,-38.073517,-31.004456,10.606443137825003,2.2033172978972835,1.9042378149637218,49.4920813454463
31/01/2020, 11:42:50,-0.28261232,1.2382251,10.732083,2.0268502,-0.31031942,-0.8063418,-1.3960946,-0.35712644,1.2447901,-6.2126617,-38.073517,-31.004456,10.806973837781609,2.2033172978972835,1.9042378149637218,49.4920813454463
31/01/2020, 11:42:50,-0.28261232,1.2382251,10.732083,2.0268502,-0.31031942,-0.8063418,-0.21889162,0.49488637,0.6561203,-6.2126617,-38.073517,-31.004456,10.806973837781609,2.2033172978972835,0.8504821619418452,49.4920813454463
31/01/2020, 11:42:50,-0.28261232,1.2382251,10.732083,2.0268502,-0.31031942,-0.8063418,-0.21889162,0.49488637,0.6561203,-5.62204,-38.564835,-29.592926,10.806973837781609,2.2033172978972835,0.8504821619418452,48.934599921921766
31/01/2020, 11:42:50,-0.45744875,1.3052857,10.6817875,2.0268502,-0.31031942,-0.8063418,-0.21889162,0.49488637,0.6561203,-5.62204,-38.564835,-29.592926,10.770961614332139,2.2033172978972835,0.8504821619418452,48.934599921921766
31/01/2020, 11:42:50,-0.9867481,1.4920973,10.3440895,2.0268502,-0.31031942,-0.8063418,-0.21889162,0.49488637,0.6561203,-5.62204,-38.564835,-29.592926,10.4976289604481,2.2033172978972835,0.8504821619418452,48.934599921921766
31/01/2020, 11:42:50,-0.9867481,1.4920973,10.3440895,2.0268502,-0.31031942,-0.8063418,1.6226217,0.35056156,0.90954494,-5.62204,-38.564835,-29.592926,10.4976289604481,2.2033172978972835,1.8928989540159005,48.934599921921766
31/01/2020, 11:42:50,-0.9867481,1.4920973,10.3440895,2.0268502,-0.31031942,-0.8063418,1.6226217,0.35056156,0.90954494,-4.764847,-39.08383,-28.66594,10.4976289604481,2.2033172978972835,1.8928989540159005,48.70303635235683
31/01/2020, 11:42:50,-1.4322218,1.6549586,10.341695,2.0268502,-0.31031942,-0.8063418,1.6226217,0.35056156,0.90954494,-4.764847,-39.08383,-28.66594,10.570752063176835,2.2033172978972835,1.8928989540159005,48.70303635235683
31/01/2020, 11:42:50,-1.9806812,1.4322218,9.912986,2.0268502,-0.31031942,-0.8063418,1.6226217,0.35056156,0.90954494,-4.764847,-39.08383,-28.66594,10.209879756613685,2.2033172978972835,1.8928989540159005,48.70303635235683
31/01/2020, 11:42:50,-1.9806812,1.4322218,9.912986,2.0268502,-0.31031942,-0.8063418,2.3907993,0.21878505,1.3527527,-4.764847,-39.08383,-28.66594,10.209879756613685,2.2033172978972835,2.755671958264098,48.70303635235683
31/01/2020, 11:42:50,-1.9806812,1.4322218,9.912986,2.0268502,-0.31031942,-0.8063418,2.3907993,0.21878505,1.3527527,-4.2193604,-40.54138,-26.544098,10.209879756613685,2.2033172978972835,2.755671958264098,48.64150261134151
31/01/2020, 11:42:50,-2.8357031,1.4465919,9.347761,2.0268502,-0.31031942,-0.8063418,2.3907993,0.21878505,1.3527527,-4.2193604,-40.54138,-26.544098,9.874941967174102,2.2033172978972835,2.755671958264098,48.64150261134151
31/01/2020, 11:42:50,-3.3817677,1.6741188,9.15616,2.0268502,-0.31031942,-0.8063418,2.3907993,0.21878505,1.3527527,-4.2193604,-40.54138,-26.544098,9.903246900197654,2.2033172978972835,2.755671958264098,48.64150261134151
31/01/2020, 11:42:50,-3.3817677,1.6741188,9.15616,2.0268502,-0.31031942,-0.8063418,1.6075581,0.24760473,0.9697857,-4.2193604,-40.54138,-26.544098,9.903246900197654,2.2033172978972835,1.8936830599580528,48.64150261134151
31/01/2020, 11:42:50,-3.3817677,1.6741188,9.15616,2.0268502,-0.31031942,-0.8063418,1.6075581,0.24760473,0.9697857,-3.968155,-41.627213,-25.477112,9.903246900197654,2.2033172978972835,1.8936830599580528,48.965848327442956
31/01/2020, 11:42:50,-3.3817677,1.6741188,9.15616,0.67195153,-0.23335044,-0.81000704,1.6075581,0.24760473,0.9697857,-3.968155,-41.627213,-25.477112,9.903246900197654,1.077999391480079,1.8936830599580528,48.965848327442956
31/01/2020, 11:42:50,-3.3817677,1.6741188,9.15616,0.67195153,-0.23335044,-0.81000704,0.5758116,0.05435586,0.5470457,-3.968155,-41.627213,-25.477112,9.903246900197654,1.077999391480079,0.7960983562011296,48.965848327442956
31/01/2020, 11:42:50,-3.4847536,1.7244141,9.417217,0.67195153,-0.23335044,-0.81000704,0.5758116,0.05435586,0.5470457,-3.968155,-41.627213,-25.477112,10.188282120055268,1.077999391480079,0.7960983562011296,48.965848327442956
31/01/2020, 11:42:51,2.4069948,-1.8058448,15.27783,-3.1239636,-0.04520401,2.348165,-1.2969174,-2.791364,7.9514127,7.3466644,-44.17604,-19.299866,15.571345245022453,3.9083335290931007,8.526351572692269,48.764545138854025
31/01/2020, 11:42:51,2.0453467,-1.0825489,14.394068,-3.1239636,-0.04520401,2.348165,-1.2969174,-2.791364,7.9514127,7.3466644,-44.17604,-19.299866,14.57890743863022,3.9083335290931007,8.526351572692269,48.764545138854025
31/01/2020, 11:42:51,2.0453467,-1.0825489,14.394068,-3.1239636,-0.04520401,2.348165,-3.0039866,-2.3842697,8.512596,7.3466644,-44.17604,-19.299866,14.57890743863022,3.9083335290931007,9.336646637038626,48.764545138854025
31/01/2020, 11:42:51,2.0453467,-1.0825489,14.394068,-3.1239636,-0.04520401,2.348165,-3.0039866,-2.3842697,8.512596,5.420456,-43.68959,-21.118576,14.57890743863022,3.9083335290931007,9.336646637038626,48.82781902702548
31/01/2020, 11:42:51,2.0453467,-1.0825489,14.394068,-2.4605644,1.3793331,2.1942272,-3.0039866,-2.3842697,8.512596,5.420456,-43.68959,-21.118576,14.57890743863022,3.5737333472128956,9.336646637038626,48.82781902702548
31/01/2020, 11:42:51,2.0453467,-1.0825489,14.394068,-2.4605644,1.3793331,2.1942272,-4.1596975,-3.8197157,10.102278,5.420456,-43.68959,-21.118576,14.57890743863022,3.5737333472128956,11.573647987502513,48.82781902702548
31/01/2020, 11:42:51,1.6501685,-0.5221143,13.457615,-2.4605644,1.3793331,2.1942272,-4.1596975,-3.8197157,10.102278,5.420456,-43.68959,-21.118576,13.56845821320389,3.5737333472128956,11.573647987502513,48.82781902702548
31/01/2020, 11:42:51,1.1999048,-0.1580713,13.752203,-2.4605644,1.3793331,2.1942272,-4.1596975,-3.8197157,10.102278,5.420456,-43.68959,-21.118576,13.805355666407026,3.5737333472128956,11.573647987502513,48.82781902702548
31/01/2020, 11:42:51,1.1999048,-0.1580713,13.752203,-2.4605644,1.3793331,2.1942272,-4.1596975,-3.8197157,10.102278,3.7736206,-42.275116,-24.548874,13.805355666407026,3.5737333472128956,11.573647987502513,49.03134560977671
31/01/2020, 11:42:51,1.1807446,-0.6322852,13.589341,-2.4605644,1.3793331,2.1942272,-4.1596975,-3.8197157,10.102278,3.7736206,-42.275116,-24.548874,13.655187136445738,3.5737333472128956,11.573647987502513,49.03134560977671
31/01/2020, 11:42:51,0.92926764,-0.9364527,12.959452,-2.4605644,1.3793331,2.1942272,-4.1596975,-3.8197157,10.102278,3.7736206,-42.275116,-24.548874,13.026429661186235,3.5737333472128956,11.573647987502513,49.03134560977671
31/01/2020, 11:42:51,0.92926764,-0.9364527,12.959452,-2.4605644,1.3793331,2.1942272,-3.8360784,-1.9737918,7.7157006,3.7736206,-42.275116,-24.548874,13.026429661186235,3.5737333472128956,8.839874880708576,49.03134560977671
31/01/2020, 11:42:51,0.92926764,-0.9364527,12.959452,-2.4605644,1.3793331,2.1942272,-3.8360784,-1.9737918,7.7157006,1.9956055,-40.626755,-27.00296,13.026429661186235,3.5737333472128956,8.839874880708576,48.822899375328234
31/01/2020, 11:42:51,1.5016773,-1.0346485,12.363091,-2.4605644,1.3793331,2.1942272,-3.8360784,-1.9737918,7.7157006,1.9956055,-40.626755,-27.00296,12.496862122148203,3.5737333472128956,8.839874880708576,48.822899375328234
31/01/2020, 11:42:51,1.4968873,-1.1855347,11.6876955,-2.4605644,1.3793331,2.1942272,-3.8360784,-1.9737918,7.7157006,1.9956055,-40.626755,-27.00296,11.842651325012197,3.5737333472128956,8.839874880708576,48.822899375328234
31/01/2020, 11:42:51,1.4968873,-1.1855347,11.6876955,-2.4605644,1.3793331,2.1942272,-4.283342,-0.10731438,5.6605806,1.9956055,-40.626755,-27.00296,11.842651325012197,3.5737333472128956,7.0993455474676965,48.822899375328234
31/01/2020, 11:42:51,1.4968873,-1.1855347,11.6876955,-2.4605644,1.3793331,2.1942272,-4.283342,-0.10731438,5.6605806,0.06263733,-39.115677,-30.882584,11.842651325012197,3.5737333472128956,7.0993455474676965,49.83747658278147
31/01/2020, 11:42:51,1.0633887,-1.3627661,10.423125,-2.4605644,1.3793331,2.1942272,-4.283342,-0.10731438,5.6605806,0.06263733,-39.115677,-30.882584,10.56548472343401,3.5737333472128956,7.0993455474676965,49.83747658278147
31/01/2020, 11:42:51,0.82388675,-2.3662794,9.271121,-2.4605644,1.3793331,2.1942272,-4.283342,-0.10731438,5.6605806,0.06263733,-39.115677,-30.882584,9.603736380641969,3.5737333472128956,7.0993455474676965,49.83747658278147
31/01/2020, 11:42:51,0.82388675,-2.3662794,9.271121,-2.4605644,1.3793331,2.1942272,-4.368783,0.33232862,5.5615044,0.06263733,-39.115677,-30.882584,9.603736380641969,3.5737333472128956,7.0800450547312845,49.83747658278147
31/01/2020, 11:42:52,-0.07424561,3.151846,9.019644,1.8423688,-0.0488692,-0.17348567,0.8709825,-0.6307081,-0.7507086,-4.1337585,-45.857178,-24.74733,9.55476944630773,1.85116407217674,1.3114749868484359,52.27235442698136
31/01/2020, 11:42:52,-1.1951149,3.5015187,8.528665,1.8423688,-0.0488692,-0.17348567,0.8709825,-0.6307081,-0.7507086,-4.1337585,-45.857178,-24.74733,9.296615113496195,1.85116407217674,1.3114749868484359,52.27235442698136
31/01/2020, 11:42:52,-1.1951149,3.5015187,8.528665,1.8423688,-0.0488692,-0.17348567,1.3528595,-0.8746046,-0.09627724,-4.1337585,-45.857178,-24.74733,9.296615113496195,1.85116407217674,1.6138250529091123,52.27235442698136
31/01/2020, 11:42:52,-1.1951149,3.5015187,8.528665,1.8423688,-0.0488692,-0.17348567,1.3528595,-0.8746046,-0.09627724,-3.5038605,-46.418823,-24.0083,9.296615113496195,1.85116407217674,1.6138250529091123,52.377310887550365
31/01/2020, 11:42:52,-1.1951149,3.5015187,8.528665,2.2015574,0.067195155,0.15271625,1.3528595,-0.8746046,-0.09627724,-3.5038605,-46.418823,-24.0083,9.296615113496195,2.2078705617837913,1.6138250529091123,52.377310887550365
31/01/2020, 11:42:52,-1.1951149,3.5015187,8.528665,2.2015574,0.067195155,0.15271625,2.289431,-0.3193152,0.16652012,-3.5038605,-46.418823,-24.0083,9.296615113496195,2.2078705617837913,2.3175819042840833,52.377310887550365
31/01/2020, 11:42:52,-2.6321266,3.68354,8.049661,2.2015574,0.067195155,0.15271625,2.289431,-0.3193152,0.16652012,-3.5038605,-46.418823,-24.0083,9.235453161410696,2.2078705617837913,2.3175819042840833,52.377310887550365
31/01/2020, 11:42:52,-3.5757644,3.6859353,8.238868,2.2015574,0.067195155,0.15271625,2.289431,-0.3193152,0.16652012,-3.5038605,-46.418823,-24.0083,9.7083032433565,2.2078705617837913,2.3175819042840833,52.377310887550365
31/01/2020, 11:42:52,-3.5757644,3.6859353,8.238868,2.2015574,0.067195155,0.15271625,2.289431,-0.3193152,0.16652012,-3.347412,-47.47461,-21.659683,9.7083032433565,2.2078705617837913,2.3175819042840833,52.28944043166044
31/01/2020, 11:42:52,-3.8200562,3.3937428,8.468789,2.2015574,0.067195155,0.15271625,2.289431,-0.3193152,0.16652012,-3.347412,-47.47461,-21.659683,9.890940723385247,2.2078705617837913,2.3175819042840833,52.28944043166044
31/01/2020, 11:42:52,-2.787803,3.3123121,8.851993,2.2015574,0.067195155,0.15271625,2.289431,-0.3193152,0.16652012,-3.347412,-47.47461,-21.659683,9.853985485070359,2.2078705617837913,2.3175819042840833,52.28944043166044
31/01/2020, 11:42:52,-2.787803,3.3123121,8.851993,2.2015574,0.067195155,0.15271625,0.6218054,0.2816186,-0.5529518,-3.347412,-47.47461,-21.659683,9.853985485070359,2.2078705617837913,0.8784684015036989,52.28944043166044
31/01/2020, 11:42:52,-2.787803,3.3123121,8.851993,2.2015574,0.067195155,0.15271625,0.6218054,0.2816186,-0.5529518,-3.9237366,-48.218582,-19.621628,9.853985485070359,2.2078705617837913,0.8784684015036989,52.20570516127228
31/01/2020, 11:42:52,-2.787803,3.3123121,8.851993,2.2015574,0.067195155,0.15271625,0.035833597,-0.036937475,-0.0825634,-3.9237366,-48.218582,-19.621628,9.853985485070359,2.2078705617837913,0.09728894503218781,52.20570516127228
31/01/2020, 11:42:52,-1.1999048,3.7027004,9.321417,2.2015574,0.067195155,0.15271625,0.035833597,-0.036937475,-0.0825634,-3.9237366,-48.218582,-19.621628,10.101414444919115,2.2078705617837913,0.09728894503218781,52.20570516127228
31/01/2020, 11:42:52,-0.13172609,4.2008643,9.402847,2.2015574,0.067195155,0.15271625,0.035833597,-0.036937475,-0.0825634,-3.9237366,-48.218582,-19.621628,10.299424737085172,2.2078705617837913,0.09728894503218781,52.20570516127228
31/01/2020, 11:42:52,-0.13172609,4.2008643,9.402847,2.2015574,0.067195155,0.15271625,0.035833597,-0.036937475,-0.0825634,-4.1199493,-48.88742,-17.319733,10.299424737085172,2.2078705617837913,0.09728894503218781,52.02813681483652
31/01/2020, 11:42:52,-0.0047900393,4.766089,9.508228,2.2015574,0.067195155,0.15271625,0.035833597,-0.036937475,-0.0825634,-4.1199493,-48.88742,-17.319733,10.635884184516822,2.2078705617837913,0.09728894503218781,52.02813681483652
31/01/2020, 11:42:52,-0.74724615,5.2115626,9.079519,2.2015574,0.067195155,0.15271625,0.035833597,-0.036937475,-0.0825634,-4.1199493,-48.88742,-17.319733,10.49554343966827,2.2078705617837913,0.09728894503218781,52.02813681483652
31/01/2020, 11:42:52,-0.74724615,5.2115626,9.079519,2.2015574,0.067195155,0.15271625,-0.013667583,0.016238928,0.043397903,-4.1199493,-48.88742,-17.319733,10.49554343966827,2.2078705617837913,0.04831028501690024,52.02813681483652
31/01/2020, 11:42:53,5.980364,-1.8968556,16.762743,-3.3731966,-0.94928426,2.9626954,3.3841984,-1.4632566,7.687108,14.148621,-48.13968,-16.695175,17.89839002886287,4.588808092506668,8.525582025953762,52.880440891907
31/01/2020, 11:42:53,5.951624,-1.3675562,16.880098,-3.3731966,-0.94928426,2.9626954,3.3841984,-1.4632566,7.687108,14.148621,-48.13968,-16.695175,17.9507592404928,4.588808092506668,8.525582025953762,52.880440891907
31/01/2020, 11:42:53,5.704937,-1.7172291,15.617923,-3.3731966,-0.94928426,2.9626954,3.3841984,-1.4632566,7.687108,14.148621,-48.13968,-16.695175,16.715702016059407,4.588808092506668,8.525582025953762,52.880440891907
31/01/2020, 11:42:53,5.704937,-1.7172291,15.617923,-3.3731966,-0.94928426,2.9626954,3.3841984,-1.4632566,7.687108,11.180923,-47.6727,-18.928665,16.715702016059407,4.588808092506668,8.525582025953762,52.49755843624716
31/01/2020, 11:42:53,4.5481424,-2.4501052,16.056211,-3.3731966,-0.94928426,2.9626954,3.3841984,-1.4632566,7.687108,11.180923,-47.6727,-18.928665,16.86684741898055,4.588808092506668,8.525582025953762,52.49755843624716
31/01/2020, 11:42:53,4.0859036,-2.1124072,16.975899,-3.3731966,-0.94928426,2.9626954,3.3841984,-1.4632566,7.687108,11.180923,-47.6727,-18.928665,17.588007588253873,4.588808092506668,8.525582025953762,52.49755843624716
31/01/2020, 11:42:53,4.0859036,-2.1124072,16.975899,-3.3731966,-0.94928426,2.9626954,2.3028796,-1.1534959,6.9137783,11.180923,-47.6727,-18.928665,17.588007588253873,4.588808092506668,7.377949415891015,52.49755843624716
31/01/2020, 11:42:53,4.0859036,-2.1124072,16.975899,-3.3731966,-0.94928426,2.9626954,2.3028796,-1.1534959,6.9137783,8.080902,-46.790543,-22.823502,17.588007588253873,4.588808092506668,7.377949415891015,52.6836604695551
31/01/2020, 11:42:53,4.0859036,-2.1124072,16.975899,-3.2803452,0.7293728,2.6951365,2.3028796,-1.1534959,6.9137783,8.080902,-46.790543,-22.823502,17.588007588253873,4.307715209818996,7.377949415891015,52.6836604695551
31/01/2020, 11:42:53,4.0859036,-2.1124072,16.975899,-3.2803452,0.7293728,2.6951365,2.6989784,-0.62016773,7.65489,8.080902,-46.790543,-22.823502,17.588007588253873,4.307715209818996,8.140419791811,52.6836604695551
31/01/2020, 11:42:53,2.2800586,-2.1722827,16.829803,-3.2803452,0.7293728,2.6951365,2.6989784,-0.62016773,7.65489,8.080902,-46.790543,-22.823502,17.12190889365874,4.307715209818996,8.140419791811,52.6836604695551
31/01/2020, 11:42:53,0.62989014,-1.9950514,16.070581,-3.2803452,0.7293728,2.6951365,2.6989784,-0.62016773,7.65489,8.080902,-46.790543,-22.823502,16.20618953715514,4.307715209818996,8.140419791811,52.6836604695551
31/01/2020, 11:42:53,0.62989014,-1.9950514,16.070581,-3.2803452,0.7293728,2.6951365,2.6989784,-0.62016773,7.65489,5.3138885,-46.188614,-25.524399,16.20618953715514,4.307715209818996,8.140419791811,53.038857444689306
31/01/2020, 11:42:53,0.62989014,-1.9950514,16.070581,-3.2803452,0.7293728,2.6951365,1.9029543,-1.0251302,6.7179594,5.3138885,-46.188614,-25.524399,16.20618953715514,4.307715209818996,7.057131542185737,53.038857444689306
31/01/2020, 11:42:53,0.23950197,-0.8933423,15.517332,-3.2803452,0.7293728,2.6951365,1.9029543,-1.0251302,6.7179594,5.3138885,-46.188614,-25.524399,15.54487106653591,4.307715209818996,7.057131542185737,53.038857444689306
31/01/2020, 11:42:53,0.8981324,-0.3065625,14.820381,-3.2803452,0.7293728,2.6951365,1.9029543,-1.0251302,6.7179594,5.3138885,-46.188614,-25.524399,14.850734669230679,4.307715209818996,7.057131542185737,53.038857444689306
31/01/2020, 11:42:53,0.8981324,-0.3065625,14.820381,-3.2803452,0.7293728,2.6951365,1.9029543,-1.0251302,6.7179594,2.717392,-44.77507,-27.879898,14.850734669230679,4.307715209818996,7.057131542185737,52.815526563027774
31/01/2020, 11:42:53,0.8981324,-0.3065625,14.820381,-3.2803452,0.7293728,2.6951365,0.973717,-0.9276904,7.1872997,2.717392,-44.77507,-27.879898,14.850734669230679,4.307715209818996,7.312045649846185,52.815526563027774
31/01/2020, 11:42:53,1.3891114,-0.9508228,14.762901,-3.2803452,0.7293728,2.6951365,0.973717,-0.9276904,7.1872997,2.717392,-44.77507,-27.879898,14.858564849840537,4.307715209818996,7.312045649846185,52.815526563027774
31/01/2020, 11:42:53,2.7758276,-2.3566992,14.403648,-3.2803452,0.7293728,2.6951365,0.973717,-0.9276904,7.1872997,2.717392,-44.77507,-27.879898,14.856794301839209,4.307715209818996,7.312045649846185,52.815526563027774
31/01/2020, 11:42:54,-1.0609937,3.2260914,8.952583,1.7348566,-0.30665424,-0.48991373,0.6291801,-0.6600528,1.3195887,-4.5603943,-46.961273,-28.410995,9.57507812868544,1.8286004845614863,1.6040110559127065,55.07579359712323
31/01/2020, 11:42:54,-0.2682422,3.3554225,9.64714,1.7348566,-0.30665424,-0.48991373,0.6291801,-0.6600528,1.3195887,-4.5603943,-46.961273,-28.410995,10.217539601005496,1.8286004845614863,1.6040110559127065,55.07579359712323
31/01/2020, 11:42:54,-0.2682422,3.3554225,9.64714,1.7348566,-0.30665424,-0.48991373,-0.74292064,0.5304129,0.427763,-4.5603943,-46.961273,-28.410995,10.217539601005496,1.8286004845614863,1.0080923083798985,55.07579359712323
31/01/2020, 11:42:54,-0.2682422,3.3554225,9.64714,1.7348566,-0.30665424,-0.48991373,-0.74292064,0.5304129,0.427763,-4.5123444,-47.082138,-27.40004,10.217539601005496,1.8286004845614863,1.0080923083798985,54.66123992505649
31/01/2020, 11:42:54,0.488584,3.532654,10.051897,1.7348566,-0.30665424,-0.48991373,-0.74292064,0.5304129,0.427763,-4.5123444,-47.082138,-27.40004,10.665786104884445,1.8286004845614863,1.0080923083798985,54.66123992505649
31/01/2020, 11:42:54,0.57001466,4.0571632,10.214759,1.7348566,-0.30665424,-0.48991373,-0.74292064,0.5304129,0.427763,-4.5123444,-47.082138,-27.40004,11.005761631294412,1.8286004845614863,1.0080923083798985,54.66123992505649
31/01/2020, 11:42:54,0.57001466,4.0571632,10.214759,1.7348566,-0.30665424,-0.48991373,-0.41016793,0.6283438,-0.53824043,-4.5123444,-47.082138,-27.40004,11.005761631294412,1.8286004845614863,0.9234481323529066,54.66123992505649
31/01/2020, 11:42:54,0.57001466,4.0571632,10.214759,1.7348566,-0.30665424,-0.48991373,-0.41016793,0.6283438,-0.53824043,-3.895996,-48.095047,-25.324356,11.005761631294412,1.8286004845614863,0.9234481323529066,54.49436064432764
31/01/2020, 11:42:54,0.57001466,4.0571632,10.214759,2.37993,-0.30665424,-0.49357894,-0.41016793,0.6283438,-0.53824043,-3.895996,-48.095047,-25.324356,11.005761631294412,2.449841605806776,0.9234481323529066,54.49436064432764
31/01/2020, 11:42:54,0.57001466,4.0571632,10.214759,2.37993,-0.30665424,-0.49357894,1.1266229,0.4212005,0.39515305,-3.895996,-48.095047,-25.324356,11.005761631294412,2.449841605806776,1.2660311984921833,54.49436064432764
31/01/2020, 11:42:54,0.34488282,4.512217,9.867481,2.37993,-0.30665424,-0.49357894,1.1266229,0.4212005,0.39515305,-3.895996,-48.095047,-25.324356,10.855700469072717,2.449841605806776,1.2660311984921833,54.49436064432764
31/01/2020, 11:42:54,0.14849122,5.1636624,9.508228,2.37993,-0.30665424,-0.49357894,1.1266229,0.4212005,0.39515305,-3.895996,-48.095047,-25.324356,10.820899445676423,2.449841605806776,1.2660311984921833,54.49436064432764
31/01/2020, 11:42:54,0.14849122,5.1636624,9.508228,2.37993,-0.30665424,-0.49357894,1.1266229,0.4212005,0.39515305,-3.7522278,-49.19217,-23.430374,10.820899445676423,2.449841605806776,1.2660311984921833,54.616216964371525
31/01/2020, 11:42:54,0.14849122,5.1636624,9.508228,2.37993,-0.30665424,-0.49357894,1.8933656,0.6906183,1.1000881,-3.7522278,-49.19217,-23.430374,10.820899445676423,2.449841605806776,2.2960794523664774,54.616216964371525
31/01/2020, 11:42:54,-0.21315674,5.585186,9.204061,2.37993,-0.30665424,-0.49357894,1.8933656,0.6906183,1.1000881,-3.7522278,-49.19217,-23.430374,10.768215692270715,2.449841605806776,2.2960794523664774,54.616216964371525
31/01/2020, 11:42:54,-0.5292993,5.623506,8.792117,2.37993,-0.30665424,-0.49357894,1.8933656,0.6906183,1.1000881,-3.7522278,-49.19217,-23.430374,10.450134052266188,2.449841605806776,2.2960794523664774,54.616216964371525
31/01/2020, 11:42:54,-0.5292993,5.623506,8.792117,2.37993,-0.30665424,-0.49357894,1.8933656,0.6906183,1.1000881,-3.556961,-49.863464,-21.098633,10.450134052266188,2.449841605806776,2.2960794523664774,54.260200479403906
31/01/2020, 11:42:54,-0.62749517,5.6618266,7.893985,2.37993,-0.30665424,-0.49357894,1.8933656,0.6906183,1.1000881,-3.556961,-49.863464,-21.098633,9.734733005771895,2.449841605806776,2.2960794523664774,54.260200479403906
31/01/2020, 11:42:54,-0.05508545,6.100115,7.541917,2.37993,-0.30665424,-0.49357894,1.8933656,0.6906183,1.1000881,-3.556961,-49.863464,-21.098633,9.700254892716877,2.449841605806776,2.2960794523664774,54.260200479403906
31/01/2020, 11:42:54,-0.05508545,6.100115,7.541917,2.37993,-0.30665424,-0.49357894,1.4247825,1.3880124,0.54854584,-3.556961,-49.863464,-21.098633,9.700254892716877,2.449841605806776,2.0633676835899792,54.260200479403906
31/01/2020, 11:42:55,-0.5748047,-4.639153,10.169253,-1.3231336,0.900415,3.1300724,-2.6879058,-0.6659322,2.8738651,-8.078552,-30.587967,-47.72899,11.192222958103104,3.515506025973802,3.9909151789049746,57.26205623217537
31/01/2020, 11:42:55,0.63707525,-4.8259645,10.075848,-1.3231336,0.900415,3.1300724,-2.6879058,-0.6659322,2.8738651,-8.078552,-30.587967,-47.72899,11.190107377768488,3.515506025973802,3.9909151789049746,57.26205623217537
31/01/2020, 11:42:55,0.63707525,-4.8259645,10.075848,-1.3231336,0.900415,3.1300724,-0.9281492,0.66366386,2.556757,-8.078552,-30.587967,-47.72899,11.190107377768488,3.515506025973802,2.7998065871896713,57.26205623217537
31/01/2020, 11:42:55,0.63707525,-4.8259645,10.075848,-1.3231336,0.900415,3.1300724,-0.9281492,0.66366386,2.556757,-8.887726,-28.875336,-48.839752,11.190107377768488,3.515506025973802,2.7998065871896713,57.429069960475104
31/01/2020, 11:42:55,0.63707525,-4.8259645,10.075848,-1.3231336,0.900415,3.1300724,-1.9154463,1.8872831,1.6035895,-8.887726,-28.875336,-48.839752,11.190107377768488,3.515506025973802,3.1308579179962295,57.429069960475104
31/01/2020, 11:42:55,1.585503,-6.0019193,10.193204,-1.3231336,0.900415,3.1300724,-1.9154463,1.8872831,1.6035895,-8.887726,-28.875336,-48.839752,11.93475013996917,3.515506025973802,3.1308579179962295,57.429069960475104
31/01/2020, 11:42:55,3.3841627,-4.7972245,10.698553,-1.3231336,0.900415,3.1300724,-1.9154463,1.8872831,1.6035895,-8.887726,-28.875336,-48.839752,12.203481395477603,3.515506025973802,3.1308579179962295,57.429069960475104
31/01/2020, 11:42:55,3.3841627,-4.7972245,10.698553,-1.3231336,0.900415,3.1300724,-1.9154463,1.8872831,1.6035895,-10.321365,-26.85202,-49.59665,12.203481395477603,3.515506025973802,3.1308579179962295,57.33575833584297
31/01/2020, 11:42:55,3.3841627,-4.7972245,10.698553,-1.3231336,0.900415,3.1300724,-3.9242485,0.9364977,2.831212,-10.321365,-26.85202,-49.59665,12.203481395477603,3.515506025973802,4.928743806370597,57.33575833584297
31/01/2020, 11:42:55,4.679868,-3.999683,11.520044,-1.3231336,0.900415,3.1300724,-3.9242485,0.9364977,2.831212,-10.321365,-26.85202,-49.59665,13.061778255140844,3.515506025973802,4.928743806370597,57.33575833584297
31/01/2020, 11:42:55,4.773274,-5.582791,9.917776,-1.3231336,0.900415,3.1300724,-3.9242485,0.9364977,2.831212,-10.321365,-26.85202,-49.59665,12.34155503854648,3.515506025973802,4.928743806370597,57.33575833584297
31/01/2020, 11:42:55,4.773274,-5.582791,9.917776,-1.3231336,0.900415,3.1300724,-3.9242485,0.9364977,2.831212,-10.8632965,-25.032562,-50.429993,12.34155503854648,3.515506025973802,4.928743806370597,57.339554806526834
31/01/2020, 11:42:55,4.773274,-5.582791,9.917776,-1.0958918,1.0286967,2.6413803,-3.9242485,0.9364977,2.831212,-10.8632965,-25.032562,-50.429993,12.34155503854648,3.0390929013775563,4.928743806370597,57.339554806526834
31/01/2020, 11:42:55,4.773274,-5.582791,9.917776,-1.0958918,1.0286967,2.6413803,-1.0060875,0.07377291,2.9446568,-10.8632965,-25.032562,-50.429993,12.34155503854648,3.0390929013775563,3.112661006435768,57.339554806526834
31/01/2020, 11:42:55,3.7985013,-5.0582814,9.352551,-1.0958918,1.0286967,2.6413803,-1.0060875,0.07377291,2.9446568,-10.8632965,-25.032562,-50.429993,11.290927398919267,3.0390929013775563,3.112661006435768,57.339554806526834
31/01/2020, 11:42:55,2.787803,-3.9589674,9.15137,-1.0958918,1.0286967,2.6413803,-1.0060875,0.07377291,2.9446568,-10.8632965,-25.032562,-50.429993,10.353397617017173,3.0390929013775563,3.112661006435768,57.339554806526834
31/01/2020, 11:42:55,2.787803,-3.9589674,9.15137,-1.0958918,1.0286967,2.6413803,-1.0060875,0.07377291,2.9446568,-10.374023,-23.647324,-51.7312,10.353397617017173,3.0390929013775563,3.112661006435768,57.81810659998405
31/01/2020, 11:42:55,2.787803,-3.9589674,9.15137,-1.0958918,1.0286967,2.6413803,2.548913,2.301566,4.313838,-10.374023,-23.647324,-51.7312,10.353397617017173,3.0390929013775563,5.513924314976318,57.81810659998405
31/01/2020, 11:42:55,2.208208,-4.3469605,7.846084,-1.0958918,1.0286967,2.6413803,2.548913,2.301566,4.313838,-10.374023,-23.647324,-51.7312,9.237601685713582,3.0390929013775563,5.513924314976318,57.81810659998405
31/01/2020, 11:42:55,0.55803955,-5.096602,7.6017923,-1.0958918,1.0286967,2.6413803,2.548913,2.301566,4.313838,-10.374023,-23.647324,-51.7312,9.169187882077269,3.0390929013775563,5.513924314976318,57.81810659998405
31/01/2020, 11:42:56,0.17723145,6.1887307,8.0017605,3.004234,-0.60842156,-0.5778783,1.4243593,0.5005486,-0.14970398,-1.2280426,-51.528503,-21.974487,10.117310398184877,3.119221458274395,1.5171551208106344,56.031891324790564
31/01/2020, 11:42:56,0.20118165,7.575447,7.302415,3.004234,-0.60842156,-0.5778783,1.4243593,0.5005486,-0.14970398,-1.2280426,-51.528503,-21.974487,10.523931577221864,3.119221458274395,1.5171551208106344,56.031891324790564
31/01/2020, 11:42:56,0.07185059,8.828042,6.2510014,3.004234,-0.60842156,-0.5778783,1.4243593,0.5005486,-0.14970398,-1.2280426,-51.528503,-21.974487,10.817324372265753,3.119221458274395,1.5171551208106344,56.031891324790564
31/01/2020, 11:42:56,0.07185059,8.828042,6.2510014,3.004234,-0.60842156,-0.5778783,1.4243593,0.5005486,-0.14970398,-0.6130829,-52.550186,-19.678894,10.817324372265753,3.119221458274395,1.5171551208106344,56.11734853446256
31/01/2020, 11:42:56,-0.36164796,9.517808,5.6282964,3.004234,-0.60842156,-0.5778783,1.4243593,0.5005486,-0.14970398,-0.6130829,-52.550186,-19.678894,11.063325797905582,3.119221458274395,1.5171551208106344,56.11734853446256
31/01/2020, 11:42:56,-1.0059083,9.15137,5.5564456,3.004234,-0.60842156,-0.5778783,1.4243593,0.5005486,-0.14970398,-0.6130829,-52.550186,-19.678894,10.753302416665997,3.119221458274395,1.5171551208106344,56.11734853446256
31/01/2020, 11:42:56,-1.0059083,9.15137,5.5564456,3.004234,-0.60842156,-0.5778783,1.8960496,1.6986637,-0.54431486,-0.6130829,-52.550186,-19.678894,10.753302416665997,3.119221458274395,2.6032174764723437,56.11734853446256
31/01/2020, 11:42:56,-1.0059083,9.15137,5.5564456,3.004234,-0.60842156,-0.5778783,1.8960496,1.6986637,-0.54431486,-0.33924866,-53.666153,-17.323578,10.753302416665997,3.119221458274395,2.6032174764723437,56.39394837337296
31/01/2020, 11:42:56,-0.96040285,8.399334,5.968389,3.004234,-0.60842156,-0.5778783,1.8960496,1.6986637,-0.54431486,-0.33924866,-53.666153,-17.323578,10.348567638088005,3.119221458274395,2.6032174764723437,56.39394837337296
31/01/2020, 11:42:56,-0.05748047,7.927515,6.591094,3.004234,-0.60842156,-0.5778783,1.8960496,1.6986637,-0.54431486,-0.33924866,-53.666153,-17.323578,10.309768130034456,3.119221458274395,2.6032174764723437,56.39394837337296
31/01/2020, 11:42:56,-0.05748047,7.927515,6.591094,3.004234,-0.60842156,-0.5778783,1.7078049,3.8510451,-2.037745,-0.33924866,-53.666153,-17.323578,10.309768130034456,3.119221458274395,4.679695601838507,56.39394837337296
31/01/2020, 11:42:56,-0.05748047,7.927515,6.591094,3.004234,-0.60842156,-0.5778783,1.7078049,3.8510451,-2.037745,0.25187683,-54.386642,-13.678909,10.309768130034456,3.119221458274395,4.679695601838507,56.08103850024952
31/01/2020, 11:42:56,1.2573853,8.037686,7.216194,3.004234,-0.60842156,-0.5778783,1.7078049,3.8510451,-2.037745,0.25187683,-54.386642,-13.678909,10.874689768279072,3.119221458274395,4.679695601838507,56.08103850024952
31/01/2020, 11:42:56,2.2561085,7.9945755,7.2329593,3.004234,-0.60842156,-0.5778783,1.7078049,3.8510451,-2.037745,0.25187683,-54.386642,-13.678909,11.01448877189973,3.119221458274395,4.679695601838507,56.08103850024952
31/01/2020, 11:42:56,2.2561085,7.9945755,7.2329593,3.004234,-0.60842156,-0.5778783,1.2239075,4.1689157,-2.4356327,0.25187683,-54.386642,-13.678909,11.01448877189973,3.119221458274395,4.9809752752604215,56.08103850024952
31/01/2020, 11:42:56,2.2561085,7.9945755,7.2329593,3.004234,-0.60842156,-0.5778783,1.2239075,4.1689157,-2.4356327,0.9413605,-55.271347,-10.22728,11.01448877189973,3.119221458274395,4.9809752752604215,56.2174813836091
31/01/2020, 11:42:56,2.2561085,7.9945755,7.2329593,2.2834134,-1.0299184,-1.189965,1.2239075,4.1689157,-2.4356327,0.9413605,-55.271347,-10.22728,11.01448877189973,2.773215733253468,4.9809752752604215,56.2174813836091
31/01/2020, 11:42:56,2.193838,8.897498,6.5264287,2.2834134,-1.0299184,-1.189965,1.2239075,4.1689157,-2.4356327,0.9413605,-55.271347,-10.22728,11.250451955616226,2.773215733253468,4.9809752752604215,56.2174813836091
31/01/2020, 11:42:56,1.2525953,10.545272,5.8917484,2.2834134,-1.0299184,-1.189965,1.2239075,4.1689157,-2.4356327,0.9413605,-55.271347,-10.22728,12.144317742368417,2.773215733253468,4.9809752752604215,56.2174813836091
31/01/2020, 11:42:56,1.2525953,10.545272,5.8917484,2.2834134,-1.0299184,-1.189965,0.5691863,2.7150702,-1.8738098,0.9413605,-55.271347,-10.22728,12.144317742368417,2.773215733253468,3.347647335165721,56.2174813836091
31/01/2020, 11:42:57,-1.0370435,-7.1275783,7.793394,-0.01343903,2.1771228,2.8967218,3.7554455,-0.89145947,3.396881,-14.431641,-15.052673,-55.123062,10.612013116068782,3.6236779448622416,5.1416798777309936,58.93561915184028
31/01/2020, 11:42:57,-0.72569096,-6.8689165,6.710845,-0.01343903,2.1771228,2.8967218,3.7554455,-0.89145947,3.396881,-14.431641,-15.052673,-55.123062,9.630372886922158,3.6236779448622416,5.1416798777309936,58.93561915184028
31/01/2020, 11:42:57,-0.59156984,-6.3156667,6.835386,-0.01343903,2.1771228,2.8967218,3.7554455,-0.89145947,3.396881,-14.431641,-15.052673,-55.123062,9.325239914355844,3.6236779448622416,5.1416798777309936,58.93561915184028
31/01/2020, 11:42:57,-0.59156984,-6.3156667,6.835386,-0.01343903,2.1771228,2.8967218,0.6952798,-1.2144642,1.896389,-14.431641,-15.052673,-55.123062,9.325239914355844,3.6236779448622416,2.3568259374458194,58.93561915184028
31/01/2020, 11:42:57,-0.59156984,-6.3156667,6.835386,-0.01343903,2.1771228,2.8967218,0.6952798,-1.2144642,1.896389,-13.929611,-15.172409,-54.960754,9.325239914355844,3.6236779448622416,2.3568259374458194,58.69344587413057
31/01/2020, 11:42:57,0.0,-5.712122,7.917935,-0.01343903,2.1771228,2.8967218,0.6952798,-1.2144642,1.896389,-13.929611,-15.172409,-54.960754,9.763300175679795,3.6236779448622416,2.3568259374458194,58.69344587413057
31/01/2020, 11:42:57,0.69216067,-5.233118,7.168294,-0.01343903,2.1771228,2.8967218,0.6952798,-1.2144642,1.896389,-13.929611,-15.172409,-54.960754,8.90219350410065,3.6236779448622416,2.3568259374458194,58.69344587413057
31/01/2020, 11:42:57,0.69216067,-5.233118,7.168294,-0.01343903,2.1771228,2.8967218,0.25687623,0.21228361,1.4207039,-13.929611,-15.172409,-54.960754,8.90219350410065,3.6236779448622416,1.4592632615447008,58.69344587413057
31/01/2020, 11:42:57,0.69216067,-5.233118,7.168294,-0.01343903,2.1771228,2.8967218,0.25687623,0.21228361,1.4207039,-10.707062,-11.380264,-56.407272,8.90219350410065,3.6236779448622416,1.4592632615447008,58.5314612797185
31/01/2020, 11:42:57,0.69216067,-5.233118,7.168294,-0.01343903,2.1771228,2.8967218,1.29929,0.90708685,0.47925663,-10.707062,-11.380264,-56.407272,8.90219350410065,3.6236779448622416,1.6554902060085999,58.5314612797185
31/01/2020, 11:42:57,0.41912845,-4.512217,6.967112,-0.01343903,2.1771228,2.8967218,1.29929,0.90708685,0.47925663,-10.707062,-11.380264,-56.407272,8.31122264367649,3.6236779448622416,1.6554902060085999,58.5314612797185
31/01/2020, 11:42:57,-1.0370435,-4.129014,6.3635674,-0.01343903,2.1771228,2.8967218,1.29929,0.90708685,0.47925663,-10.707062,-11.380264,-56.407272,7.656317999324126,3.6236779448622416,1.6554902060085999,58.5314612797185
31/01/2020, 11:42:57,-1.0370435,-4.129014,6.3635674,-0.01343903,2.1771228,2.8967218,1.29929,0.90708685,0.47925663,-10.619598,-11.56311,-56.275635,7.656317999324126,3.6236779448622416,1.6554902060085999,58.42455356451699
31/01/2020, 11:42:57,-2.0525317,-3.1542408,6.844966,-0.01343903,2.1771228,2.8967218,1.29929,0.90708685,0.47925663,-10.619598,-11.56311,-56.275635,7.81125344774208,3.6236779448622416,1.6554902060085999,58.42455356451699
31/01/2020, 11:42:57,-2.3375392,-2.6225464,7.27128,-0.01343903,2.1771228,2.8967218,1.29929,0.90708685,0.47925663,-10.619598,-11.56311,-56.275635,8.075478276600768,3.6236779448622416,1.6554902060085999,58.42455356451699
31/01/2020, 11:42:57,-2.3375392,-2.6225464,7.27128,-0.01343903,2.1771228,2.8967218,3.0507746,1.8278246,0.787591,-10.619598,-11.56311,-56.275635,8.075478276600768,3.6236779448622416,3.642590808334349,58.42455356451699
31/01/2020, 11:42:57,-2.3375392,-2.6225464,7.27128,-0.01343903,2.1771228,2.8967218,3.0507746,1.8278246,0.787591,-9.120529,-11.272247,-56.99858,8.075478276600768,3.6236779448622416,3.642590808334349,58.8139935753284
31/01/2020, 11:42:57,-2.3375392,-2.6225464,7.27128,0.37140593,1.2925904,1.9291117,3.0507746,1.8278246,0.787591,-9.120529,-11.272247,-56.99858,8.075478276600768,2.3516386369851374,3.642590808334349,58.8139935753284
31/01/2020, 11:42:57,-2.3375392,-2.6225464,7.27128,0.37140593,1.2925904,1.9291117,1.7737325,2.7427602,-0.03965521,-9.120529,-11.272247,-56.99858,8.075478276600768,2.3516386369851374,3.2665628851220965,58.8139935753284
31/01/2020, 11:42:57,-2.5530908,-3.2332766,7.0988383,0.37140593,1.2925904,1.9291117,1.7737325,2.7427602,-0.03965521,-9.120529,-11.272247,-56.99858,8.207670553950225,2.3516386369851374,3.2665628851220965,58.8139935753284
31/01/2020, 11:42:58,1.0849439,7.3072047,6.9216065,1.2339473,-0.8845325,-1.1044439,2.7735868,3.3018055,0.1944704,3.7431946,-56.19191,-9.467285,10.123289051426891,1.8774503965100238,4.316540482079573,57.106669660784505
31/01/2020, 11:42:58,1.0849439,7.3072047,6.9216065,1.2339473,-0.8845325,-1.1044439,2.7735868,3.3018055,0.1944704,4.774338,-56.611664,-8.553162,10.123289051426891,1.8774503965100238,4.316540482079573,57.45286202729798
31/01/2020, 11:42:58,1.0849439,7.3072047,6.9216065,1.3952156,-1.258382,-1.4599674,2.7735868,3.3018055,0.1944704,4.774338,-56.611664,-8.553162,10.123289051426891,2.3794235762899603,4.316540482079573,57.45286202729798
31/01/2020, 11:42:58,1.0849439,7.3072047,6.9216065,1.3952156,-1.258382,-1.4599674,1.6439849,2.3066053,-1.2103786,4.774338,-56.611664,-8.553162,10.123289051426891,2.3794235762899603,3.080281002729234,57.45286202729798
31/01/2020, 11:42:58,2.0932472,7.673643,7.32397,1.3952156,-1.258382,-1.4599674,1.6439849,2.3066053,-1.2103786,4.774338,-56.611664,-8.553162,10.812354812048481,2.3794235762899603,3.080281002729234,57.45286202729798
31/01/2020, 11:42:58,2.4812403,7.8532696,7.1443434,1.3952156,-1.258382,-1.4599674,1.6439849,2.3066053,-1.2103786,4.774338,-56.611664,-8.553162,10.902845436669702,2.3794235762899603,3.080281002729234,57.45286202729798
31/01/2020, 11:42:58,2.4812403,7.8532696,7.1443434,1.3952156,-1.258382,-1.4599674,1.6439849,2.3066053,-1.2103786,5.9431763,-56.52588,-6.9995575,10.902845436669702,2.3794235762899603,3.080281002729234,57.266832769258414
31/01/2020, 11:42:58,2.2776637,8.370594,7.3790555,1.3952156,-1.258382,-1.4599674,1.6439849,2.3066053,-1.2103786,5.9431763,-56.52588,-6.9995575,11.38881277235248,2.3794235762899603,3.080281002729234,57.266832769258414
31/01/2020, 11:42:58,1.5543678,8.713081,6.945557,1.3952156,-1.258382,-1.4599674,1.6439849,2.3066053,-1.2103786,5.9431763,-56.52588,-6.9995575,11.25053819393362,2.3794235762899603,3.080281002729234,57.266832769258414
31/01/2020, 11:42:58,1.5543678,8.713081,6.945557,1.3952156,-1.258382,-1.4599674,1.4816773,1.6714897,-0.90914726,5.9431763,-56.52588,-6.9995575,11.25053819393362,2.3794235762899603,2.411595782302052,57.266832769258414
31/01/2020, 11:42:58,1.5543678,8.713081,6.945557,1.3952156,-1.258382,-1.4599674,1.4816773,1.6714897,-0.90914726,7.5108185,-56.67044,-5.8983,11.25053819393362,2.3794235762899603,2.411595782302052,57.46948046862016
31/01/2020, 11:42:58,0.9532178,8.921448,6.823411,1.3952156,-1.258382,-1.4599674,1.4816773,1.6714897,-0.90914726,7.5108185,-56.67044,-5.8983,11.27208018590764,2.3794235762899603,2.411595782302052,57.46948046862016
31/01/2020, 11:42:58,1.4897022,8.940608,5.9252787,1.3952156,-1.258382,-1.4599674,1.4816773,1.6714897,-0.90914726,7.5108185,-56.67044,-5.8983,10.828786257452506,2.3794235762899603,2.411595782302052,57.46948046862016
31/01/2020, 11:42:58,1.4897022,8.940608,5.9252787,1.3952156,-1.258382,-1.4599674,3.189339,1.2266946,0.017026901,7.5108185,-56.67044,-5.8983,10.828786257452506,2.3794235762899603,3.4171555832439573,57.46948046862016
31/01/2020, 11:42:58,1.4897022,8.940608,5.9252787,1.3952156,-1.258382,-1.4599674,3.189339,1.2266946,0.017026901,8.871506,-56.818832,-4.3523254,10.828786257452506,2.3794235762899603,3.4171555832439573,57.67170940581437
31/01/2020, 11:42:58,1.4897022,8.940608,5.9252787,1.3952156,-1.258382,-1.4599674,3.2607148,1.6111374,0.34302425,8.871506,-56.818832,-4.3523254,10.828786257452506,2.3794235762899603,3.653175349715266,57.67170940581437
31/01/2020, 11:42:58,2.1148024,9.627979,6.1599903,1.3952156,-1.258382,-1.4599674,3.2607148,1.6111374,0.34302425,8.871506,-56.818832,-4.3523254,11.623934559353161,2.3794235762899603,3.653175349715266,57.67170940581437
31/01/2020, 11:42:58,2.6177564,9.572893,5.982759,1.3952156,-1.258382,-1.4599674,3.2607148,1.6111374,0.34302425,8.871506,-56.818832,-4.3523254,11.588198166914502,2.3794235762899603,3.653175349715266,57.67170940581437
31/01/2020, 11:42:58,2.6177564,9.572893,5.982759,1.3952156,-1.258382,-1.4599674,3.2607148,1.6111374,0.34302425,10.199936,-56.323944,-3.347763,11.588198166914502,2.3794235762899603,3.653175349715266,57.337883534387814
31/01/2020, 11:42:58,2.6177564,9.572893,5.982759,2.0671673,-1.5015062,-1.4233155,3.2607148,1.6111374,0.34302425,10.199936,-56.323944,-3.347763,11.588198166914502,2.9246416110102733,3.653175349715266,57.337883534387814
31/01/2020, 11:42:59,-2.7375073,-5.3121533,7.7502837,0.13439031,1.4245372,1.2925904,1.774662,1.8950081,1.0579152,-11.755875,-9.205551,-56.721695,9.786716367961018,1.928252272782739,2.8035095007823556,58.65401467856875
31/01/2020, 11:42:59,-2.7135572,-5.7815776,7.6329274,0.13439031,1.4245372,1.2925904,1.774662,1.8950081,1.0579152,-11.755875,-9.205551,-56.721695,9.95246769769272,1.928252272782739,2.8035095007823556,58.65401467856875
31/01/2020, 11:42:59,-2.7135572,-5.7815776,7.6329274,0.13439031,1.4245372,1.2925904,1.9572569,2.0979495,1.9291773,-11.755875,-9.205551,-56.721695,9.95246769769272,1.928252272782739,3.4574516255692345,58.65401467856875
31/01/2020, 11:42:59,-2.7135572,-5.7815776,7.6329274,0.13439031,1.4245372,1.2925904,1.9572569,2.0979495,1.9291773,-8.686188,-8.836777,-58.386124,9.95246769769272,1.928252272782739,3.4574516255692345,59.686496934225765
31/01/2020, 11:42:59,-2.7135572,-5.7815776,7.6329274,0.5290091,0.687834,0.93340176,1.9572569,2.0979495,1.9291773,-8.686188,-8.836777,-58.386124,9.95246769769272,1.2744430662178907,3.4574516255692345,59.686496934225765
31/01/2020, 11:42:59,-2.9770093,-6.1240654,7.3455253,0.5290091,0.687834,0.93340176,1.9572569,2.0979495,1.9291773,-8.686188,-8.836777,-58.386124,10.016162078321138,1.2744430662178907,3.4574516255692345,59.686496934225765
31/01/2020, 11:42:59,-3.027305,-6.0210795,7.2569094,0.5290091,0.687834,0.93340176,1.9572569,2.0979495,1.9291773,-8.686188,-8.836777,-58.386124,9.90357043313669,1.2744430662178907,3.4574516255692345,59.686496934225765
31/01/2020, 11:42:59,-3.027305,-6.0210795,7.2569094,0.5290091,0.687834,0.93340176,0.69316983,1.8200884,1.3554144,-8.686188,-8.836777,-58.386124,9.90357043313669,1.2744430662178907,2.3728367666704426,59.686496934225765
31/01/2020, 11:42:59,-3.027305,-6.0210795,7.2569094,0.5290091,0.687834,0.93340176,0.69316983,1.8200884,1.3554144,-8.327698,-9.182175,-57.929214,9.90357043313669,1.2744430662178907,2.3728367666704426,59.240668225191655
31/01/2020, 11:42:59,-3.027305,-6.0210795,7.2569094,0.5290091,0.687834,0.93340176,0.69316983,1.8200884,1.3554144,-7.49321,-9.530518,-57.803864,9.90357043313669,1.2744430662178907,2.3728367666704426,59.06154076434368
31/01/2020, 11:42:59,-3.027305,-6.0210795,7.2569094,0.5290091,0.687834,0.93340176,0.69316983,1.8200884,1.3554144,-7.041321,-9.643066,-58.222946,9.90357043313669,1.2744430662178907,2.3728367666704426,59.43467328672155
31/01/2020, 11:42:59,-3.027305,-6.0210795,7.2569094,0.5290091,0.687834,0.93340176,0.81854963,0.5692544,1.0494332,-7.041321,-9.643066,-58.222946,9.90357043313669,1.2744430662178907,1.4475441889051266,59.43467328672155
31/01/2020, 11:42:59,-3.027305,-6.0210795,7.2569094,0.5290091,0.687834,0.93340176,0.7002492,0.11147165,0.57495165,-7.041321,-9.643066,-58.222946,9.90357043313669,1.2744430662178907,0.9128769155875163,59.43467328672155
31/01/2020, 11:42:59,-2.5938063,-5.589976,7.038963,0.5290091,0.687834,0.93340176,0.7002492,0.11147165,0.57495165,-7.041321,-9.643066,-58.222946,9.355354544354464,1.2744430662178907,0.9128769155875163,59.43467328672155
31/01/2020, 11:42:59,-2.1507277,-5.49657,7.192244,0.5290091,0.687834,0.93340176,0.7002492,0.11147165,0.57495165,-7.041321,-9.643066,-58.222946,9.304100566079757,1.2744430662178907,0.9128769155875163,59.43467328672155
31/01/2020, 11:42:59,-1.7315992,-5.357659,7.9730206,0.5290091,0.687834,0.93340176,0.7002492,0.11147165,0.57495165,-7.041321,-9.643066,-58.222946,9.760737731897768,1.2744430662178907,0.9128769155875163,59.43467328672155
31/01/2020, 11:42:59,-1.7531544,-5.242698,8.023315,0.5290091,0.687834,0.93340176,0.7002492,0.11147165,0.57495165,-7.041321,-9.643066,-58.222946,9.743358002386742,1.2744430662178907,0.9128769155875163,59.43467328672155
31/01/2020, 11:42:59,-2.3950195,-5.2019825,7.7383084,0.5290091,0.687834,0.93340176,0.7002492,0.11147165,0.57495165,-7.041321,-9.643066,-58.222946,9.626949559427946,1.2744430662178907,0.9128769155875163,59.43467328672155
31/01/2020, 11:42:59,-3.3506324,-5.127737,7.4940166,0.5290091,0.687834,0.93340176,0.7002492,0.11147165,0.57495165,-7.041321,-9.643066,-58.222946,9.678879604133014,1.2744430662178907,0.9128769155875163,59.43467328672155
31/01/2020, 11:42:59,-3.3506324,-5.127737,7.4940166,0.5290091,0.687834,0.93340176,1.7032175,0.4211874,0.38999367,-7.041321,-9.643066,-58.222946,9.678879604133014,1.2744430662178907,1.7973435290769637,59.43467328672155
31/01/2020, 11:43:00,2.9722195,6.952742,5.4462748,2.5741851,-1.3500117,-1.2815948,1.9226851,0.48580265,-0.48412323,14.4131775,-55.805466,-0.15286255,9.318616850140229,3.1767036087338187,2.0413470280472805,57.63690704853548
31/01/2020, 11:43:00,2.9602442,7.793394,3.8344264,2.5741851,-1.3500117,-1.2815948,1.9226851,0.48580265,-0.48412323,14.4131775,-55.805466,-0.15286255,9.176211792499904,3.1767036087338187,2.0413470280472805,57.63690704853548
31/01/2020, 11:43:00,3.4416432,9.707015,3.899092,2.5741851,-1.3500117,-1.2815948,1.9226851,0.48580265,-0.48412323,14.4131775,-55.805466,-0.15286255,11.012446014479904,3.1767036087338187,2.0413470280472805,57.63690704853548
31/01/2020, 11:43:00,3.4416432,9.707015,3.899092,2.5741851,-1.3500117,-1.2815948,1.9226851,0.48580265,-0.48412323,16.142883,-55.197662,2.2181396,11.012446014479904,3.1767036087338187,2.0413470280472805,57.55253907565963
31/01/2020, 11:43:00,3.4416432,9.707015,3.899092,2.5741851,-1.3500117,-1.2815948,3.2501936,-1.2830563,0.22939348,16.142883,-55.197662,2.2181396,11.012446014479904,3.1767036087338187,3.5018014142119793,57.55253907565963
31/01/2020, 11:43:00,3.915857,10.284214,3.532654,2.5741851,-1.3500117,-1.2815948,3.2501936,-1.2830563,0.22939348,16.142883,-55.197662,2.2181396,11.55762256111209,3.1767036087338187,3.5018014142119793,57.55253907565963
31/01/2020, 11:43:00,4.3493557,9.489068,3.1207106,2.5741851,-1.3500117,-1.2815948,3.2501936,-1.2830563,0.22939348,16.142883,-55.197662,2.2181396,10.894867681946522,3.1767036087338187,3.5018014142119793,57.55253907565963
31/01/2020, 11:43:00,4.3493557,9.489068,3.1207106,2.5741851,-1.3500117,-1.2815948,3.2501936,-1.2830563,0.22939348,17.221191,-54.90558,5.3123627,10.894867681946522,3.1767036087338187,3.5018014142119793,57.78765606474329
31/01/2020, 11:43:00,4.3493557,9.489068,3.1207106,1.1924086,-2.254092,-0.70249474,3.2501936,-1.2830563,0.22939348,17.221191,-54.90558,5.3123627,10.894867681946522,2.6450458756050628,3.5018014142119793,57.78765606474329
31/01/2020, 11:43:00,4.4451566,7.8700347,3.5566041,1.1924086,-2.254092,-0.70249474,3.2501936,-1.2830563,0.22939348,17.221191,-54.90558,5.3123627,9.713202155987553,2.6450458756050628,3.5018014142119793,57.78765606474329
31/01/2020, 11:43:00,5.237908,5.592371,4.670288,1.1924086,-2.254092,-0.70249474,3.2501936,-1.2830563,0.22939348,17.221191,-54.90558,5.3123627,8.973398636453949,2.6450458756050628,3.5018014142119793,57.78765606474329
31/01/2020, 11:43:00,5.237908,5.592371,4.670288,1.1924086,-2.254092,-0.70249474,2.985478,-0.59566116,-1.2410796,17.221191,-54.90558,5.3123627,8.973398636453949,2.6450458756050628,3.287578007365227,57.78765606474329
31/01/2020, 11:43:00,5.237908,5.592371,4.670288,1.1924086,-2.254092,-0.70249474,2.985478,-0.59566116,-1.2410796,18.646576,-54.16072,7.193161,8.973398636453949,2.6450458756050628,3.287578007365227,57.73058149248083
31/01/2020, 11:43:00,5.237908,5.592371,4.670288,1.1924086,-2.254092,-0.70249474,3.7135572,1.7507801,-1.2944794,18.646576,-54.16072,7.193161,8.973398636453949,2.6450458756050628,4.304813029320532,57.73058149248083
31/01/2020, 11:43:00,5.0702567,3.5949244,4.5696974,1.1924086,-2.254092,-0.70249474,3.7135572,1.7507801,-1.2944794,18.646576,-54.16072,7.193161,7.714474645227044,2.6450458756050628,4.304813029320532,57.73058149248083
31/01/2020, 11:43:00,4.8331494,3.0033545,5.122947,1.1924086,-2.254092,-0.70249474,3.7135572,1.7507801,-1.2944794,18.646576,-54.16072,7.193161,7.656635042284701,2.6450458756050628,4.304813029320532,57.73058149248083
31/01/2020, 11:43:00,4.8331494,3.0033545,5.122947,1.1924086,-2.254092,-0.70249474,3.7135572,1.7507801,-1.2944794,19.48523,-53.641327,8.937515,7.656635042284701,2.6450458756050628,4.304813029320532,57.766298993599584
31/01/2020, 11:43:00,4.8331494,3.0033545,5.122947,1.1924086,-2.254092,-0.70249474,3.9527535,-0.7376051,-1.1130574,19.48523,-53.641327,8.937515,7.656635042284701,2.6450458756050628,4.172195893582317,57.766298993599584
31/01/2020, 11:43:00,4.9552956,4.471502,5.125342,1.1924086,-2.254092,-0.70249474,3.9527535,-0.7376051,-1.1130574,19.48523,-53.641327,8.937515,8.415367622245482,2.6450458756050628,4.172195893582317,57.766298993599584
31/01/2020, 11:43:00,5.6833816,6.809041,4.567302,1.1924086,-2.254092,-0.70249474,3.9527535,-0.7376051,-1.1130574,19.48523,-53.641327,8.937515,9.976177385002446,2.6450458756050628,4.172195893582317,57.766298993599584
31/01/2020, 11:43:01,-3.5015187,-4.296665,7.695198,0.43860108,0.16982047,0.94195384,1.2490473,-0.26362705,0.7156806,-2.396225,-12.214172,-59.22664,9.483566751418572,1.052847059164641,1.4634948065739475,60.52043162009036
31/01/2020, 11:43:01,-3.6691701,-4.3445654,7.781419,0.43860108,0.16982047,0.94195384,1.2490473,-0.26362705,0.7156806,-2.396225,-12.214172,-59.22664,9.637869915759161,1.052847059164641,1.4634948065739475,60.52043162009036
31/01/2020, 11:43:01,-3.6308498,-4.277505,7.589817,0.43860108,0.16982047,0.94195384,1.2490473,-0.26362705,0.7156806,-2.396225,-12.214172,-59.22664,9.438508447076927,1.052847059164641,1.4634948065739475,60.52043162009036
31/01/2020, 11:43:01,-3.6308498,-4.277505,7.589817,0.43860108,0.16982047,0.94195384,1.2490473,-0.26362705,0.7156806,-2.2568512,-11.992889,-58.83728,9.438508447076927,1.052847059164641,1.4634948065739475,60.08950260703549
31/01/2020, 11:43:01,-3.6308498,-4.277505,7.589817,0.43860108,0.16982047,0.94195384,1.005522,0.385499,0.3528304,-2.2568512,-11.992889,-58.83728,9.438508447076927,1.052847059164641,1.133213702570434,60.08950260703549
31/01/2020, 11:43:01,-3.3602126,-4.129014,8.011341,0.43860108,0.16982047,0.94195384,1.005522,0.385499,0.3528304,-2.2568512,-11.992889,-58.83728,9.618803010566182,1.052847059164641,1.133213702570434,60.08950260703549
31/01/2020, 11:43:01,-3.408113,-4.282295,7.91075,0.43860108,0.16982047,0.94195384,1.005522,0.385499,0.3528304,-2.2568512,-11.992889,-58.83728,9.619420503630813,1.052847059164641,1.133213702570434,60.08950260703549
31/01/2020, 11:43:01,-3.408113,-4.282295,7.91075,0.43860108,0.16982047,0.94195384,1.005522,0.385499,0.3528304,-2.335083,-13.14888,-59.367462,9.619420503630813,1.052847059164641,1.133213702570434,60.85097551512105
31/01/2020, 11:43:01,-3.408113,-4.282295,7.91075,0.8539893,-0.27855444,0.49357894,1.005522,0.385499,0.3528304,-2.335083,-13.14888,-59.367462,9.619420503630813,1.0249441332351792,1.133213702570434,60.85097551512105
31/01/2020, 11:43:01,-3.7050953,-4.4475513,7.975415,0.8539893,-0.27855444,0.49357894,1.005522,0.385499,0.3528304,-2.335083,-13.14888,-59.367462,9.854729388955482,1.0249441332351792,1.133213702570434,60.85097551512105
31/01/2020, 11:43:01,-3.544629,-4.2918754,8.3179035,0.8539893,-0.27855444,0.49357894,1.005522,0.385499,0.3528304,-2.335083,-13.14888,-59.367462,10.008601725893122,1.0249441332351792,1.133213702570434,60.85097551512105
31/01/2020, 11:43:01,-3.544629,-4.2918754,8.3179035,0.8539893,-0.27855444,0.49357894,0.9299159,0.16741657,0.1340642,-2.335083,-13.14888,-59.367462,10.008601725893122,1.0249441332351792,0.9543296643210736,60.85097551512105
31/01/2020, 11:43:01,-3.544629,-4.2918754,8.3179035,0.8539893,-0.27855444,0.49357894,0.9299159,0.16741657,0.1340642,-2.1628723,-13.99144,-59.150345,10.008601725893122,1.0249441332351792,0.9543296643210736,60.821062968176655
31/01/2020, 11:43:01,-3.1350808,-4.136199,8.636441,0.8539893,-0.27855444,0.49357894,0.9299159,0.16741657,0.1340642,-2.1628723,-13.99144,-59.150345,10.075961045582186,1.0249441332351792,0.9543296643210736,60.821062968176655
31/01/2020, 11:43:01,-2.8357031,-3.908672,9.16574,0.8539893,-0.27855444,0.49357894,0.9299159,0.16741657,0.1340642,-2.1628723,-13.99144,-59.150345,10.360005781682242,1.0249441332351792,0.9543296643210736,60.821062968176655
31/01/2020, 11:43:01,-2.8357031,-3.908672,9.16574,0.8539893,-0.27855444,0.49357894,1.160367,-0.05325222,0.33499813,-2.1628723,-13.99144,-59.150345,10.360005781682242,1.0249441332351792,1.2089297536180605,60.821062968176655
31/01/2020, 11:43:01,-2.8357031,-3.908672,9.16574,0.8539893,-0.27855444,0.49357894,1.160367,-0.05325222,0.33499813,-2.6040344,-15.17807,-58.66887,10.360005781682242,1.0249441332351792,1.2089297536180605,60.65633518600374
31/01/2020, 11:43:01,-2.687212,-3.6188745,9.18011,0.8539893,-0.27855444,0.49357894,1.160367,-0.05325222,0.33499813,-2.6040344,-15.17807,-58.66887,10.227012295477863,1.0249441332351792,1.2089297536180605,60.65633518600374
31/01/2020, 11:43:01,-2.2752686,-3.0895753,9.414823,0.8539893,-0.27855444,0.49357894,1.160367,-0.05325222,0.33499813,-2.6040344,-15.17807,-58.66887,10.16667136559692,1.0249441332351792,1.2089297536180605,60.65633518600374
31/01/2020, 11:43:01,-2.2752686,-3.0895753,9.414823,0.8539893,-0.27855444,0.49357894,0.9918556,-0.27441168,0.608654,-2.6040344,-15.17807,-58.66887,10.16667136559692,1.0249441332351792,1.1956333307228764,60.65633518600374
31/01/2020, 11:43:02,7.8269243,-3.1446607,8.178992,-1.896125,-2.5228724,1.1545348,5.709856,-4.3772755,1.2039623,23.518799,-53.66034,7.526474,11.749278698682092,3.3605246453337396,7.294691338030545,59.06956685908454
31/01/2020, 11:43:02,7.91075,-2.3590944,8.631651,-1.896125,-2.5228724,1.1545348,5.709856,-4.3772755,1.2039623,23.518799,-53.66034,7.526474,11.943646351092326,3.3605246453337396,7.294691338030545,59.06956685908454
31/01/2020, 11:43:02,7.91075,-2.3590944,8.631651,-1.896125,-2.5228724,1.1545348,4.57965,-4.5941544,0.93765736,23.518799,-53.66034,7.526474,11.943646351092326,3.3605246453337396,6.554284783234122,59.06956685908454
31/01/2020, 11:43:02,7.91075,-2.3590944,8.631651,-1.896125,-2.5228724,1.1545348,4.57965,-4.5941544,0.93765736,22.753494,-53.99176,5.3324127,11.943646351092326,3.3605246453337396,6.554284783234122,58.83252758373807
31/01/2020, 11:43:02,7.91075,-2.3590944,8.631651,-1.896125,-2.5228724,1.1545348,5.3162994,-8.1645565,2.6222773,22.753494,-53.99176,5.3324127,11.943646351092326,3.3605246453337396,10.089566920461035,58.83252758373807
31/01/2020, 11:43:02,7.9706254,0.13891114,8.823253,-1.896125,-2.5228724,1.1545348,5.3162994,-8.1645565,2.6222773,22.753494,-53.99176,5.3324127,11.891171237510502,3.3605246453337396,10.089566920461035,58.83252758373807
31/01/2020, 11:43:02,8.777747,2.4022048,8.760982,-1.896125,-2.5228724,1.1545348,5.3162994,-8.1645565,2.6222773,22.753494,-53.99176,5.3324127,12.632269418612568,3.3605246453337396,10.089566920461035,58.83252758373807
31/01/2020, 11:43:02,8.777747,2.4022048,8.760982,-1.896125,-2.5228724,1.1545348,5.3162994,-8.1645565,2.6222773,22.029037,-55.035904,2.4253235,12.632269418612568,3.3605246453337396,10.089566920461035,59.330526776520266
31/01/2020, 11:43:02,8.777747,2.7782228,8.286768,-1.896125,-2.5228724,1.1545348,5.3162994,-8.1645565,2.6222773,22.029037,-55.035904,2.4253235,12.387004893936945,3.3605246453337396,10.089566920461035,59.330526776520266
31/01/2020, 11:43:02,8.907078,0.9029224,8.62207,-1.896125,-2.5228724,1.1545348,5.3162994,-8.1645565,2.6222773,22.029037,-55.035904,2.4253235,12.429456949691428,3.3605246453337396,10.089566920461035,59.330526776520266
31/01/2020, 11:43:02,8.907078,0.9029224,8.62207,-1.896125,-2.5228724,1.1545348,3.812572,-10.888475,3.7058945,22.029037,-55.035904,2.4253235,12.429456949691428,3.3605246453337396,12.117270981054455,59.330526776520266
31/01/2020, 11:43:02,8.907078,0.9029224,8.62207,-1.896125,-2.5228724,1.1545348,3.812572,-10.888475,3.7058945,20.779785,-55.357346,-0.9988556,12.429456949691428,3.3605246453337396,12.117270981054455,59.1374068877858
31/01/2020, 11:43:02,8.907078,0.9029224,8.62207,-1.7849475,-2.5534158,2.172236,3.812572,-10.888475,3.7058945,20.779785,-55.357346,-0.9988556,12.429456949691428,3.797970358229881,12.117270981054455,59.1374068877858
31/01/2020, 11:43:02,8.907078,0.9029224,8.62207,-1.7849475,-2.5534158,2.172236,3.3202415,-7.2479024,4.358038,20.779785,-55.357346,-0.9988556,12.429456949691428,3.797970358229881,9.085625303720041,59.1374068877858
31/01/2020, 11:43:02,9.69504,-0.2562671,9.82437,-1.7849475,-2.5534158,2.172236,3.3202415,-7.2479024,4.358038,20.779785,-55.357346,-0.9988556,13.804989026095376,3.797970358229881,9.085625303720041,59.1374068877858
31/01/2020, 11:43:02,9.81,-0.98195803,11.50328,-1.7849475,-2.5534158,2.172236,3.3202415,-7.2479024,4.358038,20.779785,-55.357346,-0.9988556,15.150108690783547,3.797970358229881,9.085625303720041,59.1374068877858
31/01/2020, 11:43:02,9.81,-0.98195803,11.50328,-1.7849475,-2.5534158,2.172236,3.3202415,-7.2479024,4.358038,18.343552,-56.118637,-3.3061066,15.150108690783547,3.797970358229881,9.085625303720041,59.133050449994414
31/01/2020, 11:43:02,9.81,-0.98195803,11.50328,-1.7849475,-2.5534158,2.172236,3.4827547,-4.1407995,3.786901,18.343552,-56.118637,-3.3061066,15.150108690783547,3.797970358229881,6.604272874320595,59.133050449994414
31/01/2020, 11:43:02,7.951465,-1.5040723,12.022999,-1.7849475,-2.5534158,2.172236,3.4827547,-4.1407995,3.786901,18.343552,-56.118637,-3.3061066,14.492775151825636,3.797970358229881,6.604272874320595,59.133050449994414
31/01/2020, 11:43:02,7.7335186,-2.5004005,12.063714,-1.7849475,-2.5534158,2.172236,3.4827547,-4.1407995,3.786901,18.343552,-56.118637,-3.3061066,14.5462197479353,3.797970358229881,6.604272874320595,59.133050449994414
31/01/2020, 11:43:03,-1.334026,-2.7399025,10.473421,1.5357146,-0.05375612,-0.74159014,2.7138362,-0.18780923,0.40060997,-4.734665,-22.618881,-56.6472,10.907760561780307,1.7062429701409847,2.7496668048134856,61.17954136694624
31/01/2020, 11:43:03,-0.79035646,-2.3519094,10.265054,1.5357146,-0.05375612,-0.74159014,2.7138362,-0.18780923,0.40060997,-4.734665,-22.618881,-56.6472,10.560656685184952,1.7062429701409847,2.7496668048134856,61.17954136694624
31/01/2020, 11:43:03,-0.79035646,-2.3519094,10.265054,1.5357146,-0.05375612,-0.74159014,2.143721,-0.8479693,0.6035032,-4.734665,-22.618881,-56.6472,10.560656685184952,1.7062429701409847,2.383025018432055,61.17954136694624
31/01/2020, 11:43:03,-0.79035646,-2.3519094,10.265054,1.5357146,-0.05375612,-0.74159014,2.143721,-0.8479693,0.6035032,-4.302017,-24.731995,-55.226654,10.560656685184952,1.7062429701409847,2.383025018432055,60.66434066464627
31/01/2020, 11:43:03,-0.6346802,-1.7914747,9.848321,1.5357146,-0.05375612,-0.74159014,2.143721,-0.8479693,0.6035032,-4.302017,-24.731995,-55.226654,10.030036207432945,1.7062429701409847,2.383025018432055,60.66434066464627
31/01/2020, 11:43:03,-0.87178713,-1.2693604,9.481883,1.5357146,-0.05375612,-0.74159014,2.143721,-0.8479693,0.6035032,-4.302017,-24.731995,-55.226654,9.606112368711617,1.7062429701409847,2.383025018432055,60.66434066464627
31/01/2020, 11:43:03,-0.87178713,-1.2693604,9.481883,1.5357146,-0.05375612,-0.74159014,1.6815882,-0.59269834,1.4535608,-4.302017,-24.731995,-55.226654,9.606112368711617,1.7062429701409847,2.300406308553948,60.66434066464627
31/01/2020, 11:43:03,-0.87178713,-1.2693604,9.481883,1.5357146,-0.05375612,-0.74159014,1.6815882,-0.59269834,1.4535608,-4.008911,-26.568329,-54.62549,9.606112368711617,1.7062429701409847,2.300406308553948,60.876033352312675
31/01/2020, 11:43:03,-1.0873389,-0.7711963,9.208851,1.5357146,-0.05375612,-0.74159014,1.6815882,-0.59269834,1.4535608,-4.008911,-26.568329,-54.62549,9.304836583800498,1.7062429701409847,2.300406308553948,60.876033352312675
31/01/2020, 11:43:03,-1.2693604,-0.7592212,9.268726,1.5357146,-0.05375612,-0.74159014,1.6815882,-0.59269834,1.4535608,-4.008911,-26.568329,-54.62549,9.385999192349692,1.7062429701409847,2.300406308553948,60.876033352312675
31/01/2020, 11:43:03,-1.2693604,-0.7592212,9.268726,1.5357146,-0.05375612,-0.74159014,2.1302872,-0.20429492,1.153863,-4.008911,-26.568329,-54.62549,9.385999192349692,1.7062429701409847,2.4313081987839174,60.876033352312675
31/01/2020, 11:43:03,-1.2693604,-0.7592212,9.268726,1.5357146,-0.05375612,-0.74159014,2.1302872,-0.20429492,1.153863,-3.6218262,-28.304916,-53.766495,9.385999192349692,1.7062429701409847,2.4313081987839174,60.86971228787593
31/01/2020, 11:43:03,-1.2693604,-0.7592212,9.268726,1.941329,-0.03298671,-0.79168105,2.1302872,-0.20429492,1.153863,-3.6218262,-28.304916,-53.766495,9.385999192349692,2.096808361664871,2.4313081987839174,60.86971228787593
31/01/2020, 11:43:03,-1.4274317,-0.9915381,9.568104,1.941329,-0.03298671,-0.79168105,2.1302872,-0.20429492,1.153863,-3.6218262,-28.304916,-53.766495,9.724675790260342,2.096808361664871,2.4313081987839174,60.86971228787593
31/01/2020, 11:43:03,-1.9758912,-1.5615528,9.608819,1.941329,-0.03298671,-0.79168105,2.1302872,-0.20429492,1.153863,-3.6218262,-28.304916,-53.766495,9.933377870608343,2.096808361664871,2.4313081987839174,60.86971228787593
31/01/2020, 11:43:03,-1.9758912,-1.5615528,9.608819,1.941329,-0.03298671,-0.79168105,1.9742627,0.46186435,0.25968266,-3.6218262,-28.304916,-53.766495,9.933377870608343,2.096808361664871,2.044129894784983,60.86971228787593
31/01/2020, 11:43:03,-1.9758912,-1.5615528,9.608819,1.941329,-0.03298671,-0.79168105,1.9742627,0.46186435,0.25968266,-3.2501068,-29.767487,-53.044052,9.933377870608343,2.096808361664871,2.044129894784983,60.9125431816177
31/01/2020, 11:43:03,-2.6417067,-1.7627344,9.632769,1.941329,-0.03298671,-0.79168105,1.9742627,0.46186435,0.25968266,-3.2501068,-29.767487,-53.044052,10.142784549868349,2.096808361664871,2.044129894784983,60.9125431816177
31/01/2020, 11:43:03,-2.9506643,-1.5471827,9.572893,1.941329,-0.03298671,-0.79168105,1.9742627,0.46186435,0.25968266,-3.2501068,-29.767487,-53.044052,10.136097723900264,2.096808361664871,2.044129894784983,60.9125431816177
31/01/2020, 11:43:03,-2.9506643,-1.5471827,9.572893,1.941329,-0.03298671,-0.79168105,1.5217073,0.6074655,-0.031095505,-3.2501068,-29.767487,-53.044052,10.136097723900264,2.096808361664871,1.638772213195079,60.9125431816177
31/01/2020, 11:43:04,7.391031,-4.505032,11.148816,-2.5240943,-1.7751738,2.652376,2.35425,-2.8294656,3.5840147,19.643814,-54.531647,-10.536575,14.114487260453835,4.069077576403788,5.137463345500381,58.91179292997076
31/01/2020, 11:43:04,8.066426,-2.44771,11.908037,-2.5240943,-1.7751738,2.652376,2.35425,-2.8294656,3.5840147,19.643814,-54.531647,-10.536575,14.58971784944814,4.069077576403788,5.137463345500381,58.91179292997076
31/01/2020, 11:43:04,8.5598,-1.0633887,12.034974,-2.5240943,-1.7751738,2.652376,2.35425,-2.8294656,3.5840147,19.643814,-54.531647,-10.536575,14.806808422371654,4.069077576403788,5.137463345500381,58.91179292997076
31/01/2020, 11:43:04,8.5598,-1.0633887,12.034974,-2.5240943,-1.7751738,2.652376,2.8603363,-6.569266,5.998469,19.643814,-54.531647,-10.536575,14.806808422371654,4.069077576403788,9.344431835799714,58.91179292997076
31/01/2020, 11:43:04,8.5598,-1.0633887,12.034974,-2.5240943,-1.7751738,2.652376,2.8603363,-6.569266,5.998469,16.86441,-54.54596,-12.653961,14.806808422371654,4.069077576403788,9.344431835799714,58.47899423324523
31/01/2020, 11:43:04,8.935819,-1.9255958,12.444522,-2.5240943,-1.7751738,2.652376,2.8603363,-6.569266,5.998469,16.86441,-54.54596,-12.653961,15.440948798350233,4.069077576403788,9.344431835799714,58.47899423324523
31/01/2020, 11:43:04,7.2593045,-2.5818312,13.036092,-2.5240943,-1.7751738,2.652376,2.8603363,-6.569266,5.998469,16.86441,-54.54596,-12.653961,15.142755499974749,4.069077576403788,9.344431835799714,58.47899423324523
31/01/2020, 11:43:04,7.2593045,-2.5818312,13.036092,-2.5240943,-1.7751738,2.652376,0.61602974,-9.387643,7.406598,16.86441,-54.54596,-12.653961,15.142755499974749,4.069077576403788,11.973513536047795,58.47899423324523
31/01/2020, 11:43:04,7.2593045,-2.5818312,13.036092,-2.5240943,-1.7751738,2.652376,0.61602974,-9.387643,7.406598,14.062149,-54.608658,-15.975006,15.142755499974749,4.069077576403788,11.973513536047795,58.60930273088488
31/01/2020, 11:43:04,7.7790236,-2.8213332,13.251643,-2.5240943,-1.7751738,2.652376,0.61602974,-9.387643,7.406598,14.062149,-54.608658,-15.975006,15.623033532373388,4.069077576403788,11.973513536047795,58.60930273088488
31/01/2020, 11:43:04,7.079678,-2.0118165,15.26825,-2.5240943,-1.7751738,2.652376,0.61602974,-9.387643,7.406598,14.062149,-54.608658,-15.975006,16.94959348550642,4.069077576403788,11.973513536047795,58.60930273088488
31/01/2020, 11:43:04,7.079678,-2.0118165,15.26825,-2.5240943,-1.7751738,2.652376,1.6704874,-8.055947,7.0305266,14.062149,-54.608658,-15.975006,16.94959348550642,4.069077576403788,10.822066343157465,58.60930273088488
31/01/2020, 11:43:04,7.079678,-2.0118165,15.26825,-2.5240943,-1.7751738,2.652376,1.6704874,-8.055947,7.0305266,11.141113,-54.92154,-19.77478,16.94959348550642,4.069077576403788,10.822066343157465,59.42677695971109
31/01/2020, 11:43:04,6.2821364,-1.1567944,14.880257,-2.5240943,-1.7751738,2.652376,1.6704874,-8.055947,7.0305266,11.141113,-54.92154,-19.77478,16.193376721949342,4.069077576403788,10.822066343157465,59.42677695971109
31/01/2020, 11:43:04,6.1935205,-1.9567311,15.601158,-2.5240943,-1.7751738,2.652376,1.6704874,-8.055947,7.0305266,11.141113,-54.92154,-19.77478,16.899249351705084,4.069077576403788,10.822066343157465,59.42677695971109
31/01/2020, 11:43:04,6.1935205,-1.9567311,15.601158,-2.5240943,-1.7751738,2.652376,1.4945412,-6.264898,7.757098,11.141113,-54.92154,-19.77478,16.899249351705084,4.069077576403788,10.082418881039045,59.42677695971109
31/01/2020, 11:43:04,6.1935205,-1.9567311,15.601158,-2.5240943,-1.7751738,2.652376,1.4945412,-6.264898,7.757098,7.7600403,-54.07553,-22.689545,16.899249351705084,4.069077576403788,10.082418881039045,59.15400845627875
31/01/2020, 11:43:04,6.1935205,-1.9567311,15.601158,-3.4306178,-0.4520401,2.6890278,1.4945412,-6.264898,7.757098,7.7600403,-54.07553,-22.689545,16.899249351705084,4.382276719490953,10.082418881039045,59.15400845627875
31/01/2020, 11:43:04,6.325247,-2.44771,16.238234,-3.4306178,-0.4520401,2.6890278,1.4945412,-6.264898,7.757098,7.7600403,-54.07553,-22.689545,17.59773454165416,4.382276719490953,10.082418881039045,59.15400845627875
31/01/2020, 11:43:04,5.7815776,-2.8213332,15.828685,-3.4306178,-0.4520401,2.6890278,1.4945412,-6.264898,7.757098,7.7600403,-54.07553,-22.689545,17.08607102190369,4.382276719490953,10.082418881039045,59.15400845627875
31/01/2020, 11:43:05,0.29937744,-2.4908204,10.741663,1.0384705,0.12705992,-0.59131736,3.6320102,-1.1673816,1.5269842,0.52368164,-29.755295,-50.14093,11.03073600054853,1.2017576427777301,4.109252845040057,58.307501146735675
31/01/2020, 11:43:05,0.29937744,-2.4908204,10.741663,2.2345443,-0.29077175,-0.75991607,3.6320102,-1.1673816,1.5269842,0.52368164,-29.755295,-50.14093,11.03073600054853,2.3780682849547827,4.109252845040057,58.307501146735675
