DATE,TIME,ax,ay,az,gx,gy,gz,lx,ly,lz,mx,my,mz,ma,mg,ml,mm
31/01/2020, 10:55:34,-0.0071850587,2.4812403,9.7740755,3.82178E-4,0.03076567,-0.01416581,0.09879402,-0.02178049,0.17593288,-47.961365,-3.1186676,-52.518578,10.084104172083844,0.033872446865042836,0.2029458747054321,71.1914291645846
31/01/2020, 10:55:35,-0.1101709,2.4764502,9.642349,3.82178E-4,0.03076567,-0.01416581,0.09879402,-0.02178049,0.17593288,-47.961365,-3.1186676,-52.518578,9.955894845348272,0.033872446865042836,0.2029458747054321,71.1914291645846
31/01/2020, 10:55:35,-0.08861572,2.3926246,9.64714,3.82178E-4,0.03076567,-0.01416581,0.09879402,-0.02178049,0.17593288,-47.961365,-3.1186676,-52.518578,9.9398091925968,0.033872446865042836,0.2029458747054321,71.1914291645846
31/01/2020, 10:55:35,-0.08861572,2.3926246,9.64714,3.82178E-4,0.03076567,-0.01416581,0.09879402,-0.02178049,0.17593288,-48.056396,-3.1159668,-52.40766,9.9398091925968,0.033872446865042836,0.2029458747054321,71.17365713198586
31/01/2020, 10:55:35,-0.011975098,2.3303542,9.707015,3.82178E-4,0.03076567,-0.01416581,0.09879402,-0.02178049,0.17593288,-48.056396,-3.1159668,-52.40766,9.982827009586073,0.033872446865042836,0.2029458747054321,71.17365713198586
31/01/2020, 10:55:35,0.09101075,2.2585034,9.831555,3.82178E-4,0.03076567,-0.01416581,0.09879402,-0.02178049,0.17593288,-48.056396,-3.1159668,-52.40766,10.088042508658397,0.033872446865042836,0.2029458747054321,71.17365713198586
31/01/2020, 10:55:35,0.09101075,2.2585034,9.831555,3.82178E-4,0.03076567,-0.01416581,0.09601021,0.06504154,0.22069645,-48.056396,-3.1159668,-52.40766,10.088042508658397,0.033872446865042836,0.24930961670683568,71.17365713198586
31/01/2020, 10:55:35,0.09101075,2.2585034,9.831555,3.82178E-4,0.03076567,-0.01416581,0.09601021,0.06504154,0.22069645,-47.83133,-3.445633,-52.528923,10.088042508658397,0.033872446865042836,0.24930961670683568,71.12662095501928
31/01/2020, 10:55:35,0.09101075,2.2585034,9.831555,3.82178E-4,0.03076567,-0.01416581,-0.015531287,0.11688733,0.12520885,-47.83133,-3.445633,-52.528923,10.088042508658397,0.033872446865042836,0.17199164602634445,71.12662095501928
31/01/2020, 10:55:35,0.122146,2.2776637,9.85311,3.82178E-4,0.03076567,-0.01416581,-0.015531287,0.11688733,0.12520885,-47.83133,-3.445633,-52.528923,10.113676604474577,0.033872446865042836,0.17199164602634445,71.12662095501928
31/01/2020, 10:55:35,0.06466553,2.42376,9.769285,3.82178E-4,0.03076567,-0.01416581,-0.015531287,0.11688733,0.12520885,-47.83133,-3.445633,-52.528923,10.065670728936144,0.033872446865042836,0.17199164602634445,71.12662095501928
31/01/2020, 10:55:35,0.06466553,2.42376,9.769285,3.82178E-4,0.03076567,-0.01416581,-0.015531287,0.11688733,0.12520885,-47.87024,-3.1220245,-52.86045,10.065670728936144,0.033872446865042836,0.17199164602634445,71.38300986039863
31/01/2020, 10:55:35,0.06466553,2.42376,9.769285,0.06513387,0.03320913,-0.036156952,-0.015531287,0.11688733,0.12520885,-47.87024,-3.1220245,-52.86045,10.065670728936144,0.08156342628485022,0.17199164602634445,71.38300986039863
31/01/2020, 10:55:35,0.06466553,2.42376,9.769285,0.06513387,0.03320913,-0.036156952,0.08878457,-0.037540197,0.1919918,-47.87024,-3.1220245,-52.86045,10.065670728936144,0.08156342628485022,0.2148320728349531,71.38300986039863
31/01/2020, 10:55:35,-0.028740235,2.4453151,9.690249,0.06513387,0.03320913,-0.036156952,0.08878457,-0.037540197,0.1919918,-47.87024,-3.1220245,-52.86045,9.994064554451253,0.08156342628485022,0.2148320728349531,71.38300986039863
31/01/2020, 10:55:35,-0.083825685,2.3614893,9.601634,0.06513387,0.03320913,-0.036156952,0.08878457,-0.037540197,0.1919918,-47.87024,-3.1220245,-52.86045,9.888125929692954,0.08156342628485022,0.2148320728349531,71.38300986039863
31/01/2020, 10:55:35,-0.083825685,2.3614893,9.601634,0.06513387,0.03320913,-0.036156952,0.08878457,-0.037540197,0.1919918,-48.062225,-3.116928,-52.754112,9.888125929692954,0.08156342628485022,0.2148320728349531,71.43310929958008
31/01/2020, 10:55:35,-0.086220704,2.2944288,9.673484,0.06513387,0.03320913,-0.036156952,0.08878457,-0.037540197,0.1919918,-48.062225,-3.116928,-52.754112,9.94223955721788,0.08156342628485022,0.2148320728349531,71.43310929958008
31/01/2020, 10:55:35,-0.098195806,2.2704787,9.70941,0.06513387,0.03320913,-0.036156952,0.08878457,-0.037540197,0.1919918,-48.062225,-3.116928,-52.754112,9.97182796925208,0.08156342628485022,0.2148320728349531,71.43310929958008
31/01/2020, 10:55:35,-0.098195806,2.2704787,9.70941,0.06513387,0.03320913,-0.036156952,0.22631633,-0.099377155,0.34032917,-48.062225,-3.116928,-52.754112,9.97182796925208,0.08156342628485022,0.4206172198133471,71.43310929958008
31/01/2020, 10:55:35,-0.098195806,2.2704787,9.70941,0.06513387,0.03320913,-0.036156952,0.22631633,-0.099377155,0.34032917,-47.684082,-3.1280518,-53.31324,9.97182796925208,0.08156342628485022,0.4206172198133471,71.5950972604048
31/01/2020, 10:55:36,-0.6179151,3.2165112,9.843531,0.026038509,0.14927348,-0.036156952,0.62208474,-0.028812885,0.53146935,-45.73535,-4.029892,-55.10701,10.374143792901561,0.15578158574419287,0.8187058488377768,71.72687746291444
31/01/2020, 10:55:36,-0.6825806,3.1997461,9.874666,0.026038509,0.14927348,-0.036156952,0.62208474,-0.028812885,0.53146935,-45.73535,-4.029892,-55.10701,10.402563357580382,0.15578158574419287,0.8187058488377768,71.72687746291444
31/01/2020, 10:55:36,-0.82388675,3.0057497,9.905801,0.026038509,0.14927348,-0.036156952,0.62208474,-0.028812885,0.53146935,-45.73535,-4.029892,-55.10701,10.384517828368283,0.15578158574419287,0.8187058488377768,71.72687746291444
31/01/2020, 10:55:36,-0.82388675,3.0057497,9.905801,0.026038509,0.14927348,-0.036156952,0.62208474,-0.028812885,0.53146935,-45.58867,-4.250183,-56.14353,10.384517828368283,0.15578158574419287,0.8187058488377768,72.44644190300941
31/01/2020, 10:55:36,-0.82388675,3.0057497,9.905801,-0.13645159,0.04053951,0.05302934,0.62208474,-0.028812885,0.53146935,-45.58867,-4.250183,-56.14353,10.384517828368283,0.15190325344715722,0.8187058488377768,72.44644190300941
31/01/2020, 10:55:36,-0.82388675,3.0057497,9.905801,-0.13645159,0.04053951,0.05302934,0.35209918,0.43664718,0.48370647,-45.58867,-4.250183,-56.14353,10.384517828368283,0.15190325344715722,0.7406797843560567,72.44644190300941
31/01/2020, 10:55:36,-0.8765772,2.668052,10.044712,-0.13645159,0.04053951,0.05302934,0.35209918,0.43664718,0.48370647,-45.58867,-4.250183,-56.14353,10.429915116523622,0.15190325344715722,0.7406797843560567,72.44644190300941
31/01/2020, 10:55:36,-0.83586186,2.42376,10.066268,-0.13645159,0.04053951,0.05302934,0.35209918,0.43664718,0.48370647,-45.58867,-4.250183,-56.14353,10.387638233660775,0.15190325344715722,0.7406797843560567,72.44644190300941
31/01/2020, 10:55:36,-0.83586186,2.42376,10.066268,-0.13645159,0.04053951,0.05302934,0.35209918,0.43664718,0.48370647,-45.74315,-3.9239655,-55.313583,10.387638233660775,0.15190325344715722,0.7406797843560567,71.88480836058802
31/01/2020, 10:55:36,-0.83586186,2.318379,9.865086,-0.13645159,0.04053951,0.05302934,0.35209918,0.43664718,0.48370647,-45.74315,-3.9239655,-55.313583,10.168257462525771,0.15190325344715722,0.7406797843560567,71.88480836058802
31/01/2020, 10:55:36,-0.6682105,2.2393434,9.673484,-0.13645159,0.04053951,0.05302934,0.35209918,0.43664718,0.48370647,-45.74315,-3.9239655,-55.313583,9.951756324085775,0.15190325344715722,0.7406797843560567,71.88480836058802
31/01/2020, 10:55:36,-0.6682105,2.2393434,9.673484,-0.13645159,0.04053951,0.05302934,0.034563422,0.57777715,0.4529686,-45.74315,-3.9239655,-55.313583,9.951756324085775,0.15190325344715722,0.7349840898482244,71.88480836058802
31/01/2020, 10:55:36,-0.6682105,2.2393434,9.673484,-0.13645159,0.04053951,0.05302934,0.034563422,0.57777715,0.4529686,-45.455627,-4.3689575,-56.24424,9.951756324085775,0.15190325344715722,0.7349840898482244,72.44802528282753
31/01/2020, 10:55:36,-0.6682105,2.2393434,9.673484,-0.13645159,0.04053951,0.05302934,-0.15908092,0.061062098,0.6188669,-45.455627,-4.3689575,-56.24424,9.951756324085775,0.15190325344715722,0.6418968647275417,72.44802528282753
31/01/2020, 10:55:36,-0.4766089,2.3662794,9.445957,-0.13645159,0.04053951,0.05302934,-0.15908092,0.061062098,0.6188669,-45.455627,-4.3689575,-56.24424,9.749489278486426,0.15190325344715722,0.6418968647275417,72.44802528282753
31/01/2020, 10:55:36,-0.4047583,2.4908204,9.422008,-0.13645159,0.04053951,0.05302934,-0.15908092,0.061062098,0.6188669,-45.455627,-4.3689575,-56.24424,9.754088479383821,0.15190325344715722,0.6418968647275417,72.44802528282753
31/01/2020, 10:55:36,-0.4047583,2.4908204,9.422008,-0.13645159,0.04053951,0.05302934,-0.15908092,0.061062098,0.6188669,-45.500626,-4.570816,-55.559868,9.754088479383821,0.15190325344715722,0.6418968647275417,71.95900365278978
31/01/2020, 10:55:36,-0.62031007,2.6369166,9.366921,-0.13645159,0.04053951,0.05302934,-0.15908092,0.061062098,0.6188669,-45.500626,-4.570816,-55.559868,9.750760529976029,0.15190325344715722,0.6418968647275417,71.95900365278978
31/01/2020, 10:55:36,-0.6993457,2.7686427,9.445957,-0.13645159,0.04053951,0.05302934,-0.15908092,0.061062098,0.6188669,-45.500626,-4.570816,-55.559868,9.868159592280781,0.15190325344715722,0.6418968647275417,71.95900365278978
31/01/2020, 10:55:36,-0.6993457,2.7686427,9.445957,-0.13645159,0.04053951,0.05302934,-0.11500567,-0.29080796,0.44026375,-45.500626,-4.570816,-55.559868,9.868159592280781,0.15190325344715722,0.5400256878560101,71.95900365278978
31/01/2020, 10:55:37,0.17244141,1.8058448,9.517808,-0.6300305,-0.047425054,0.4830783,0.18159637,0.24181998,0.009026527,-46.12393,6.3596954,-54.404167,9.68914236635393,0.7953315206070218,0.3025485430670449,71.60779444004834
31/01/2020, 10:55:37,0.14130616,1.9040406,9.412427,-0.6300305,-0.047425054,0.4830783,0.18159637,0.24181998,0.009026527,-46.12393,6.3596954,-54.404167,9.604119897443853,0.7953315206070218,0.3025485430670449,71.60779444004834
31/01/2020, 10:55:37,0.14130616,1.9040406,9.412427,-0.6300305,-0.047425054,0.4830783,0.38815543,-0.1781677,0.023664474,-46.12393,6.3596954,-54.404167,9.604119897443853,0.7953315206070218,0.4277480277209329,71.60779444004834
31/01/2020, 10:55:37,0.14130616,1.9040406,9.412427,-0.6300305,-0.047425054,0.4830783,0.38815543,-0.1781677,0.023664474,-45.862045,7.109848,-54.44467,9.604119897443853,0.7953315206070218,0.4277480277209329,71.54089324226418
31/01/2020, 10:55:37,0.10538086,1.8992506,9.237591,-0.6300305,-0.047425054,0.4830783,0.38815543,-0.1781677,0.023664474,-45.862045,7.109848,-54.44467,9.431401893063628,0.7953315206070218,0.4277480277209329,71.54089324226418
31/01/2020, 10:55:37,-0.11256592,1.6765138,9.263936,-0.6300305,-0.047425054,0.4830783,0.38815543,-0.1781677,0.023664474,-45.862045,7.109848,-54.44467,9.415087922202822,0.7953315206070218,0.4277480277209329,71.54089324226418
31/01/2020, 10:55:37,-0.11256592,1.6765138,9.263936,-0.6300305,-0.047425054,0.4830783,0.22232783,0.26299858,-0.16622639,-45.862045,7.109848,-54.44467,9.415087922202822,0.7953315206070218,0.3823991744236625,71.54089324226418
31/01/2020, 10:55:37,-0.11256592,1.6765138,9.263936,-0.6300305,-0.047425054,0.4830783,0.22232783,0.26299858,-0.16622639,-46.007965,7.282074,-53.25544,9.415087922202822,0.7953315206070218,0.3823991744236625,70.75240855794415
31/01/2020, 10:55:37,-0.11256592,1.6765138,9.263936,-1.0796272,-0.013216613,0.66267264,0.22232783,0.26299858,-0.16622639,-46.007965,7.282074,-53.25544,9.415087922202822,1.2668482552073959,0.3823991744236625,70.75240855794415
31/01/2020, 10:55:37,-0.11256592,1.6765138,9.263936,-1.0796272,-0.013216613,0.66267264,0.12724707,0.65643394,-0.31338692,-46.007965,7.282074,-53.25544,9.415087922202822,1.2668482552073959,0.7384501966580249,70.75240855794415
31/01/2020, 10:55:37,-0.05508545,1.7292042,9.237591,-1.0796272,-0.013216613,0.66267264,0.12724707,0.65643394,-0.31338692,-46.007965,7.282074,-53.25544,9.398205418869452,1.2668482552073959,0.7384501966580249,70.75240855794415
31/01/2020, 10:55:37,0.21076173,1.7387843,9.496253,-1.0796272,-0.013216613,0.66267264,0.12724707,0.65643394,-0.31338692,-46.007965,7.282074,-53.25544,9.656428568133013,1.2668482552073959,0.7384501966580249,70.75240855794415
31/01/2020, 10:55:37,0.21076173,1.7387843,9.496253,-1.0796272,-0.013216613,0.66267264,0.12724707,0.65643394,-0.31338692,-45.914276,8.219788,-53.77192,9.656428568133013,1.2668482552073959,0.7384501966580249,71.18360035805303
31/01/2020, 10:55:37,0.5412744,1.0035132,9.601634,-1.0796272,-0.013216613,0.66267264,0.12724707,0.65643394,-0.31338692,-45.914276,8.219788,-53.77192,9.669094722077041,1.2668482552073959,0.7384501966580249,71.18360035805303
31/01/2020, 10:55:37,0.95561284,0.4167334,9.812395,-1.0796272,-0.013216613,0.66267264,0.12724707,0.65643394,-0.31338692,-45.914276,8.219788,-53.77192,9.867621808294397,1.2668482552073959,0.7384501966580249,71.18360035805303
31/01/2020, 10:55:37,0.95561284,0.4167334,9.812395,-1.0796272,-0.013216613,0.66267264,-0.14159264,0.62112796,-0.48446655,-45.914276,8.219788,-53.77192,9.867621808294397,1.2668482552073959,0.8003475882326938,71.18360035805303
31/01/2020, 10:55:37,0.95561284,0.4167334,9.812395,-1.0796272,-0.013216613,0.66267264,-0.14159264,0.62112796,-0.48446655,-45.53032,9.86293,-53.463593,9.867621808294397,1.2668482552073959,0.8003475882326938,70.91292609895329
31/01/2020, 10:55:37,0.95561284,0.4167334,9.812395,-1.0796272,-0.013216613,0.66267264,0.14691553,0.88494754,-0.2718315,-45.53032,9.86293,-53.463593,9.867621808294397,1.2668482552073959,0.9373412870364642,70.91292609895329
31/01/2020, 10:55:37,1.0514137,0.18681154,10.145303,-1.0796272,-0.013216613,0.66267264,0.14691553,0.88494754,-0.2718315,-45.53032,9.86293,-53.463593,10.201349791612966,1.2668482552073959,0.9373412870364642,70.91292609895329
31/01/2020, 10:55:37,0.90771246,0.23231691,9.740545,-1.0796272,-0.013216613,0.66267264,0.14691553,0.88494754,-0.2718315,-45.53032,9.86293,-53.463593,9.785506387943471,1.2668482552073959,0.9373412870364642,70.91292609895329
31/01/2020, 10:55:38,-1.1855347,-8.849598,4.0882983,-3.0967033,-0.37729216,-0.5346228,-0.5946946,0.697062,-0.061819077,-20.176712,55.448463,1.8428345,9.820135399288795,3.1650817002357314,0.9183565408556246,59.034124414046794
31/01/2020, 10:55:38,-0.974773,-8.914263,3.8176613,-3.0967033,-0.37729216,-0.5346228,-0.5946946,0.697062,-0.061819077,-20.176712,55.448463,1.8428345,9.746219822723042,3.1650817002357314,0.9183565408556246,59.034124414046794
31/01/2020, 10:55:38,-0.91729254,-8.998089,3.5063088,-3.0967033,-0.37729216,-0.5346228,-0.5946946,0.697062,-0.061819077,-20.176712,55.448463,1.8428345,9.700578831542138,3.1650817002357314,0.9183565408556246,59.034124414046794
31/01/2020, 10:55:38,-0.91729254,-8.998089,3.5063088,-3.0967033,-0.37729216,-0.5346228,-0.5946946,0.697062,-0.061819077,-20.870773,55.09855,4.5571136,9.700578831542138,3.1650817002357314,0.9183565408556246,59.09489447719742
31/01/2020, 10:55:38,-0.84544194,-8.878338,3.2548318,-3.0967033,-0.37729216,-0.5346228,-0.5946946,0.697062,-0.061819077,-20.870773,55.09855,4.5571136,9.493870928921474,3.1650817002357314,0.9183565408556246,59.09489447719742
31/01/2020, 10:55:38,-0.66342044,-8.667576,2.8955786,-3.0967033,-0.37729216,-0.5346228,-0.5946946,0.697062,-0.061819077,-20.870773,55.09855,4.5571136,9.162498191839031,3.1650817002357314,0.9183565408556246,59.09489447719742
31/01/2020, 10:55:38,-0.66342044,-8.667576,2.8955786,-3.0967033,-0.37729216,-0.5346228,-0.38725305,0.19297123,0.18419218,-20.870773,55.09855,4.5571136,9.162498191839031,3.1650817002357314,0.4702441669024748,59.09489447719742
31/01/2020, 10:55:38,-0.66342044,-8.667576,2.8955786,-3.0967033,-0.37729216,-0.5346228,-0.38725305,0.19297123,0.18419218,-21.218445,54.78559,7.3513336,9.162498191839031,3.1650817002357314,0.4702441669024748,59.20916737882019
31/01/2020, 10:55:38,-0.52690434,-8.404124,2.6273365,-3.0967033,-0.37729216,-0.5346228,-0.38725305,0.19297123,0.18419218,-21.218445,54.78559,7.3513336,8.820988031967302,3.1650817002357314,0.4702441669024748,59.20916737882019
31/01/2020, 10:55:38,-0.4766089,-8.243657,2.4668703,-3.0967033,-0.37729216,-0.5346228,-0.38725305,0.19297123,0.18419218,-21.218445,54.78559,7.3513336,8.618032707295397,3.1650817002357314,0.4702441669024748,59.20916737882019
31/01/2020, 10:55:38,-0.4766089,-8.243657,2.4668703,-3.0967033,-0.37729216,-0.5346228,0.019153833,0.16044235,0.23829794,-21.218445,54.78559,7.3513336,8.618032707295397,3.1650817002357314,0.287914094164066,59.20916737882019
31/01/2020, 10:55:38,-0.4766089,-8.243657,2.4668703,-3.0967033,-0.37729216,-0.5346228,0.019153833,0.16044235,0.23829794,-21.735199,54.22805,9.895897,8.618032707295397,3.1650817002357314,0.287914094164066,59.25393727093927
31/01/2020, 10:55:38,-0.4766089,-8.243657,2.4668703,-2.8890092,-0.23434976,-0.46254072,0.019153833,0.16044235,0.23829794,-21.735199,54.22805,9.895897,8.618032707295397,2.9351725836564007,0.287914094164066,59.25393727093927
31/01/2020, 10:55:38,-0.48139894,-8.375383,2.3782544,-2.8890092,-0.23434976,-0.46254072,0.019153833,0.16044235,0.23829794,-21.735199,54.22805,9.895897,8.719798490122017,2.9351725836564007,0.287914094164066,59.25393727093927
31/01/2020, 10:55:38,-0.48139894,-8.715476,2.320774,-2.8890092,-0.23434976,-0.46254072,0.019153833,0.16044235,0.23829794,-21.735199,54.22805,9.895897,9.032013053449814,2.9351725836564007,0.287914094164066,59.25393727093927
31/01/2020, 10:55:38,-0.48139894,-8.715476,2.320774,-2.8890092,-0.23434976,-0.46254072,0.043433964,0.38502312,0.16497326,-21.735199,54.22805,9.895897,9.032013053449814,2.9351725836564007,0.4211240744737382,59.25393727093927
31/01/2020, 10:55:38,-0.48139894,-8.715476,2.320774,-2.8890092,-0.23434976,-0.46254072,0.043433964,0.38502312,0.16497326,-22.1044,53.37481,14.381241,9.032013053449814,2.9351725836564007,0.4211240744737382,59.53398088273606
31/01/2020, 10:55:38,-0.46702883,-9.125025,2.2441335,-2.8890092,-0.23434976,-0.46254072,0.043433964,0.38502312,0.16497326,-22.1044,53.37481,14.381241,9.408524245915196,2.9351725836564007,0.4211240744737382,59.53398088273606
31/01/2020, 10:55:38,-0.49576905,-9.290281,1.9854712,-2.8890092,-0.23434976,-0.46254072,0.043433964,0.38502312,0.16497326,-22.1044,53.37481,14.381241,9.513002133311005,2.9351725836564007,0.4211240744737382,59.53398088273606
31/01/2020, 10:55:38,-0.49576905,-9.290281,1.9854712,-2.8890092,-0.23434976,-0.46254072,0.26171315,1.0249014,0.056126356,-22.1044,53.37481,14.381241,9.513002133311005,2.9351725836564007,1.0592765449253996,59.53398088273606
31/01/2020, 10:55:39,-0.62510014,-4.014053,-8.983719,-0.46143177,0.03565259,-0.114347674,-0.22849879,-0.9027643,0.3097992,-19.848083,-22.933914,51.70011,9.859542351366246,0.4767240054892073,0.9814125811647754,59.940073039200676
31/01/2020, 10:55:39,-0.62510014,-4.014053,-8.983719,-0.46143177,0.03565259,-0.114347674,-0.22849879,-0.9027643,0.3097992,-19.727005,-22.819,51.558105,9.859542351366246,0.4767240054892073,0.9814125811647754,59.73357295634935
31/01/2020, 10:55:39,-0.62510014,-4.014053,-8.983719,-0.46143177,0.03565259,-0.114347674,-1.0531566,-1.3831244,0.4526186,-19.727005,-22.819,51.558105,9.859542351366246,0.4767240054892073,1.796395118583975,59.73357295634935
31/01/2020, 10:55:39,-0.62510014,-4.014053,-8.983719,-0.46143177,0.03565259,-0.114347674,-1.0531566,-1.3831244,0.4526186,-19.374191,-24.531982,52.216187,9.859542351366246,0.4767240054892073,1.796395118583975,60.8580938291168
31/01/2020, 10:55:39,-0.62510014,-4.014053,-8.983719,-0.46143177,0.03565259,-0.114347674,-0.08488253,-1.1984067,-0.1868906,-19.374191,-24.531982,52.216187,9.859542351366246,0.4767240054892073,1.215858441773285,60.8580938291168
31/01/2020, 10:55:39,-0.62510014,-4.014053,-8.983719,-0.46143177,0.03565259,-0.114347674,-0.08488253,-1.1984067,-0.1868906,-19.098785,-24.768295,50.835693,9.859542351366246,0.4767240054892073,1.215858441773285,59.68668004317544
31/01/2020, 10:55:39,-0.62510014,-4.014053,-8.983719,0.25083685,0.07596967,-0.14611265,-0.08488253,-1.1984067,-0.1868906,-19.098785,-24.768295,50.835693,9.859542351366246,0.3000656976712532,1.215858441773285,59.68668004317544
31/01/2020, 10:55:39,-0.82388675,-2.5027955,-10.066268,0.25083685,0.07596967,-0.14611265,-0.08488253,-1.1984067,-0.1868906,-19.098785,-24.768295,50.835693,10.405408462529465,0.3000656976712532,1.215858441773285,59.68668004317544
31/01/2020, 10:55:39,-0.82388675,-2.5027955,-10.066268,0.25083685,0.07596967,-0.14611265,0.4079616,-0.5861776,-0.07715511,-19.098785,-24.768295,50.835693,10.405408462529465,0.3000656976712532,0.7183242640780468,59.68668004317544
31/01/2020, 10:55:39,-0.82388675,-2.5027955,-10.066268,0.25083685,0.07596967,-0.14611265,0.4079616,-0.5861776,-0.07715511,-19.310806,-24.774567,51.856384,10.405408462529465,0.3000656976712532,0.7183242640780468,60.628136883811145
31/01/2020, 10:55:39,-0.82388675,-2.5027955,-10.066268,0.25083685,0.07596967,-0.14611265,-1.3860247,0.21930408,-0.82738304,-19.310806,-24.774567,51.856384,10.405408462529465,0.3000656976712532,1.6290247036936738,60.628136883811145
31/01/2020, 10:55:39,-0.82388675,-2.5027955,-10.066268,0.25083685,0.07596967,-0.14611265,-1.3860247,0.21930408,-0.82738304,-18.948807,-24.88095,51.388725,10.405408462529465,0.3000656976712532,1.6290247036936738,60.15746074079168
31/01/2020, 10:55:39,-0.82388675,-2.5027955,-10.066268,0.25083685,0.07596967,-0.14611265,-1.2433289,0.35405016,-0.69508934,-18.948807,-24.88095,51.388725,10.405408462529465,0.3000656976712532,1.4677763902722978,60.15746074079168
31/01/2020, 10:55:39,-0.82388675,-2.5027955,-10.066268,0.25083685,0.07596967,-0.14611265,-1.2433289,0.35405016,-0.69508934,-19.00148,-24.228043,51.425514,10.405408462529465,0.3000656976712532,1.4677763902722978,59.938616995653106
31/01/2020, 10:55:39,-0.82388675,-2.5027955,-10.066268,0.25083685,0.07596967,-0.14611265,-1.144555,-0.654526,-0.19976902,-19.00148,-24.228043,51.425514,10.405408462529465,0.3000656976712532,1.333535910751019,59.938616995653106
31/01/2020, 10:55:39,-0.82388675,-2.5027955,-10.066268,0.25083685,0.07596967,-0.14611265,-1.144555,-0.654526,-0.19976902,-18.781174,-24.343292,52.237404,10.405408462529465,0.3000656976712532,1.333535910751019,60.61414625084638
31/01/2020, 10:55:39,-0.82388675,-2.5027955,-10.066268,1.2612076,-0.10973329,0.0554728,-1.144555,-0.654526,-0.19976902,-18.781174,-24.343292,52.237404,10.405408462529465,1.2671871163387474,1.333535910751019,60.61414625084638
31/01/2020, 10:55:39,1.2454102,-1.9303858,-10.111773,1.2612076,-0.10973329,0.0554728,-1.144555,-0.654526,-0.19976902,-18.781174,-24.343292,52.237404,10.369444530242868,1.2671871163387474,1.333535910751019,60.61414625084638
31/01/2020, 10:55:39,1.2454102,-1.9303858,-10.111773,1.2612076,-0.10973329,0.0554728,1.840773,-1.6080697,-0.7403374,-18.781174,-24.343292,52.237404,10.369444530242868,1.2671871163387474,2.5539053697241214,60.61414625084638
31/01/2020, 10:55:39,1.2454102,-1.9303858,-10.111773,1.2612076,-0.10973329,0.0554728,1.840773,-1.6080697,-0.7403374,-18.852966,-24.103683,52.202095,10.369444530242868,1.2671871163387474,2.5539053697241214,60.51016956874712
31/01/2020, 10:55:40,0.34967285,-5.4989653,-8.341853,-0.010613392,-0.022990452,-0.0031702397,0.19355443,1.1117492,-1.3428402,-19.176712,-11.90094,56.135437,9.997369849695646,0.02551970613010831,1.7540437076241948,60.50261105524589
31/01/2020, 10:55:40,0.7807764,-5.4462748,-8.361013,-0.010613392,-0.022990452,-0.0031702397,0.19355443,1.1117492,-1.3428402,-19.176712,-11.90094,56.135437,10.008899328818586,0.02551970613010831,1.7540437076241948,60.50261105524589
31/01/2020, 10:55:40,0.7807764,-5.4462748,-8.361013,-0.010613392,-0.022990452,-0.0031702397,-0.4677787,2.1213167,-1.6578875,-19.176712,-11.90094,56.135437,10.008899328818586,0.02551970613010831,2.732652954578669,60.50261105524589
31/01/2020, 10:55:40,0.7807764,-5.4462748,-8.361013,-0.010613392,-0.022990452,-0.0031702397,-0.4677787,2.1213167,-1.6578875,-19.734344,-10.324631,56.968582,10.008899328818586,0.02551970613010831,2.732652954578669,61.16748895101218
31/01/2020, 10:55:40,0.6586304,-5.2043777,-8.974138,-0.010613392,-0.022990452,-0.0031702397,-0.4677787,2.1213167,-1.6578875,-19.734344,-10.324631,56.968582,10.394926561057044,0.02551970613010831,2.732652954578669,61.16748895101218
31/01/2020, 10:55:40,0.9029224,-5.2905984,-7.9897857,-0.010613392,-0.022990452,-0.0031702397,-0.4677787,2.1213167,-1.6578875,-19.734344,-10.324631,56.968582,9.62509092261568,0.02551970613010831,2.732652954578669,61.16748895101218
31/01/2020, 10:55:40,0.9029224,-5.2905984,-7.9897857,-0.010613392,-0.022990452,-0.0031702397,0.27392864,1.1073747,-0.13962555,-19.734344,-10.324631,56.968582,9.62509092261568,0.02551970613010831,1.1492653525954104,61.16748895101218
31/01/2020, 10:55:40,0.9029224,-5.2905984,-7.9897857,-0.010613392,-0.022990452,-0.0031702397,0.27392864,1.1073747,-0.13962555,-19.977112,-7.546295,57.879593,9.62509092261568,0.02551970613010831,1.1492653525954104,61.69342623819451
31/01/2020, 10:55:40,0.9029224,-5.2905984,-7.9897857,-0.010613392,-0.022990452,-0.0031702397,0.040290803,0.113156796,-0.3068514,-19.977112,-7.546295,57.879593,9.62509092261568,0.02551970613010831,0.3295232660531267,61.69342623819451
31/01/2020, 10:55:40,-0.2706372,-4.864285,-8.6627865,-0.010613392,-0.022990452,-0.0031702397,0.040290803,0.113156796,-0.3068514,-19.977112,-7.546295,57.879593,9.938731440707818,0.02551970613010831,0.3295232660531267,61.69342623819451
31/01/2020, 10:55:40,0.4382886,-6.023474,-7.5083866,-0.010613392,-0.022990452,-0.0031702397,0.040290803,0.113156796,-0.3068514,-19.977112,-7.546295,57.879593,9.635881280243364,0.02551970613010831,0.3295232660531267,61.69342623819451
31/01/2020, 10:55:40,0.4382886,-6.023474,-7.5083866,-0.010613392,-0.022990452,-0.0031702397,0.040290803,0.113156796,-0.3068514,-20.185394,-7.433563,57.64524,9.635881280243364,0.02551970613010831,0.3295232660531267,61.5278944046214
31/01/2020, 10:55:40,0.4382886,-6.023474,-7.5083866,-0.010613392,-0.022990452,-0.0031702397,0.3337233,0.3517313,-0.90065765,-20.185394,-7.433563,57.64524,9.635881280243364,0.02551970613010831,1.0228735808583855,61.5278944046214
31/01/2020, 10:55:40,-3.0296998,-10.643467,-5.384004,-0.010613392,-0.022990452,-0.0031702397,0.3337233,0.3517313,-0.90065765,-20.185394,-7.433563,57.64524,12.306501124149657,0.02551970613010831,1.0228735808583855,61.5278944046214
31/01/2020, 10:55:40,1.0466236,-5.9300685,-4.2080493,-0.010613392,-0.022990452,-0.0031702397,0.3337233,0.3517313,-0.90065765,-20.185394,-7.433563,57.64524,7.346346857675624,0.02551970613010831,1.0228735808583855,61.5278944046214
31/01/2020, 10:55:40,1.0466236,-5.9300685,-4.2080493,-0.010613392,-0.022990452,-0.0031702397,0.3337233,0.3517313,-0.90065765,-19.672394,-6.5810394,58.055443,7.346346857675624,0.02551970613010831,1.0228735808583855,61.65020354881566
31/01/2020, 10:55:40,1.0466236,-5.9300685,-4.2080493,1.128039,-0.522678,-0.07769577,0.3337233,0.3517313,-0.90065765,-19.672394,-6.5810394,58.055443,7.346346857675624,1.2456728840555888,1.0228735808583855,61.65020354881566
31/01/2020, 10:55:40,0.4143384,-7.1251836,-6.1815457,1.128039,-0.522678,-0.07769577,0.3337233,0.3517313,-0.90065765,-19.672394,-6.5810394,58.055443,9.442003233743765,1.2456728840555888,1.0228735808583855,61.65020354881566
31/01/2020, 10:55:40,1.1448194,-4.4667115,-8.226892,1.128039,-0.522678,-0.07769577,0.3337233,0.3517313,-0.90065765,-19.672394,-6.5810394,58.055443,9.431006465797473,1.2456728840555888,1.0228735808583855,61.65020354881566
31/01/2020, 10:55:40,1.1448194,-4.4667115,-8.226892,1.128039,-0.522678,-0.07769577,-0.5505907,0.710258,-0.60067177,-19.672394,-6.5810394,58.055443,9.431006465797473,1.2456728840555888,1.0809362247337935,61.65020354881566
31/01/2020, 10:55:41,0.5221143,-6.1504107,-8.004155,-1.1016183,-0.032764293,0.32180995,0.41548586,-0.54918337,0.58765554,-20.390594,0.28897095,55.222504,10.10775218916802,1.1481280407529615,0.9053010052586126,58.86751870315769
31/01/2020, 10:55:41,0.31853762,-6.4330225,-7.7167535,-1.1016183,-0.032764293,0.32180995,0.41548586,-0.54918337,0.58765554,-20.390594,0.28897095,55.222504,10.051543613067059,1.1481280407529615,0.9053010052586126,58.86751870315769
31/01/2020, 10:55:41,0.043110352,-6.71803,-7.8724294,-1.1016183,-0.032764293,0.32180995,0.41548586,-0.54918337,0.58765554,-20.390594,0.28897095,55.222504,10.349344397541229,1.1481280407529615,0.9053010052586126,58.86751870315769
31/01/2020, 10:55:41,0.043110352,-6.71803,-7.8724294,-1.1016183,-0.032764293,0.32180995,0.36917895,-0.04653454,-0.48871088,-20.390594,0.28897095,55.222504,10.349344397541229,1.1481280407529615,0.6142449718633477,58.86751870315769
31/01/2020, 10:55:41,0.043110352,-6.71803,-7.8724294,-1.1016183,-0.032764293,0.32180995,0.36917895,-0.04653454,-0.48871088,-21.570587,-0.97854614,55.708267,10.349344397541229,1.1481280407529615,0.6142449718633477,59.74662181794726
31/01/2020, 10:55:41,0.51971924,-6.591094,-7.5251517,-1.1016183,-0.032764293,0.32180995,0.36917895,-0.04653454,-0.48871088,-21.570587,-0.97854614,55.708267,10.01701237825761,1.1481280407529615,0.6142449718633477,59.74662181794726
31/01/2020, 10:55:41,0.68018556,-7.1874537,-7.3718705,-1.1016183,-0.032764293,0.32180995,0.36917895,-0.04653454,-0.48871088,-21.570587,-0.97854614,55.708267,10.318266263460414,1.1481280407529615,0.6142449718633477,59.74662181794726
31/01/2020, 10:55:41,0.68018556,-7.1874537,-7.3718705,-1.1016183,-0.032764293,0.32180995,-0.039120376,-0.043164253,-0.35296392,-21.570587,-0.97854614,55.708267,10.318266263460414,1.1481280407529615,0.3577388551971741,59.74662181794726
31/01/2020, 10:55:41,0.68018556,-7.1874537,-7.3718705,-1.1016183,-0.032764293,0.32180995,-0.039120376,-0.043164253,-0.35296392,-20.808792,-0.9914398,54.295166,10.318266263460414,1.1481280407529615,0.3577388551971741,58.154568477756264
31/01/2020, 10:55:41,0.9244776,-7.2185893,-7.29523,-1.1016183,-0.032764293,0.32180995,-0.039120376,-0.043164253,-0.35296392,-20.808792,-0.9914398,54.295166,10.304516962176223,1.1481280407529615,0.3577388551971741,58.154568477756264
31/01/2020, 10:55:41,1.1927198,-6.5048733,-7.5970025,-1.1016183,-0.032764293,0.32180995,-0.039120376,-0.043164253,-0.35296392,-20.808792,-0.9914398,54.295166,10.072259129707044,1.1481280407529615,0.3577388551971741,58.154568477756264
31/01/2020, 10:55:41,1.1927198,-6.5048733,-7.5970025,-1.1016183,-0.032764293,0.32180995,-0.44871676,-0.76939964,-0.09242439,-20.808792,-0.9914398,54.295166,10.072259129707044,1.1481280407529615,0.8954690443271155,58.154568477756264
31/01/2020, 10:55:41,1.1927198,-6.5048733,-7.5970025,-1.1016183,-0.032764293,0.32180995,-0.44871676,-0.76939964,-0.09242439,-21.564789,-2.4008179,55.481262,10.072259129707044,1.1481280407529615,0.8954690443271155,59.57327000690792
31/01/2020, 10:55:41,1.1927198,-6.5048733,-7.5970025,-1.1016183,-0.032764293,0.32180995,0.24335021,-1.3275003,0.47833014,-21.564789,-2.4008179,55.481262,10.072259129707044,1.1481280407529615,1.4318785575392488,59.57327000690792
31/01/2020, 10:55:41,1.5543678,-5.980364,-7.479646,-1.1016183,-0.032764293,0.32180995,0.24335021,-1.3275003,0.47833014,-21.564789,-2.4008179,55.481262,9.701851281665357,1.1481280407529615,1.4318785575392488,59.57327000690792
31/01/2020, 10:55:41,0.9987232,-5.9300685,-7.7718387,-1.1016183,-0.032764293,0.32180995,0.24335021,-1.3275003,0.47833014,-21.564789,-2.4008179,55.481262,9.826730718468143,1.1481280407529615,1.4318785575392488,59.57327000690792
31/01/2020, 10:55:41,0.9987232,-5.9300685,-7.7718387,-1.1016183,-0.032764293,0.32180995,0.24335021,-1.3275003,0.47833014,-21.682953,-3.2171478,55.877907,9.826730718468143,1.1481280407529615,1.4318785575392488,60.023669948182814
31/01/2020, 10:55:41,0.9987232,-5.9300685,-7.7718387,-0.07903027,-0.035207752,0.19841522,0.24335021,-1.3275003,0.47833014,-21.682953,-3.2171478,55.877907,9.826730718468143,0.21645777531870738,1.4318785575392488,60.023669948182814
31/01/2020, 10:55:41,0.9987232,-5.9300685,-7.7718387,-0.07903027,-0.035207752,0.19841522,0.76767695,-0.68494844,0.2834139,-21.682953,-3.2171478,55.877907,9.826730718468143,0.21645777531870738,1.0671483971750395,60.023669948182814
31/01/2020, 10:55:41,-0.3879932,-5.51094,-8.377779,-0.07903027,-0.035207752,0.19841522,0.76767695,-0.68494844,0.2834139,-21.682953,-3.2171478,55.877907,10.035346546668327,0.21645777531870738,1.0671483971750395,60.023669948182814
31/01/2020, 10:55:42,0.5340894,-6.6126494,-7.278465,-0.18776426,0.64651763,-0.14000401,-0.8981559,-0.33032846,0.27528572,-20.371536,2.045639,54.543907,9.848270602445812,0.6876347798047077,0.995782703676784,58.25995140179754
31/01/2020, 10:55:42,0.5340894,-6.6126494,-7.278465,-0.18776426,0.64651763,-0.14000401,-0.8981559,-0.33032846,0.27528572,-21.284134,1.3134918,54.3638,9.848270602445812,0.6876347798047077,0.995782703676784,58.39659555882168
31/01/2020, 10:55:42,0.5340894,-6.6126494,-7.278465,0.15309842,0.014883178,-0.03371349,-0.8981559,-0.33032846,0.27528572,-21.284134,1.3134918,54.3638,9.848270602445812,0.15747137639343636,0.995782703676784,58.39659555882168
31/01/2020, 10:55:42,0.5340894,-6.6126494,-7.278465,0.15309842,0.014883178,-0.03371349,2.8163195E-5,0.38906097,0.28722048,-21.284134,1.3134918,54.3638,9.848270602445812,0.15747137639343636,0.48359491870056526,58.39659555882168
31/01/2020, 10:55:42,0.5245093,-7.1227884,-7.103628,0.15309842,0.014883178,-0.03371349,2.8163195E-5,0.38906097,0.28722048,-21.284134,1.3134918,54.3638,10.073269481169326,0.15747137639343636,0.48359491870056526,58.39659555882168
31/01/2020, 10:55:42,0.73527104,-6.9383717,-7.278465,0.15309842,0.014883178,-0.03371349,2.8163195E-5,0.38906097,0.28722048,-21.284134,1.3134918,54.3638,10.082543058482857,0.15747137639343636,0.48359491870056526,58.39659555882168
31/01/2020, 10:55:42,0.73527104,-6.9383717,-7.278465,0.15309842,0.014883178,-0.03371349,2.8163195E-5,0.38906097,0.28722048,-21.79042,1.3268127,53.99906,10.082543058482857,0.15747137639343636,0.48359491870056526,58.245012756741374
31/01/2020, 10:55:42,0.83586186,-6.3635674,-7.7622585,0.15309842,0.014883178,-0.03371349,2.8163195E-5,0.38906097,0.28722048,-21.79042,1.3268127,53.99906,10.072055995693004,0.15747137639343636,0.48359491870056526,58.245012756741374
31/01/2020, 10:55:42,0.613125,-6.07856,-7.8915896,0.15309842,0.014883178,-0.03371349,2.8163195E-5,0.38906097,0.28722048,-21.79042,1.3268127,53.99906,9.980080136383284,0.15747137639343636,0.48359491870056526,58.245012756741374
31/01/2020, 10:55:42,0.613125,-6.07856,-7.8915896,0.15309842,0.014883178,-0.03371349,0.36391142,0.5616627,0.052155495,-21.79042,1.3268127,53.99906,9.980080136383284,0.15747137639343636,0.6712798794984457,58.245012756741374
31/01/2020, 10:55:42,0.613125,-6.07856,-7.8915896,0.15309842,0.014883178,-0.03371349,0.36391142,0.5616627,0.052155495,-21.964615,1.2230225,54.099564,9.980080136383284,0.15747137639343636,0.6712798794984457,58.40122320473474
31/01/2020, 10:55:42,0.5364844,-6.334827,-7.185059,0.15309842,0.014883178,-0.03371349,0.36391142,0.5616627,0.052155495,-21.964615,1.2230225,54.099564,9.59390024026174,0.15747137639343636,0.6712798794984457,58.40122320473474
31/01/2020, 10:55:42,0.4766089,-6.4976883,-7.3383403,0.15309842,0.014883178,-0.03371349,0.36391142,0.5616627,0.052155495,-21.964615,1.2230225,54.099564,9.813172132673733,0.15747137639343636,0.6712798794984457,58.40122320473474
31/01/2020, 10:55:42,0.4766089,-6.4976883,-7.3383403,0.15309842,0.014883178,-0.03371349,0.08662644,-0.30941772,-0.06516218,-21.964615,1.2230225,54.099564,9.813172132673733,0.15747137639343636,0.32785603304374816,58.40122320473474
31/01/2020, 10:55:42,0.4766089,-6.4976883,-7.3383403,0.15309842,0.014883178,-0.03371349,0.08662644,-0.30941772,-0.06516218,-22.095718,1.5512238,53.99714,9.813172132673733,0.15747137639343636,0.32785603304374816,58.36367092413193
31/01/2020, 10:55:42,0.25387207,-6.2701616,-7.2976246,0.15309842,0.014883178,-0.03371349,0.08662644,-0.30941772,-0.06516218,-22.095718,1.5512238,53.99714,9.62469233296049,0.15747137639343636,0.32785603304374816,58.36367092413193
31/01/2020, 10:55:42,0.083825685,-5.9037232,-7.6161623,0.15309842,0.014883178,-0.03371349,0.08662644,-0.30941772,-0.06516218,-22.095718,1.5512238,53.99714,9.636747533292253,0.15747137639343636,0.32785603304374816,58.36367092413193
31/01/2020, 10:55:42,0.083825685,-5.9037232,-7.6161623,0.15309842,0.014883178,-0.03371349,0.41764608,0.4642315,-0.73662615,-22.095718,1.5512238,53.99714,9.636747533292253,0.15747137639343636,0.9656900164745045,58.36367092413193
31/01/2020, 10:55:42,0.083825685,-5.9037232,-7.6161623,0.15309842,0.014883178,-0.03371349,0.41764608,0.4642315,-0.73662615,-22.22261,1.8848114,53.77523,9.636747533292253,0.15747137639343636,0.9656900164745045,58.21659845511723
31/01/2020, 10:55:42,0.083825685,-5.9037232,-7.6161623,-0.20731193,0.12850407,0.02492955,0.41764608,0.4642315,-0.73662615,-22.22261,1.8848114,53.77523,9.636747533292253,0.2451795534898506,0.9656900164745045,58.21659845511723
31/01/2020, 10:55:43,0.31135255,-7.999366,-5.702542,-0.57383096,0.33253297,0.15687639,-0.34682778,1.5520964,-1.2705498,-20.968933,1.8794708,53.55011,9.828823786208698,0.6815206166557044,2.0355808425141064,57.53992381411254
31/01/2020, 10:55:43,0.244292,-7.180269,-6.998247,-0.57383096,0.33253297,0.15687639,-0.34682778,1.5520964,-1.2705498,-20.968933,1.8794708,53.55011,10.029526471350728,0.6815206166557044,2.0355808425141064,57.53992381411254
31/01/2020, 10:55:43,0.244292,-7.180269,-6.998247,-0.57383096,0.33253297,0.15687639,0.59349024,-1.1970897,0.8126793,-20.968933,1.8794708,53.55011,10.029526471350728,0.6815206166557044,1.5638740298235396,57.53992381411254
31/01/2020, 10:55:43,0.244292,-7.180269,-6.998247,-0.57383096,0.33253297,0.15687639,0.59349024,-1.1970897,0.8126793,-21.359802,2.8265686,52.87097,10.029526471350728,0.6815206166557044,1.5638740298235396,57.09264653540708
31/01/2020, 10:55:43,0.244292,-7.180269,-6.998247,0.5916995,0.2799986,0.05791626,0.59349024,-1.1970897,0.8126793,-21.359802,2.8265686,52.87097,10.029526471350728,0.6571619172002203,1.5638740298235396,57.09264653540708
31/01/2020, 10:55:43,0.07424561,-6.095325,-7.8436894,0.5916995,0.2799986,0.05791626,0.59349024,-1.1970897,0.8126793,-21.359802,2.8265686,52.87097,9.933879566411187,0.6571619172002203,1.5638740298235396,57.09264653540708
31/01/2020, 10:55:43,-0.07424561,-5.7001467,-8.222102,0.5916995,0.2799986,0.05791626,0.59349024,-1.1970897,0.8126793,-21.359802,2.8265686,52.87097,10.00500617409224,0.6571619172002203,1.5638740298235396,57.09264653540708
31/01/2020, 10:55:43,-0.07424561,-5.7001467,-8.222102,0.5916995,0.2799986,0.05791626,0.8357196,-2.2292395,1.3287859,-21.359802,2.8265686,52.87097,10.00500617409224,0.6571619172002203,2.7264643351146765,57.09264653540708
31/01/2020, 10:55:43,-0.07424561,-5.7001467,-8.222102,0.5916995,0.2799986,0.05791626,0.8357196,-2.2292395,1.3287859,-21.750732,1.611206,52.642517,10.00500617409224,0.6571619172002203,2.7264643351146765,56.98179491199937
31/01/2020, 10:55:43,0.60833496,-5.824688,-8.52148,0.5916995,0.2799986,0.05791626,0.8357196,-2.2292395,1.3287859,-21.750732,1.611206,52.642517,10.339858602190805,0.6571619172002203,2.7264643351146765,56.98179491199937
31/01/2020, 10:55:43,0.62031007,-6.3923073,-8.428074,0.5916995,0.2799986,0.05791626,0.8357196,-2.2292395,1.3287859,-21.750732,1.611206,52.642517,10.59616941823452,0.6571619172002203,2.7264643351146765,56.98179491199937
31/01/2020, 10:55:43,0.62031007,-6.3923073,-8.428074,0.5916995,0.2799986,0.05791626,-0.06017381,-0.6155577,0.27945232,-21.750732,1.611206,52.642517,10.59616941823452,0.6571619172002203,0.6786941391525744,56.98179491199937
31/01/2020, 10:55:43,0.62031007,-6.3923073,-8.428074,0.5916995,0.2799986,0.05791626,-0.06017381,-0.6155577,0.27945232,-21.556625,-0.42410278,53.33638,10.59616941823452,0.6571619172002203,0.6786941391525744,57.52944804511123
31/01/2020, 10:55:43,0.62031007,-6.3923073,-8.428074,0.5916995,0.2799986,0.05791626,-0.3764228,0.8616452,-0.9417443,-21.556625,-0.42410278,53.33638,10.59616941823452,0.6571619172002203,1.3307926154752097,57.52944804511123
31/01/2020, 10:55:43,0.24668702,-6.253396,-8.447234,0.5916995,0.2799986,0.05791626,-0.3764228,0.8616452,-0.9417443,-21.556625,-0.42410278,53.33638,10.51292448833897,0.6571619172002203,1.3307926154752097,57.52944804511123
31/01/2020, 10:55:43,0.12693603,-5.894143,-8.698711,0.5916995,0.2799986,0.05791626,-0.3764228,0.8616452,-0.9417443,-21.556625,-0.42410278,53.33638,10.508311740313454,0.6571619172002203,1.3307926154752097,57.52944804511123
31/01/2020, 10:55:43,0.12693603,-5.894143,-8.698711,0.5916995,0.2799986,0.05791626,-0.3764228,0.8616452,-0.9417443,-21.590546,-1.6559296,51.757126,10.508311740313454,0.6571619172002203,1.3307926154752097,56.10431214348578
31/01/2020, 10:55:43,0.12693603,-5.894143,-8.698711,0.5916995,0.2799986,0.05791626,0.29644597,0.11297703,-1.0976119,-21.590546,-1.6559296,51.757126,10.508311740313454,0.6571619172002203,1.1425392385254314,56.10431214348578
31/01/2020, 10:55:43,0.043110352,-5.949229,-8.732242,0.5916995,0.2799986,0.05791626,0.29644597,0.11297703,-1.0976119,-21.590546,-1.6559296,51.757126,10.566325060220592,0.6571619172002203,1.1425392385254314,56.10431214348578
31/01/2020, 10:55:43,-0.7807764,-6.7563505,-6.576724,0.5916995,0.2799986,0.05791626,0.29644597,0.11297703,-1.0976119,-21.590546,-1.6559296,51.757126,9.461035003209316,0.6571619172002203,1.1425392385254314,56.10431214348578
31/01/2020, 10:55:44,-1.3962965,-7.1778736,6.200706,4.816442,0.377737,0.53194755,-0.065346956,-0.34625912,-1.7946177,-20.768188,46.944954,16.30185,9.587505852031736,4.860428694282242,1.8288843924535405,53.859972555979546
31/01/2020, 10:55:44,-0.76401126,-7.062913,6.3156667,4.816442,0.377737,0.53194755,-0.065346956,-0.34625912,-1.7946177,-20.768188,46.944954,16.30185,9.505582464005546,4.860428694282242,1.8288843924535405,53.859972555979546
31/01/2020, 10:55:44,-0.76401126,-7.062913,6.3156667,4.816442,0.377737,0.53194755,-0.065346956,-0.34625912,-1.7946177,-21.108139,51.307503,7.662689,9.505582464005546,4.860428694282242,1.8288843924535405,56.00651906390162
31/01/2020, 10:55:44,-0.33530274,-6.5551686,6.454578,4.816442,0.377737,0.53194755,-0.065346956,-0.34625912,-1.7946177,-21.108139,51.307503,7.662689,9.20566346549999,4.860428694282242,1.8288843924535405,56.00651906390162
31/01/2020, 10:55:44,-0.3065625,-5.7767873,6.662945,4.816442,0.377737,0.53194755,-0.065346956,-0.34625912,-1.7946177,-21.108139,51.307503,7.662689,8.823836194575428,4.860428694282242,1.8288843924535405,56.00651906390162
31/01/2020, 10:55:44,-0.3065625,-5.7767873,6.662945,4.816442,0.377737,0.53194755,-0.45252657,-0.53111315,-1.1995449,-21.108139,51.307503,7.662689,8.823836194575428,4.860428694282242,1.3877209570620024,56.00651906390162
31/01/2020, 10:55:44,-0.3065625,-5.7767873,6.662945,4.816442,0.377737,0.53194755,-0.45252657,-0.53111315,-1.1995449,-21.257675,52.544136,2.8761368,8.823836194575428,4.860428694282242,1.3877209570620024,56.754269878232826
31/01/2020, 10:55:44,-0.7496411,-4.981641,7.0174074,4.816442,0.377737,0.53194755,-0.45252657,-0.53111315,-1.1995449,-21.257675,52.544136,2.8761368,8.638443950549243,4.860428694282242,1.3877209570620024,56.754269878232826
31/01/2020, 10:55:44,-1.3627661,-4.0116577,6.856941,4.816442,0.377737,0.53194755,-0.45252657,-0.53111315,-1.1995449,-21.257675,52.544136,2.8761368,8.060283625853767,4.860428694282242,1.3877209570620024,56.754269878232826
31/01/2020, 10:55:44,-1.3627661,-4.0116577,6.856941,4.816442,0.377737,0.53194755,-0.45252657,-0.53111315,-1.1995449,-20.112122,54.60669,-3.8561249,8.060283625853767,4.860428694282242,1.3877209570620024,58.32030235376553
31/01/2020, 10:55:44,-1.3627661,-4.0116577,6.856941,4.816442,0.377737,0.53194755,0.1441313,-0.9970393,-1.2539039,-20.112122,54.60669,-3.8561249,8.060283625853767,4.860428694282242,1.6084576895172449,58.32030235376553
31/01/2020, 10:55:44,-1.3627661,-4.0116577,6.856941,4.816442,0.377737,0.53194755,1.3602062,-1.1170316,-1.5262094,-20.112122,54.60669,-3.8561249,8.060283625853767,4.860428694282242,2.329642797514286,58.32030235376553
31/01/2020, 10:55:44,-1.9639161,-2.919529,6.461763,4.816442,0.377737,0.53194755,1.3602062,-1.1170316,-1.5262094,-20.112122,54.60669,-3.8561249,7.357648775315128,4.860428694282242,2.329642797514286,58.32030235376553
31/01/2020, 10:55:44,-2.179468,-1.9734962,6.5336137,4.816442,0.377737,0.53194755,1.3602062,-1.1170316,-1.5262094,-20.112122,54.60669,-3.8561249,7.164696461680795,4.860428694282242,2.329642797514286,58.32030235376553
31/01/2020, 10:55:44,-2.179468,-1.9734962,6.5336137,4.816442,0.377737,0.53194755,1.3602062,-1.1170316,-1.5262094,-20.115356,55.00936,-9.314735,7.164696461680795,4.860428694282242,2.329642797514286,59.30785519424792
31/01/2020, 10:55:44,-2.179468,-1.9734962,6.5336137,3.0082817,0.6049788,0.6064731,1.3602062,-1.1170316,-1.5262094,-20.115356,55.00936,-9.314735,7.164696461680795,3.1278695286546294,2.329642797514286,59.30785519424792
31/01/2020, 10:55:44,-2.179468,-1.9734962,6.5336137,3.0082817,0.6049788,0.6064731,1.1237683,-0.23715782,-1.3561678,-20.115356,55.00936,-9.314735,7.164696461680795,3.1278695286546294,1.7771578924067162,59.30785519424792
31/01/2020, 10:55:44,-2.323169,-1.6621436,7.0509377,3.0082817,0.6049788,0.6064731,1.1237683,-0.23715782,-1.3561678,-20.115356,55.00936,-9.314735,7.607598652534842,3.1278695286546294,1.7771578924067162,59.30785519424792
31/01/2020, 10:55:44,-2.6105714,-2.3375392,7.8604546,3.0082817,0.6049788,0.6064731,1.1237683,-0.23715782,-1.3561678,-20.115356,55.00936,-9.314735,8.6061558390108,3.1278695286546294,1.7771578924067162,59.30785519424792
31/01/2020, 10:55:44,-2.6105714,-2.3375392,7.8604546,3.0082817,0.6049788,0.6064731,1.1237683,-0.23715782,-1.3561678,-19.195816,54.572548,-14.492752,8.6061558390108,3.1278695286546294,1.7771578924067162,59.63792586793127
31/01/2020, 10:55:45,0.043110352,-3.0847852,9.333391,-1.1969132,-0.86964935,-0.47109285,-1.0234888,0.7008097,-0.91744995,-19.2809,45.33023,-39.57917,9.830053380942235,1.5526814792660653,1.5428473399633422,63.19092973235319
31/01/2020, 10:55:45,0.043110352,-3.0847852,9.333391,-1.1969132,-0.86964935,-0.47109285,-1.0234888,0.7008097,-0.91744995,-20.821228,44.71019,-38.71768,9.830053380942235,1.5526814792660653,1.5428473399633422,62.70234047288509
31/01/2020, 10:55:45,0.16765137,-3.0608351,9.378897,-1.1969132,-0.86964935,-0.47109285,-1.0234888,0.7008097,-0.91744995,-20.821228,44.71019,-38.71768,9.867143567944565,1.5526814792660653,1.5428473399633422,62.70234047288509
31/01/2020, 10:55:45,0.1101709,-3.0105398,9.3453665,-1.1969132,-0.86964935,-0.47109285,-1.0234888,0.7008097,-0.91744995,-20.821228,44.71019,-38.71768,9.818928757374536,1.5526814792660653,1.5428473399633422,62.70234047288509
31/01/2020, 10:55:45,0.1101709,-3.0105398,9.3453665,-1.1969132,-0.86964935,-0.47109285,-0.6729864,0.3094566,-0.28571033,-20.821228,44.71019,-38.71768,9.818928757374536,1.5526814792660653,0.7939171576728569,62.70234047288509
31/01/2020, 10:55:45,0.1101709,-3.0105398,9.3453665,-1.1969132,-0.86964935,-0.47109285,-0.6729864,0.3094566,-0.28571033,-20.59584,44.57939,-38.577545,9.818928757374536,1.5526814792660653,0.7939171576728569,62.44788050629583
31/01/2020, 10:55:45,0.119750984,-2.8596535,9.148975,-1.1969132,-0.86964935,-0.47109285,-0.6729864,0.3094566,-0.28571033,-20.59584,44.57939,-38.577545,9.586224942408755,1.5526814792660653,0.7939171576728569,62.44788050629583
31/01/2020, 10:55:45,0.17483643,-2.7351124,9.081915,-1.1969132,-0.86964935,-0.47109285,-0.6729864,0.3094566,-0.28571033,-20.59584,44.57939,-38.577545,9.486442223297551,1.5526814792660653,0.7939171576728569,62.44788050629583
31/01/2020, 10:55:45,0.17483643,-2.7351124,9.081915,-1.1969132,-0.86964935,-0.47109285,-0.10699702,-0.06746459,0.0047130585,-20.59584,44.57939,-38.577545,9.486442223297551,1.5526814792660653,0.12657822181885758,62.44788050629583
31/01/2020, 10:55:45,0.17483643,-2.7351124,9.081915,-1.1969132,-0.86964935,-0.47109285,-0.10699702,-0.06746459,0.0047130585,-21.161713,45.461433,-37.170807,9.486442223297551,1.5526814792660653,0.12657822181885758,62.41977967237135
31/01/2020, 10:55:45,0.17483643,-2.7351124,9.081915,0.21662839,-0.43227002,-0.5004144,-0.10699702,-0.06746459,0.0047130585,-21.161713,45.461433,-37.170807,9.486442223297551,0.6958446463827026,0.12657822181885758,62.41977967237135
31/01/2020, 10:55:45,0.17483643,-2.7351124,9.081915,0.21662839,-0.43227002,-0.5004144,-0.13408133,-0.055921316,-0.0013694763,-21.161713,45.461433,-37.170807,9.486442223297551,0.6958446463827026,0.14528204692548125,62.41977967237135
31/01/2020, 10:55:45,0.26345217,-2.799778,9.153765,0.21662839,-0.43227002,-0.5004144,-0.13408133,-0.055921316,-0.0013694763,-21.161713,45.461433,-37.170807,9.575989371651081,0.6958446463827026,0.14528204692548125,62.41977967237135
31/01/2020, 10:55:45,0.25866213,-3.0536501,9.335787,0.21662839,-0.43227002,-0.5004144,-0.13408133,-0.055921316,-0.0013694763,-21.161713,45.461433,-37.170807,9.825914757432034,0.6958446463827026,0.14528204692548125,62.41977967237135
31/01/2020, 10:55:45,0.25866213,-3.0536501,9.335787,0.21662839,-0.43227002,-0.5004144,-0.13408133,-0.055921316,-0.0013694763,-22.260483,45.373207,-35.155907,9.825914757432034,0.6958446463827026,0.14528204692548125,61.56455790548083
31/01/2020, 10:55:45,0.25866213,-3.0536501,9.335787,0.21662839,-0.43227002,-0.5004144,-0.17184225,0.17437434,-0.27553368,-22.260483,45.373207,-35.155907,9.825914757432034,0.6958446463827026,0.36858509976137377,61.56455790548083
31/01/2020, 10:55:45,0.32332766,-3.307522,9.366921,0.21662839,-0.43227002,-0.5004144,-0.17184225,0.17437434,-0.27553368,-22.260483,45.373207,-35.155907,9.938986866027632,0.6958446463827026,0.36858509976137377,61.56455790548083
31/01/2020, 10:55:45,0.33290774,-3.2476466,9.309442,0.21662839,-0.43227002,-0.5004144,-0.17184225,0.17437434,-0.27553368,-22.260483,45.373207,-35.155907,9.865279422567156,0.6958446463827026,0.36858509976137377,61.56455790548083
31/01/2020, 10:55:45,0.33290774,-3.2476466,9.309442,0.21662839,-0.43227002,-0.5004144,-0.17184225,0.17437434,-0.27553368,-23.332962,45.399475,-34.862114,9.865279422567156,0.6958446463827026,0.36858509976137377,61.81348110055729
31/01/2020, 10:55:45,0.33290774,-3.2476466,9.309442,0.21662839,-0.43227002,-0.5004144,-0.20975626,-0.15548635,-0.020076752,-23.332962,45.399475,-34.862114,9.865279422567156,0.6958446463827026,0.2618716596076491,61.81348110055729
31/01/2020, 10:55:46,-0.62510014,-6.5120583,7.8412943,0.47930035,0.27022475,0.33891416,-0.1418066,-0.5130544,0.39956856,-29.883087,46.67861,-10.401085,10.211931700569131,0.6462298709502109,0.6655741373576611,56.39214715373418
31/01/2020, 10:55:46,-0.7711963,-6.444998,7.692803,0.47930035,0.27022475,0.33891416,-0.1418066,-0.5130544,0.39956856,-29.883087,46.67861,-10.401085,10.065384084757628,0.6462298709502109,0.6655741373576611,56.39214715373418
31/01/2020, 10:55:46,-0.7711963,-6.444998,7.692803,0.47930035,0.27022475,0.33891416,-0.1418066,-0.5130544,0.39956856,-29.569061,46.889786,-11.409615,10.065384084757628,0.6462298709502109,0.6655741373576611,56.5964724930146
31/01/2020, 10:55:46,-0.7711963,-6.444998,7.692803,0.47930035,0.27022475,0.33891416,-0.36424226,-0.5357108,0.38070154,-29.569061,46.889786,-11.409615,10.065384084757628,0.6462298709502109,0.7513934778231616,56.5964724930146
31/01/2020, 10:55:46,-0.8334668,-6.2821364,7.6449027,0.47930035,0.27022475,0.33891416,-0.36424226,-0.5357108,0.38070154,-29.569061,46.889786,-11.409615,9.929976968445509,0.6462298709502109,0.7513934778231616,56.5964724930146
31/01/2020, 10:55:46,-0.7664063,-6.200706,7.541917,0.47930035,0.27022475,0.33891416,-0.36424226,-0.5357108,0.38070154,-29.569061,46.889786,-11.409615,9.793704268829284,0.6462298709502109,0.7513934778231616,56.5964724930146
31/01/2020, 10:55:46,-0.7664063,-6.200706,7.541917,0.47930035,0.27022475,0.33891416,-0.36424226,-0.5357108,0.38070154,-28.827118,47.627296,-11.782021,9.793704268829284,0.6462298709502109,0.7513934778231616,56.90499190032507
31/01/2020, 10:55:46,-0.7664063,-6.200706,7.541917,0.47930035,0.27022475,0.33891416,-0.6583927,-0.25313663,0.29279184,-28.827118,47.627296,-11.782021,9.793704268829284,0.6462298709502109,0.7637317611057203,56.90499190032507
31/01/2020, 10:55:46,-0.6466553,-6.1695704,7.5083866,0.47930035,0.27022475,0.33891416,-0.6583927,-0.25313663,0.29279184,-28.827118,47.627296,-11.782021,9.739488287739029,0.6462298709502109,0.7637317611057203,56.90499190032507
31/01/2020, 10:55:46,-0.49576905,-6.1719656,7.5227566,0.47930035,0.27022475,0.33891416,-0.6583927,-0.25313663,0.29279184,-28.827118,47.627296,-11.782021,9.743244470936363,0.6462298709502109,0.7637317611057203,56.90499190032507
31/01/2020, 10:55:46,-0.49576905,-6.1719656,7.5227566,0.47930035,0.27022475,0.33891416,-0.6583927,-0.25313663,0.29279184,-28.813782,47.948677,-12.55558,9.743244470936363,0.6462298709502109,0.7637317611057203,57.33194783698633
31/01/2020, 10:55:46,-0.49576905,-6.1719656,7.5227566,-0.07536508,0.0063310675,0.09334643,-0.6583927,-0.25313663,0.29279184,-28.813782,47.948677,-12.55558,9.743244470936363,0.12013964480701854,0.7637317611057203,57.33194783698633
31/01/2020, 10:55:46,-0.31853762,-6.1480155,7.549102,-0.07536508,0.0063310675,0.09334643,-0.6583927,-0.25313663,0.29279184,-28.813782,47.948677,-12.55558,9.741072796515919,0.12013964480701854,0.7637317611057203,57.33194783698633
31/01/2020, 10:55:46,-0.16765137,-6.2725563,7.563472,-0.07536508,0.0063310675,0.09334643,-0.6583927,-0.25313663,0.29279184,-28.813782,47.948677,-12.55558,9.827470435520675,0.12013964480701854,0.7637317611057203,57.33194783698633
31/01/2020, 10:55:46,-0.16765137,-6.2725563,7.563472,-0.07536508,0.0063310675,0.09334643,-0.8201561,-0.042171,0.08087921,-28.813782,47.948677,-12.55558,9.827470435520675,0.12013964480701854,0.8252126176477742,57.33194783698633
31/01/2020, 10:55:46,-0.16765137,-6.2725563,7.563472,-0.07536508,0.0063310675,0.09334643,-0.8201561,-0.042171,0.08087921,-28.258087,48.04783,-12.987144,9.827470435520675,0.12013964480701854,0.8252126176477742,57.23442365960627
31/01/2020, 10:55:46,-0.17244141,-6.349197,7.5131764,-0.07536508,0.0063310675,0.09334643,-0.8201561,-0.042171,0.08087921,-28.258087,48.04783,-12.987144,9.838183658000537,0.12013964480701854,0.8252126176477742,57.23442365960627
31/01/2020, 10:55:46,-0.16525635,-6.4354177,7.5155716,-0.07536508,0.0063310675,0.09334643,-0.8201561,-0.042171,0.08087921,-28.258087,48.04783,-12.987144,9.895742842611265,0.12013964480701854,0.8252126176477742,57.23442365960627
31/01/2020, 10:55:46,-0.16525635,-6.4354177,7.5155716,-0.07536508,0.0063310675,0.09334643,-0.6073643,0.07979441,-0.047650814,-28.258087,48.04783,-12.987144,9.895742842611265,0.12013964480701854,0.6144339969566335,57.23442365960627
31/01/2020, 10:55:46,-0.16525635,-6.4354177,7.5155716,-0.07536508,0.0063310675,0.09334643,-0.6073643,0.07979441,-0.047650814,-27.759995,47.827698,-13.557602,9.895742842611265,0.12013964480701854,0.6144339969566335,56.93781289719475
31/01/2020, 10:55:47,0.5245093,-4.9313455,8.717872,4.043087,1.0093714,0.116559304,1.1481776,-2.3839803,0.43009663,-27.85202,47.16922,-12.441071,10.02968416624159,4.168809090050487,2.6807940822437537,56.17339745829762
31/01/2020, 10:55:47,-0.57719976,-4.4523416,8.919053,4.043087,1.0093714,0.116559304,1.1481776,-2.3839803,0.43009663,-27.85202,47.16922,-12.441071,9.985289815451473,4.168809090050487,2.6807940822437537,56.17339745829762
31/01/2020, 10:55:47,-0.57719976,-4.4523416,8.919053,4.043087,1.0093714,0.116559304,3.037507,-2.448502,0.011303902,-27.85202,47.16922,-12.441071,9.985289815451473,4.168809090050487,3.901504742642985,56.17339745829762
31/01/2020, 10:55:47,-0.57719976,-4.4523416,8.919053,4.043087,1.0093714,0.116559304,3.037507,-2.448502,0.011303902,-27.268097,47.7638,-13.052643,9.985289815451473,4.168809090050487,3.901504742642985,56.52699651813205
31/01/2020, 10:55:47,-0.97237796,-3.9901028,9.010064,4.043087,1.0093714,0.116559304,3.037507,-2.448502,0.011303902,-27.268097,47.7638,-13.052643,9.90190358090885,4.168809090050487,3.901504742642985,56.52699651813205
31/01/2020, 10:55:47,-0.86939216,-3.5805542,9.304651,4.043087,1.0093714,0.116559304,3.037507,-2.448502,0.011303902,-27.268097,47.7638,-13.052643,10.007634411497394,4.168809090050487,3.901504742642985,56.52699651813205
31/01/2020, 10:55:47,-0.86939216,-3.5805542,9.304651,4.043087,1.0093714,0.116559304,2.7783036,-2.2670784,-0.3288746,-27.268097,47.7638,-13.052643,10.007634411497394,4.168809090050487,3.6009407086927414,56.52699651813205
31/01/2020, 10:55:47,-0.86939216,-3.5805542,9.304651,4.043087,1.0093714,0.116559304,2.7783036,-2.2670784,-0.3288746,-26.758621,46.787415,-14.365173,10.007634411497394,4.168809090050487,3.6009407086927414,55.780320676759864
31/01/2020, 10:55:47,-0.57719976,-3.159031,9.606423,4.043087,1.0093714,0.116559304,2.7783036,-2.2670784,-0.3288746,-26.758621,46.787415,-14.365173,10.12896865403122,4.168809090050487,3.6009407086927414,55.780320676759864
31/01/2020, 10:55:47,-0.34727785,-2.7590625,10.011182,4.043087,1.0093714,0.116559304,2.7783036,-2.2670784,-0.3288746,-26.758621,46.787415,-14.365173,10.390225676200245,4.168809090050487,3.6009407086927414,55.780320676759864
31/01/2020, 10:55:47,-0.34727785,-2.7590625,10.011182,4.043087,1.0093714,0.116559304,0.27159157,-1.5103116,-0.46822643,-26.758621,46.787415,-14.365173,10.390225676200245,4.168809090050487,1.604381225027773,55.780320676759864
31/01/2020, 10:55:47,-0.34727785,-2.7590625,10.011182,4.043087,1.0093714,0.116559304,0.27159157,-1.5103116,-0.46822643,-26.16803,45.43051,-16.211716,10.390225676200245,4.168809090050487,1.604381225027773,54.877289305887466
31/01/2020, 10:55:47,-0.43349856,-2.7542725,10.36325,4.043087,1.0093714,0.116559304,0.27159157,-1.5103116,-0.46822643,-26.16803,45.43051,-16.211716,10.731769833932823,4.168809090050487,1.604381225027773,54.877289305887466
31/01/2020, 10:55:47,-0.3784131,-3.0416749,10.214759,4.043087,1.0093714,0.116559304,0.27159157,-1.5103116,-0.46822643,-26.16803,45.43051,-16.211716,10.664721338288473,4.168809090050487,1.604381225027773,54.877289305887466
31/01/2020, 10:55:47,-0.3784131,-3.0416749,10.214759,4.043087,1.0093714,0.116559304,-1.0182841,-1.32953,-0.42759228,-26.16803,45.43051,-16.211716,10.664721338288473,4.168809090050487,1.7284061013030327,54.877289305887466
31/01/2020, 10:55:47,-0.3784131,-3.0416749,10.214759,4.043087,1.0093714,0.116559304,-1.0182841,-1.32953,-0.42759228,-25.51062,44.59787,-19.60707,10.664721338288473,4.168809090050487,1.7284061013030327,54.99271739194568
31/01/2020, 10:55:47,-0.3784131,-3.0416749,10.214759,4.804225,0.9788282,-0.07036539,-1.0182841,-1.32953,-0.42759228,-25.51062,44.59787,-19.60707,10.664721338288473,4.903430784671159,1.7284061013030327,54.99271739194568
31/01/2020, 10:55:47,-0.07903565,-3.04886,10.205178,4.804225,0.9788282,-0.07036539,-1.0182841,-1.32953,-0.42759228,-25.51062,44.59787,-19.60707,10.651171659192292,4.903430784671159,1.7284061013030327,54.99271739194568
31/01/2020, 10:55:47,0.364043,-2.2752686,10.1189575,4.804225,0.9788282,-0.07036539,-1.0182841,-1.32953,-0.42759228,-25.51062,44.59787,-19.60707,10.377989958655519,4.903430784671159,1.7284061013030327,54.99271739194568
31/01/2020, 10:55:47,0.364043,-2.2752686,10.1189575,4.804225,0.9788282,-0.07036539,-0.42974657,-1.3034856,-0.02106762,-25.51062,44.59787,-19.60707,10.377989958655519,4.903430784671159,1.3726619212855689,54.99271739194568
31/01/2020, 10:55:48,-0.7041358,5.213958,7.9347,-4.6287527,-0.5031303,0.08235086,0.27554935,1.2919698,-0.9780164,-21.286057,3.8969727,-57.765686,9.520537131600328,4.656744937743772,1.6436634024848833,61.6859552986489
31/01/2020, 10:55:48,-0.42870852,4.622388,8.334668,-4.6287527,-0.5031303,0.08235086,0.27554935,1.2919698,-0.9780164,-21.286057,3.8969727,-57.765686,9.540280608867851,4.656744937743772,1.6436634024848833,61.6859552986489
31/01/2020, 10:55:48,-0.244292,4.1146436,8.698711,-4.6287527,-0.5031303,0.08235086,0.27554935,1.2919698,-0.9780164,-21.286057,3.8969727,-57.765686,9.625879194199749,4.656744937743772,1.6436634024848833,61.6859552986489
31/01/2020, 10:55:48,-0.244292,4.1146436,8.698711,-4.6287527,-0.5031303,0.08235086,-0.06385553,1.6107144,-1.3476281,-21.286057,3.8969727,-57.765686,9.625879194199749,4.656744937743772,2.101090208013752,61.6859552986489
31/01/2020, 10:55:48,-0.244292,4.1146436,8.698711,-4.6287527,-0.5031303,0.08235086,-0.06385553,1.6107144,-1.3476281,-21.55812,6.1099243,-57.160324,9.625879194199749,4.656744937743772,2.101090208013752,61.395328774205794
31/01/2020, 10:55:48,-0.244292,4.1146436,8.698711,-4.6287527,-0.5031303,0.08235086,-0.0350883,1.375907,-1.0634971,-21.55812,6.1099243,-57.160324,9.625879194199749,4.656744937743772,1.7393611236887216,61.395328774205794
31/01/2020, 10:55:48,-0.13891114,3.422483,8.957374,-4.6287527,-0.5031303,0.08235086,-0.0350883,1.375907,-1.0634971,-21.55812,6.1099243,-57.160324,9.589954542092524,4.656744937743772,1.7393611236887216,61.395328774205794
31/01/2020, 10:55:48,-0.14370118,2.9410841,9.137,-4.6287527,-0.5031303,0.08235086,-0.0350883,1.375907,-1.0634971,-21.55812,6.1099243,-57.160324,9.599760232410725,4.656744937743772,1.7393611236887216,61.395328774205794
31/01/2020, 10:55:48,-0.14370118,2.9410841,9.137,-4.6287527,-0.5031303,0.08235086,-0.0350883,1.375907,-1.0634971,-21.901825,8.380646,-56.553635,9.599760232410725,4.656744937743772,1.7393611236887216,61.222861341235706
31/01/2020, 10:55:48,-0.14370118,2.9410841,9.137,-4.6287527,-0.5031303,0.08235086,0.314115,1.1486473,-0.63074493,-21.901825,8.380646,-56.553635,9.599760232410725,4.656744937743772,1.3475526098973178,61.222861341235706
31/01/2020, 10:55:48,-0.26105714,2.435735,9.321417,-4.6287527,-0.5031303,0.08235086,0.314115,1.1486473,-0.63074493,-21.901825,8.380646,-56.553635,9.637933800339544,4.656744937743772,1.3475526098973178,61.222861341235706
31/01/2020, 10:55:48,-0.27303225,1.9734962,9.596844,-4.6287527,-0.5031303,0.08235086,0.314115,1.1486473,-0.63074493,-21.901825,8.380646,-56.553635,9.801461280377055,4.656744937743772,1.3475526098973178,61.222861341235706
31/01/2020, 10:55:48,-0.27303225,1.9734962,9.596844,-4.6287527,-0.5031303,0.08235086,0.314115,1.1486473,-0.63074493,-22.030624,11.809311,-55.082794,9.801461280377055,4.656744937743772,1.3475526098973178,60.48902752530705
31/01/2020, 10:55:48,-0.25387207,1.3819263,9.901011,-4.6287527,-0.5031303,0.08235086,0.314115,1.1486473,-0.63074493,-22.030624,11.809311,-55.082794,10.000209967247338,4.656744937743772,1.3475526098973178,60.48902752530705
31/01/2020, 10:55:48,-0.18441652,0.77359134,10.013577,-4.6287527,-0.5031303,0.08235086,0.314115,1.1486473,-0.63074493,-22.030624,11.809311,-55.082794,10.045107594494072,4.656744937743772,1.3475526098973178,60.48902752530705
31/01/2020, 10:55:48,-0.18441652,0.77359134,10.013577,-4.6287527,-0.5031303,0.08235086,0.29642424,0.8816719,-0.43968773,-22.030624,11.809311,-55.082794,10.045107594494072,4.656744937743772,1.028852748401381,60.48902752530705
31/01/2020, 10:55:48,-0.18441652,0.77359134,10.013577,-4.6287527,-0.5031303,0.08235086,0.29642424,0.8816719,-0.43968773,-21.974442,15.844666,-52.406174,10.045107594494072,4.656744937743772,1.028852748401381,58.99437726312688
31/01/2020, 10:55:48,-0.18441652,0.77359134,10.013577,-3.9751272,-0.5532213,0.12999833,0.29642424,0.8816719,-0.43968773,-21.974442,15.844666,-52.406174,10.045107594494072,4.0155435213437425,1.028852748401381,58.99437726312688
31/01/2020, 10:55:48,-0.043110352,0.27303225,10.066268,-3.9751272,-0.5532213,0.12999833,0.29642424,0.8816719,-0.43968773,-21.974442,15.844666,-52.406174,10.07006235824147,4.0155435213437425,1.028852748401381,58.99437726312688
31/01/2020, 10:55:48,0.18441652,0.059875492,9.989627,-3.9751272,-0.5532213,0.12999833,0.29642424,0.8816719,-0.43968773,-21.974442,15.844666,-52.406174,9.991508385486517,4.0155435213437425,1.028852748401381,58.99437726312688
31/01/2020, 10:55:49,1.0633887,-3.056045,9.134604,-0.55306154,-0.06697274,-0.109460756,-0.015676022,0.29908895,0.019799232,-25.668228,41.5579,-27.196701,9.690779403681006,0.567753535865952,0.3001532112402119,55.90686445424338
31/01/2020, 10:55:49,1.0633887,-3.056045,9.134604,-0.55306154,-0.06697274,-0.109460756,-0.19613218,-0.23367429,0.02217865,-25.668228,41.5579,-27.196701,9.690779403681006,0.567753535865952,0.3058813471367849,55.90686445424338
31/01/2020, 10:55:49,1.0633887,-3.056045,9.134604,-0.55306154,-0.06697274,-0.109460756,-0.19613218,-0.23367429,0.02217865,-25.818634,41.26812,-26.039047,9.690779403681006,0.567753535865952,0.3058813471367849,55.205901472478864
31/01/2020, 10:55:49,1.0633887,-3.056045,9.134604,-0.4834229,0.30198973,-0.02638311,-0.19613218,-0.23367429,0.02217865,-25.818634,41.26812,-26.039047,9.690779403681006,0.570606320754828,0.3058813471367849,55.205901472478864
31/01/2020, 10:55:49,0.87897223,-2.823728,9.024434,-0.4834229,0.30198973,-0.02638311,-0.19613218,-0.23367429,0.02217865,-25.818634,41.26812,-26.039047,9.496654311883406,0.570606320754828,0.3058813471367849,55.205901472478864
31/01/2020, 10:55:49,0.488584,-2.7782228,9.036409,-0.4834229,0.30198973,-0.02638311,-0.19613218,-0.23367429,0.02217865,-25.818634,41.26812,-26.039047,9.466463474121596,0.570606320754828,0.3058813471367849,55.205901472478864
31/01/2020, 10:55:49,0.488584,-2.7782228,9.036409,-0.4834229,0.30198973,-0.02638311,0.21317351,-0.39825988,0.17417717,-25.818634,41.26812,-26.039047,9.466463474121596,0.570606320754828,0.4841400229458275,55.205901472478864
31/01/2020, 10:55:49,0.488584,-2.7782228,9.036409,-0.4834229,0.30198973,-0.02638311,0.21317351,-0.39825988,0.17417717,-25.917282,41.384277,-25.565552,9.466463474121596,0.570606320754828,0.4841400229458275,55.117704593257876
31/01/2020, 10:55:49,0.1580713,-2.804568,9.129815,-0.4834229,0.30198973,-0.02638311,0.21317351,-0.39825988,0.17417717,-25.917282,41.384277,-25.565552,9.55217840515404,0.570606320754828,0.4841400229458275,55.117704593257876
31/01/2020, 10:55:49,-0.30177248,-3.1087356,9.259146,-0.4834229,0.30198973,-0.02638311,0.21317351,-0.39825988,0.17417717,-25.917282,41.384277,-25.565552,9.771749239040608,0.570606320754828,0.4841400229458275,55.117704593257876
31/01/2020, 10:55:49,-0.30177248,-3.1087356,9.259146,-0.4834229,0.30198973,-0.02638311,0.25400162,-0.4249115,0.040284157,-25.917282,41.384277,-25.565552,9.771749239040608,0.570606320754828,0.496678383815187,55.117704593257876
31/01/2020, 10:55:49,-0.30177248,-3.1087356,9.259146,-0.4834229,0.30198973,-0.02638311,0.25400162,-0.4249115,0.040284157,-25.852585,41.88137,-23.93312,9.771749239040608,0.570606320754828,0.496678383815187,54.728416835223136
31/01/2020, 10:55:49,-0.09580079,-3.396138,9.683064,-0.4834229,0.30198973,-0.02638311,0.25400162,-0.4249115,0.040284157,-25.852585,41.88137,-23.93312,10.26180628039891,0.570606320754828,0.496678383815187,54.728416835223136
31/01/2020, 10:55:49,0.081430666,-3.5637891,9.889036,-0.4834229,0.30198973,-0.02638311,0.25400162,-0.4249115,0.040284157,-25.852585,41.88137,-23.93312,10.51191040927579,0.570606320754828,0.496678383815187,54.728416835223136
31/01/2020, 10:55:49,0.081430666,-3.5637891,9.889036,-0.4834229,0.30198973,-0.02638311,-0.23537618,-0.11258769,-0.3326578,-25.852585,41.88137,-23.93312,10.51191040927579,0.570606320754828,0.4227755373658574,54.728416835223136
31/01/2020, 10:55:49,0.081430666,-3.5637891,9.889036,-0.4834229,0.30198973,-0.02638311,-0.23537618,-0.11258769,-0.3326578,-26.054947,42.334198,-23.57669,10.51191040927579,0.570606320754828,0.4227755373658574,55.01731473998433
31/01/2020, 10:55:49,-0.17723145,-3.6332448,10.018367,-0.4834229,0.30198973,-0.02638311,-0.23537618,-0.11258769,-0.3326578,-26.054947,42.334198,-23.57669,10.658309060672554,0.570606320754828,0.4227755373658574,55.01731473998433
31/01/2020, 10:55:49,-0.7041358,-3.3673975,10.061478,-0.4834229,0.30198973,-0.02638311,-0.23537618,-0.11258769,-0.3326578,-26.054947,42.334198,-23.57669,10.633367582938488,0.570606320754828,0.4227755373658574,55.01731473998433
31/01/2020, 10:55:49,-0.7041358,-3.3673975,10.061478,-0.4834229,0.30198973,-0.02638311,-0.8652478,-0.04793644,-0.22439575,-26.054947,42.334198,-23.57669,10.633367582938488,0.570606320754828,0.8951564594995705,55.01731473998433
31/01/2020, 10:55:49,-0.7041358,-3.3673975,10.061478,-0.4834229,0.30198973,-0.02638311,-0.8652478,-0.04793644,-0.22439575,-25.507385,42.643295,-23.433594,10.633367582938488,0.570606320754828,0.8951564594995705,54.93824397956423
31/01/2020, 10:55:50,1.1472144,1.092129,10.87818,0.93989253,-0.08163349,0.16176331,0.116236806,-0.8598008,1.7171202,-28.1176,34.068336,-27.412766,10.99289029190146,0.9571987069623714,1.923868529235741,51.98760106435029
31/01/2020, 10:55:50,0.7161109,1.4298267,10.588382,0.93989253,-0.08163349,0.16176331,0.116236806,-0.8598008,1.7171202,-28.1176,34.068336,-27.412766,10.708456833064544,0.9571987069623714,1.923868529235741,51.98760106435029
31/01/2020, 10:55:50,0.5676197,1.3915064,10.37762,0.93989253,-0.08163349,0.16176331,0.116236806,-0.8598008,1.7171202,-28.1176,34.068336,-27.412766,10.485870197299308,0.9571987069623714,1.923868529235741,51.98760106435029
31/01/2020, 10:55:50,0.5676197,1.3915064,10.37762,0.93989253,-0.08163349,0.16176331,0.116236806,-0.8598008,1.7171202,-27.86966,34.01413,-27.686554,10.485870197299308,0.9571987069623714,1.923868529235741,51.96368156110574
31/01/2020, 10:55:50,0.5676197,1.3915064,10.37762,1.0669525,-0.20502824,0.26438862,0.116236806,-0.8598008,1.7171202,-27.86966,34.01413,-27.686554,10.485870197299308,1.1181795415407136,1.923868529235741,51.96368156110574
31/01/2020, 10:55:50,0.728086,1.2382251,10.293795,1.0669525,-0.20502824,0.26438862,0.116236806,-0.8598008,1.7171202,-27.86966,34.01413,-27.686554,10.393532534461517,1.1181795415407136,1.923868529235741,51.96368156110574
31/01/2020, 10:55:50,1.1184741,1.0681788,10.243499,1.0669525,-0.20502824,0.26438862,0.116236806,-0.8598008,1.7171202,-27.86966,34.01413,-27.686554,10.359597384624568,1.1181795415407136,1.923868529235741,51.96368156110574
31/01/2020, 10:55:50,1.1184741,1.0681788,10.243499,1.0669525,-0.20502824,0.26438862,-0.7146025,-0.34745097,1.3584738,-27.86966,34.01413,-27.686554,10.359597384624568,1.1181795415407136,1.5737947366980218,51.96368156110574
31/01/2020, 10:55:50,1.1184741,1.0681788,10.243499,1.0669525,-0.20502824,0.26438862,-0.7146025,-0.34745097,1.3584738,-27.76802,33.699135,-28.692444,10.359597384624568,1.1181795415407136,1.5737947366980218,52.24893292420357
31/01/2020, 10:55:50,1.6070582,0.9651929,10.229129,1.0669525,-0.20502824,0.26438862,-0.7146025,-0.34745097,1.3584738,-27.76802,33.699135,-28.692444,10.399486049356849,1.1181795415407136,1.5737947366980218,52.24893292420357
31/01/2020, 10:55:50,2.0860622,1.0298585,10.32972,1.0669525,-0.20502824,0.26438862,-0.7146025,-0.34745097,1.3584738,-27.76802,33.699135,-28.692444,10.588454551413532,1.1181795415407136,1.5737947366980218,52.24893292420357
31/01/2020, 10:55:50,2.0860622,1.0298585,10.32972,1.0669525,-0.20502824,0.26438862,-1.3114716,-0.23277688,0.8914232,-27.76802,33.699135,-28.692444,10.588454551413532,1.1181795415407136,1.6027408248833777,52.24893292420357
31/01/2020, 10:55:50,2.0860622,1.0298585,10.32972,1.0669525,-0.20502824,0.26438862,-1.3114716,-0.23277688,0.8914232,-27.926712,33.151154,-29.410965,10.588454551413532,1.1181795415407136,1.6027408248833777,52.382297467978134
31/01/2020, 10:55:50,2.4788454,1.0801538,10.346485,1.0669525,-0.20502824,0.26438862,-1.3114716,-0.23277688,0.8914232,-27.926712,33.151154,-29.410965,10.69397780524544,1.1181795415407136,1.6027408248833777,52.382297467978134
31/01/2020, 10:55:50,2.3950195,0.98435307,10.425521,1.0669525,-0.20502824,0.26438862,-1.3114716,-0.23277688,0.8914232,-27.926712,33.151154,-29.410965,10.742278877619537,1.1181795415407136,1.6027408248833777,52.382297467978134
31/01/2020, 10:55:50,2.3950195,0.98435307,10.425521,1.0669525,-0.20502824,0.26438862,-0.7935885,-0.71466374,0.7924862,-27.926712,33.151154,-29.410965,10.742278877619537,1.1181795415407136,1.3298726883401129,52.382297467978134
31/01/2020, 10:55:50,2.3950195,0.98435307,10.425521,1.0669525,-0.20502824,0.26438862,-0.7935885,-0.71466374,0.7924862,-27.686386,32.206894,-30.306198,10.742278877619537,1.1181795415407136,1.3298726883401129,52.17552717770197
31/01/2020, 10:55:50,2.3950195,0.98435307,10.425521,1.0669525,-0.20502824,0.26438862,0.13802636,-0.9181844,0.9185953,-27.686386,32.206894,-30.306198,10.742278877619537,1.1181795415407136,1.306113018758712,52.17552717770197
31/01/2020, 10:55:50,1.9687061,0.7496411,10.521321,1.0669525,-0.20502824,0.26438862,0.13802636,-0.9181844,0.9185953,-27.686386,32.206894,-30.306198,10.730142937903091,1.1181795415407136,1.306113018758712,52.17552717770197
31/01/2020, 10:55:50,1.6741188,0.8765772,10.5620365,1.0669525,-0.20502824,0.26438862,0.13802636,-0.9181844,0.9185953,-27.686386,32.206894,-30.306198,10.729756592175796,1.1181795415407136,1.306113018758712,52.17552717770197
31/01/2020, 10:55:51,-0.76401126,-8.538245,6.100115,-3.6831338,0.5206794,-0.11801286,-0.6595652,-6.6886234,-2.2865877,-0.67707825,43.426216,-28.450134,10.521252072443279,3.72162719454217,7.099379762483901,51.92017741041689
31/01/2020, 10:55:51,-0.732876,-8.102351,7.082073,-3.6831338,0.5206794,-0.11801286,-0.6595652,-6.6886234,-2.2865877,-0.67707825,43.426216,-28.450134,10.786146809463089,3.72162719454217,7.099379762483901,51.92017741041689
31/01/2020, 10:55:51,-0.732876,-8.102351,7.082073,-3.6831338,0.5206794,-0.11801286,-0.62134886,-4.6197047,-2.9181275,-0.67707825,43.426216,-28.450134,10.786146809463089,3.72162719454217,5.499383097683122,51.92017741041689
31/01/2020, 10:55:51,-0.732876,-8.102351,7.082073,-3.6831338,0.5206794,-0.11801286,-0.62134886,-4.6197047,-2.9181275,0.36335754,46.0222,-25.270157,10.786146809463089,3.72162719454217,5.499383097683122,52.504817787168015
31/01/2020, 10:55:51,-0.732876,-8.102351,7.082073,-2.8291445,1.590915,-0.59326583,-0.62134886,-4.6197047,-2.9181275,0.36335754,46.0222,-25.270157,10.786146809463089,3.299550461523001,5.499383097683122,52.504817787168015
31/01/2020, 10:55:51,0.13891114,-6.9024467,6.816226,-2.8291445,1.590915,-0.59326583,-0.62134886,-4.6197047,-2.9181275,0.36335754,46.0222,-25.270157,9.70175264357935,3.299550461523001,5.499383097683122,52.504817787168015
31/01/2020, 10:55:51,1.3076807,-6.215076,6.236631,-2.8291445,1.590915,-0.59326583,-0.62134886,-4.6197047,-2.9181275,0.36335754,46.0222,-25.270157,8.901278749719822,3.299550461523001,5.499383097683122,52.504817787168015
31/01/2020, 10:55:51,1.3076807,-6.215076,6.236631,-2.8291445,1.590915,-0.59326583,-0.93800896,-5.4458904,-3.7153234,0.36335754,46.0222,-25.270157,8.901278749719822,3.299550461523001,6.6589197081949925,52.504817787168015
31/01/2020, 10:55:51,1.3076807,-6.215076,6.236631,-2.8291445,1.590915,-0.59326583,-0.93800896,-5.4458904,-3.7153234,0.34683228,47.627388,-22.322449,8.901278749719822,3.299550461523001,6.6589197081949925,52.60019104243552
31/01/2020, 10:55:51,1.83219,-6.9168167,7.101233,-2.8291445,1.590915,-0.59326583,-0.93800896,-5.4458904,-3.7153234,0.34683228,47.627388,-22.322449,10.081011057877609,3.299550461523001,6.6589197081949925,52.60019104243552
31/01/2020, 10:55:51,1.9112257,-8.238868,8.298743,-2.8291445,1.590915,-0.59326583,-0.93800896,-5.4458904,-3.7153234,0.34683228,47.627388,-22.322449,11.84908709751696,3.299550461523001,6.6589197081949925,52.60019104243552
31/01/2020, 10:55:51,1.9112257,-8.238868,8.298743,-2.8291445,1.590915,-0.59326583,-2.046479,-5.5321693,-3.143918,0.34683228,47.627388,-22.322449,11.84908709751696,3.299550461523001,6.684100126282365,52.60019104243552
31/01/2020, 10:55:51,1.9112257,-8.238868,8.298743,-2.8291445,1.590915,-0.59326583,-2.046479,-5.5321693,-3.143918,0.8569641,48.632423,-18.977264,11.84908709751696,3.299550461523001,6.684100126282365,52.210952467859194
31/01/2020, 10:55:51,0.69216067,-9.848321,9.565708,-2.8291445,1.590915,-0.59326583,-2.046479,-5.5321693,-3.143918,0.8569641,48.632423,-18.977264,13.746682681590347,3.299550461523001,6.684100126282365,52.210952467859194
31/01/2020, 10:55:51,-0.41194338,-11.218272,9.402847,-2.8291445,1.590915,-0.59326583,-2.046479,-5.5321693,-3.143918,0.8569641,48.632423,-18.977264,14.643526414899439,3.299550461523001,6.684100126282365,52.210952467859194
31/01/2020, 10:55:51,-0.41194338,-11.218272,9.402847,-2.8291445,1.590915,-0.59326583,-0.87506807,-3.1955917,-2.2043924,0.8569641,48.632423,-18.977264,14.643526414899439,3.299550461523001,3.9795598200467066,52.210952467859194
31/01/2020, 10:55:51,-0.41194338,-11.218272,9.402847,-2.8291445,1.590915,-0.59326583,-0.87506807,-3.1955917,-2.2043924,1.0098572,49.573723,-16.005905,14.643526414899439,3.299550461523001,3.9795598200467066,52.10338575742673
31/01/2020, 10:55:51,-0.41194338,-11.218272,9.402847,-2.8291445,1.590915,-0.59326583,1.0678627,-2.5379376,-1.6388593,1.0098572,49.573723,-16.005905,14.643526414899439,3.299550461523001,3.204265599896513,52.10338575742673
31/01/2020, 10:55:51,-0.2682422,-11.836187,9.297466,-2.8291445,1.590915,-0.59326583,1.0678627,-2.5379376,-1.6388593,1.0098572,49.573723,-16.005905,15.053576464067264,3.299550461523001,3.204265599896513,52.10338575742673
31/01/2020, 10:55:51,0.18441652,-11.203902,9.685459,-2.8291445,1.590915,-0.59326583,1.0678627,-2.5379376,-1.6388593,1.0098572,49.573723,-16.005905,14.811129384742417,3.299550461523001,3.204265599896513,52.10338575742673
31/01/2020, 10:55:52,-1.2789404,-9.433982,2.8404932,-1.5927538,-1.9288893,-1.2920954,2.3691297,-1.3607693,-1.0647326,-8.7117,50.033096,9.355629,9.934993944764077,2.8154908951207274,2.932255744781518,51.640412901465986
31/01/2020, 10:55:52,-1.22146,-8.672366,2.5842261,-1.5927538,-1.9288893,-1.2920954,2.3691297,-1.3607693,-1.0647326,-8.7117,50.033096,9.355629,9.131271745954813,2.8154908951207274,2.932255744781518,51.640412901465986
31/01/2020, 10:55:52,-1.2334352,-8.4376545,2.1818628,-1.5927538,-1.9288893,-1.2920954,2.3691297,-1.3607693,-1.0647326,-8.7117,50.033096,9.355629,8.802039597380984,2.8154908951207274,2.932255744781518,51.640412901465986
31/01/2020, 10:55:52,-1.2334352,-8.4376545,2.1818628,-1.5927538,-1.9288893,-1.2920954,2.3691297,-1.3607693,-1.0647326,-9.212891,49.449753,12.28627,8.802039597380984,2.8154908951207274,2.932255744781518,51.7794152187437
31/01/2020, 10:55:52,-1.1687696,-8.456815,2.0142114,-1.5927538,-1.9288893,-1.2920954,2.3691297,-1.3607693,-1.0647326,-9.212891,49.449753,12.28627,8.77158970699213,2.8154908951207274,2.932255744781518,51.7794152187437
31/01/2020, 10:55:52,-1.2406201,-8.471185,2.2369483,-1.5927538,-1.9288893,-1.2920954,2.3691297,-1.3607693,-1.0647326,-9.212891,49.449753,12.28627,8.848957370343093,2.8154908951207274,2.932255744781518,51.7794152187437
31/01/2020, 10:55:52,-1.2406201,-8.471185,2.2369483,-1.5927538,-1.9288893,-1.2920954,1.8710943,-1.1840086,-1.4213624,-9.212891,49.449753,12.28627,8.848957370343093,2.8154908951207274,2.631186326547528,51.7794152187437
31/01/2020, 10:55:52,-1.2406201,-8.471185,2.2369483,-1.5927538,-1.9288893,-1.2920954,1.8710943,-1.1840086,-1.4213624,-10.226639,49.080765,14.194435,8.848957370343093,2.8154908951207274,2.631186326547528,52.10554288984141
31/01/2020, 10:55:52,-1.2406201,-8.471185,2.2369483,-0.5115227,-0.98693544,-2.0055857,1.8710943,-1.1840086,-1.4213624,-10.226639,49.080765,14.194435,8.848957370343093,2.2930483904707923,2.631186326547528,52.10554288984141
31/01/2020, 10:55:52,-1.2406201,-8.471185,2.2369483,-0.5115227,-0.98693544,-2.0055857,1.5147054,-0.03361702,-2.0556037,-10.226639,49.080765,14.194435,8.848957370343093,2.2930483904707923,2.5536188749663618,52.10554288984141
31/01/2020, 10:55:52,-1.4034815,-8.749006,2.6129665,-0.5115227,-0.98693544,-2.0055857,1.5147054,-0.03361702,-2.0556037,-10.226639,49.080765,14.194435,9.238098567168338,2.2930483904707923,2.5536188749663618,52.10554288984141
31/01/2020, 10:55:52,-1.2645704,-9.196876,3.1015503,-0.5115227,-0.98693544,-2.0055857,1.5147054,-0.03361702,-2.0556037,-10.226639,49.080765,14.194435,9.787812472151794,2.2930483904707923,2.5536188749663618,52.10554288984141
31/01/2020, 10:55:52,-1.2645704,-9.196876,3.1015503,-0.5115227,-0.98693544,-2.0055857,1.5147054,-0.03361702,-2.0556037,-11.049347,47.871902,15.905342,9.787812472151794,2.2930483904707923,2.5536188749663618,51.640943257490875
31/01/2020, 10:55:52,-0.9987232,-9.520203,3.2811768,-0.5115227,-0.98693544,-2.0055857,1.5147054,-0.03361702,-2.0556037,-11.049347,47.871902,15.905342,10.119181168509487,2.2930483904707923,2.5536188749663618,51.640943257490875
31/01/2020, 10:55:52,-0.43589357,-9.68067,3.288362,-0.5115227,-0.98693544,-2.0055857,1.5147054,-0.03361702,-2.0556037,-11.049347,47.871902,15.905342,10.233215305720949,2.2930483904707923,2.5536188749663618,51.640943257490875
31/01/2020, 10:55:52,-0.43589357,-9.68067,3.288362,-0.5115227,-0.98693544,-2.0055857,1.0743577,0.09461594,-1.935056,-11.049347,47.871902,15.905342,10.233215305720949,2.2930483904707923,2.2153190193784575,51.640943257490875
31/01/2020, 10:55:52,-0.43589357,-9.68067,3.288362,-0.5115227,-0.98693544,-2.0055857,1.0743577,0.09461594,-1.935056,-11.84465,47.611305,17.164673,10.233215305720949,2.2930483904707923,2.2153190193784575,51.97843899578787
31/01/2020, 10:55:52,-0.028740235,-9.73815,2.9530592,-0.5115227,-0.98693544,-2.0055857,1.0743577,0.09461594,-1.935056,-11.84465,47.611305,17.164673,10.176096652810193,2.2930483904707923,2.2153190193784575,51.97843899578787
31/01/2020, 10:55:52,-0.038320314,-9.730965,2.7901978,-0.5115227,-0.98693544,-2.0055857,1.0743577,0.09461594,-1.935056,-11.84465,47.611305,17.164673,10.123158880076907,2.2930483904707923,2.2153190193784575,51.97843899578787
31/01/2020, 10:55:52,-0.038320314,-9.730965,2.7901978,-0.5115227,-0.98693544,-2.0055857,0.5815687,-0.49555779,-1.0250087,-11.84465,47.611305,17.164673,10.123158880076907,2.2930483904707923,1.2784531602226525,51.97843899578787
31/01/2020, 10:55:53,7.462881,-4.430786,5.494175,1.0865002,-0.1390548,-0.27195084,0.45446587,0.18228006,-2.4863563,-33.358475,-27.400635,-19.40503,10.271923790280821,1.1286169028634536,2.5341137876352904,47.33009385137779
31/01/2020, 10:55:53,7.462881,-4.430786,5.494175,1.0865002,-0.1390548,-0.27195084,-1.0118794,-0.7202749,2.2441187,-33.358475,-27.400635,-19.40503,10.271923790280821,1.1286169028634536,2.564910266337781,47.33009385137779
31/01/2020, 10:55:53,7.462881,-4.430786,5.494175,1.0865002,-0.1390548,-0.27195084,-1.0118794,-0.7202749,2.2441187,-33.69603,-28.602234,-18.692398,10.271923790280821,1.1286169028634536,2.564910266337781,47.9887064216328
31/01/2020, 10:55:53,7.462881,-4.430786,5.494175,1.0865002,-0.1390548,-0.27195084,-0.8106632,1.6876534,0.25648594,-33.69603,-28.602234,-18.692398,10.271923790280821,1.1286169028634536,1.889744419878976,47.9887064216328
31/01/2020, 10:55:53,7.462881,-4.430786,5.494175,1.0865002,-0.1390548,-0.27195084,-0.8106632,1.6876534,0.25648594,-33.25157,-28.180054,-19.385101,10.271923790280821,1.1286169028634536,1.889744419878976,47.702878297018565
31/01/2020, 10:55:53,9.05557,-2.8620484,5.9300685,1.0865002,-0.1390548,-0.27195084,-0.8106632,1.6876534,0.25648594,-33.25157,-28.180054,-19.385101,11.196444746710347,1.1286169028634536,1.889744419878976,47.702878297018565
31/01/2020, 10:55:53,9.05557,-2.8620484,5.9300685,1.0865002,-0.1390548,-0.27195084,1.2283039,1.4536891,-3.3297546,-33.25157,-28.180054,-19.385101,11.196444746710347,1.1286169028634536,3.835258547281793,47.702878297018565
31/01/2020, 10:55:53,9.05557,-2.8620484,5.9300685,1.0865002,-0.1390548,-0.27195084,1.2283039,1.4536891,-3.3297546,-33.088104,-28.604065,-18.68637,11.196444746710347,1.1286169028634536,3.835258547281793,47.56254439609949
31/01/2020, 10:55:53,9.05557,-2.8620484,5.9300685,1.0865002,-0.1390548,-0.27195084,2.2544775,-2.2371013,-0.060242653,-33.088104,-28.604065,-18.68637,11.196444746710347,1.1286169028634536,3.176620890102139,47.56254439609949
31/01/2020, 10:55:53,9.05557,-2.8620484,5.9300685,1.0865002,-0.1390548,-0.27195084,2.2544775,-2.2371013,-0.060242653,-32.665436,-28.637482,-17.701736,11.196444746710347,1.1286169028634536,3.176620890102139,46.90935435798388
31/01/2020, 10:55:53,9.05557,-2.8620484,5.9300685,1.3161854,-0.31620565,-0.25606835,2.2544775,-2.2371013,-0.060242653,-32.665436,-28.637482,-17.701736,11.196444746710347,1.377643241902245,3.176620890102139,46.90935435798388
31/01/2020, 10:55:53,9.05557,-2.8620484,5.9300685,1.3161854,-0.31620565,-0.25606835,0.4187975,0.23287177,2.467179,-32.665436,-28.637482,-17.701736,11.196444746710347,1.377643241902245,2.5132833337698273,46.90935435798388
31/01/2020, 10:55:53,9.05557,-2.8620484,5.9300685,1.3161854,-0.31620565,-0.25606835,0.4187975,0.23287177,2.467179,-33.008224,-30.27214,-16.387726,11.196444746710347,1.377643241902245,2.5132833337698273,47.69174910102613
31/01/2020, 10:55:53,9.05557,-2.8620484,5.9300685,1.3161854,-0.31620565,-0.25606835,-0.89797735,2.7599676,-1.4590616,-33.008224,-30.27214,-16.387726,11.196444746710347,1.377643241902245,3.24848350871225,47.69174910102613
31/01/2020, 10:55:53,9.05557,-2.8620484,5.9300685,1.3161854,-0.31620565,-0.25606835,-0.89797735,2.7599676,-1.4590616,-33.13562,-30.46643,-16.252747,11.196444746710347,1.377643241902245,3.24848350871225,47.85733475046868
31/01/2020, 10:55:53,10.066268,-1.6310084,6.449788,1.3161854,-0.31620565,-0.25606835,-0.89797735,2.7599676,-1.4590616,-33.13562,-30.46643,-16.252747,12.06605592549107,1.377643241902245,3.24848350871225,47.85733475046868
31/01/2020, 10:55:53,10.066268,-1.6310084,6.449788,1.3161854,-0.31620565,-0.25606835,0.49141407,-0.79226255,-2.5988257,-33.13562,-30.46643,-16.252747,12.06605592549107,1.377643241902245,2.7609894469798757,47.85733475046868
31/01/2020, 10:55:53,10.066268,-1.6310084,6.449788,1.3161854,-0.31620565,-0.25606835,0.49141407,-0.79226255,-2.5988257,-32.740555,-31.450745,-15.159134,12.06605592549107,1.377643241902245,2.7609894469798757,47.863269924722125
31/01/2020, 10:55:53,10.066268,-1.6310084,6.449788,1.3161854,-0.31620565,-0.25606835,2.436616,-2.640935,0.35579062,-32.740555,-31.450745,-15.159134,12.06605592549107,1.377643241902245,3.610847767372344,47.863269924722125
31/01/2020, 10:55:53,10.066268,-1.6310084,6.449788,1.3161854,-0.31620565,-0.25606835,2.436616,-2.640935,0.35579062,-32.491837,-31.703583,-13.854263,12.06605592549107,1.377643241902245,3.610847767372344,47.46343028109077
31/01/2020, 10:55:54,8.308323,-3.8727467,1.6765138,2.0846536,0.36429796,-0.15710822,-0.75728846,1.0807698,-0.7768024,-41.039886,-23.655396,2.997818,9.31864233991057,2.1220689648102766,1.5313298526871506,47.46405936284843
31/01/2020, 10:55:54,8.389753,-4.150569,1.7507594,2.0846536,0.36429796,-0.15710822,-0.75728846,1.0807698,-0.7768024,-41.039886,-23.655396,2.997818,9.52262265297806,2.1220689648102766,1.5313298526871506,47.46405936284843
31/01/2020, 10:55:54,8.157437,-4.591253,1.8274,2.0846536,0.36429796,-0.15710822,-0.75728846,1.0807698,-0.7768024,-41.039886,-23.655396,2.997818,9.537440781416704,2.1220689648102766,1.5313298526871506,47.46405936284843
31/01/2020, 10:55:54,8.157437,-4.591253,1.8274,2.0846536,0.36429796,-0.15710822,-0.75728846,1.0807698,-0.7768024,-41.050964,-23.620895,2.9919434,9.537440781416704,2.1220689648102766,1.5313298526871506,47.45608599962549
31/01/2020, 10:55:54,8.157437,-4.591253,1.8274,0.051694836,0.3533024,0.04936415,-0.75728846,1.0807698,-0.7768024,-41.050964,-23.620895,2.9919434,9.537440781416704,0.3604604745657664,1.5313298526871506,47.45608599962549
31/01/2020, 10:55:54,7.8676395,-5.046306,1.8537452,0.051694836,0.3533024,0.04936415,-0.75728846,1.0807698,-0.7768024,-41.050964,-23.620895,2.9919434,9.52897312915014,0.3604604745657664,1.5313298526871506,47.45608599962549
31/01/2020, 10:55:54,7.7502837,-5.1612673,1.9878663,0.051694836,0.3533024,0.04936415,-0.75728846,1.0807698,-0.7768024,-41.050964,-23.620895,2.9919434,9.52140693436177,0.3604604745657664,1.5313298526871506,47.45608599962549
31/01/2020, 10:55:54,7.7502837,-5.1612673,1.9878663,0.051694836,0.3533024,0.04936415,-0.010437012,0.7345216,-0.7143235,-41.050964,-23.620895,2.9919434,9.52140693436177,0.3604604745657664,1.0246409344443754,47.45608599962549
31/01/2020, 10:55:54,7.7502837,-5.1612673,1.9878663,0.051694836,0.3533024,0.04936415,-0.010437012,0.7345216,-0.7143235,-41.087036,-23.592682,4.8488617,9.52140693436177,0.3604604745657664,1.0246409344443754,47.62636492979058
31/01/2020, 10:55:54,7.7215433,-5.0846267,2.196233,0.051694836,0.3533024,0.04936415,-0.010437012,0.7345216,-0.7143235,-41.087036,-23.592682,4.8488617,9.50258381078642,0.3604604745657664,1.0246409344443754,47.62636492979058
31/01/2020, 10:55:54,7.673643,-5.149292,2.4261549,0.051694836,0.3533024,0.04936415,-0.010437012,0.7345216,-0.7143235,-41.087036,-23.592682,4.8488617,9.554382973244124,0.3604604745657664,1.0246409344443754,47.62636492979058
31/01/2020, 10:55:54,7.673643,-5.149292,2.4261549,0.051694836,0.3533024,0.04936415,-0.14170265,0.024801254,-0.6146996,-41.087036,-23.592682,4.8488617,9.554382973244124,0.3604604745657664,0.631308438598867,47.62636492979058
31/01/2020, 10:55:54,7.673643,-5.149292,2.4261549,0.051694836,0.3533024,0.04936415,-0.14170265,0.024801254,-0.6146996,-41.187927,-23.695847,4.258499,9.554382973244124,0.3604604745657664,0.631308438598867,47.70821008887192
31/01/2020, 10:55:54,7.673643,-5.149292,2.4261549,0.051694836,0.3533024,0.04936415,-0.5252147,-0.5417547,-0.5267558,-41.187927,-23.695847,4.258499,9.554382973244124,0.3604604745657664,0.9202284033719605,47.70821008887192
31/01/2020, 10:55:54,7.5203614,-5.5540504,2.792593,0.051694836,0.3533024,0.04936415,-0.5252147,-0.5417547,-0.5267558,-41.187927,-23.695847,4.258499,9.757145482585774,0.3604604745657664,0.9202284033719605,47.70821008887192
31/01/2020, 10:55:54,7.5131764,-5.848638,3.0177248,0.051694836,0.3533024,0.04936415,-0.5252147,-0.5417547,-0.5267558,-41.187927,-23.695847,4.258499,9.988045356724028,0.3604604745657664,0.9202284033719605,47.70821008887192
31/01/2020, 10:55:54,7.5131764,-5.848638,3.0177248,0.051694836,0.3533024,0.04936415,-0.5252147,-0.5417547,-0.5267558,-41.373703,-23.693024,4.2536926,9.988045356724028,0.3604604745657664,0.9202284033719605,47.86686298806317
31/01/2020, 10:55:54,7.5706573,-5.894143,3.2284865,0.051694836,0.3533024,0.04936415,-0.5252147,-0.5417547,-0.5267558,-41.373703,-23.693024,4.2536926,10.123186233048807,0.3604604745657664,0.9202284033719605,47.86686298806317
31/01/2020, 10:55:54,7.8532696,-5.7001467,3.0201197,0.051694836,0.3533024,0.04936415,-0.5252147,-0.5417547,-0.5267558,-41.373703,-23.693024,4.2536926,10.163003393216771,0.3604604745657664,0.9202284033719605,47.86686298806317
31/01/2020, 10:55:54,7.8532696,-5.7001467,3.0201197,0.051694836,0.3533024,0.04936415,-0.58226585,-0.54541874,-0.17997599,-41.373703,-23.693024,4.2536926,10.163003393216771,0.3604604745657664,0.817867031678506,47.86686298806317
31/01/2020, 10:55:55,8.162227,-8.097562,0.65384036,0.11644653,-0.24290186,-0.16077341,0.66155815,-0.79185295,0.27448335,-42.270447,-4.6068573,27.71666,11.516073950694366,0.3137024053133828,1.0677225269629378,50.75654658583716
31/01/2020, 10:55:55,8.303533,-8.128696,0.6945557,0.11644653,-0.24290186,-0.16077341,0.66155815,-0.79185295,0.27448335,-42.270447,-4.6068573,27.71666,11.640737395311868,0.3137024053133828,1.0677225269629378,50.75654658583716
31/01/2020, 10:55:55,8.303533,-8.128696,0.6945557,0.11644653,-0.24290186,-0.16077341,0.66155815,-0.79185295,0.27448335,-41.616623,-4.421051,28.699158,11.640737395311868,0.3137024053133828,1.0677225269629378,50.74574513568563
31/01/2020, 10:55:55,8.353828,-8.183782,0.5340894,0.11644653,-0.24290186,-0.16077341,0.66155815,-0.79185295,0.27448335,-41.616623,-4.421051,28.699158,11.706664024403043,0.3137024053133828,1.0677225269629378,50.74574513568563
31/01/2020, 10:55:55,8.150251,-8.485555,0.36164796,0.11644653,-0.24290186,-0.16077341,0.66155815,-0.79185295,0.27448335,-41.616623,-4.421051,28.699158,11.771237208981539,0.3137024053133828,1.0677225269629378,50.74574513568563
31/01/2020, 10:55:55,8.150251,-8.485555,0.36164796,0.11644653,-0.24290186,-0.16077341,0.9188757,-0.7779951,0.27214688,-41.616623,-4.421051,28.699158,11.771237208981539,0.3137024053133828,1.2343714419332392,50.74574513568563
31/01/2020, 10:55:55,8.150251,-8.485555,0.36164796,0.11644653,-0.24290186,-0.16077341,0.9188757,-0.7779951,0.27214688,-41.645966,-3.983017,28.376472,11.771237208981539,0.3137024053133828,1.2343714419332392,50.551706825352525
31/01/2020, 10:55:55,8.150251,-8.485555,0.36164796,0.11644653,-0.24290186,-0.16077341,1.1783104,-1.2278972,0.20363241,-41.645966,-3.983017,28.376472,11.771237208981539,0.3137024053133828,1.7139466148884075,50.551706825352525
31/01/2020, 10:55:55,7.92991,-8.586145,0.35925296,0.11644653,-0.24290186,-0.16077341,1.1783104,-1.2278972,0.20363241,-41.645966,-3.983017,28.376472,11.693349864163485,0.3137024053133828,1.7139466148884075,50.551706825352525
31/01/2020, 10:55:55,7.965835,-8.416099,0.50774413,0.11644653,-0.24290186,-0.16077341,1.1783104,-1.2278972,0.20363241,-41.645966,-3.983017,28.376472,11.599269305098849,0.3137024053133828,1.7139466148884075,50.551706825352525
31/01/2020, 10:55:55,7.965835,-8.416099,0.50774413,0.11644653,-0.24290186,-0.16077341,1.1783104,-1.2278972,0.20363241,-41.44388,-3.9886475,28.735153,11.599269305098849,0.3137024053133828,1.7139466148884075,50.58866845432086
31/01/2020, 10:55:55,7.965835,-8.416099,0.50774413,0.46708307,-0.08896387,-0.6177004,1.1783104,-1.2278972,0.20363241,-41.44388,-3.9886475,28.735153,11.599269305098849,0.7795094250044465,1.7139466148884075,50.58866845432086
31/01/2020, 10:55:55,7.965835,-8.416099,0.50774413,0.46708307,-0.08896387,-0.6177004,1.2996998,-1.3879013,0.05713135,-41.44388,-3.9886475,28.735153,11.599269305098849,0.7795094250044465,1.9023021719885578,50.58866845432086
31/01/2020, 10:55:55,8.234077,-8.490345,0.6658155,0.46708307,-0.08896387,-0.6177004,1.2996998,-1.3879013,0.05713135,-41.44388,-3.9886475,28.735153,11.846066857628877,0.7795094250044465,1.9023021719885578,50.58866845432086
31/01/2020, 10:55:55,8.6627865,-8.801697,0.5963599,0.46708307,-0.08896387,-0.6177004,1.2996998,-1.3879013,0.05713135,-41.44388,-3.9886475,28.735153,12.364035787887437,0.7795094250044465,1.9023021719885578,50.58866845432086
31/01/2020, 10:55:55,8.6627865,-8.801697,0.5963599,0.46708307,-0.08896387,-0.6177004,1.2996998,-1.3879013,0.05713135,-41.704376,-4.294876,28.92781,12.364035787887437,0.7795094250044465,1.9023021719885578,50.936422987474316
31/01/2020, 10:55:55,8.6627865,-8.801697,0.5963599,0.46708307,-0.08896387,-0.6177004,0.80216646,-1.8709097,-0.162882,-41.704376,-4.294876,28.92781,12.364035787887437,0.7795094250044465,2.042132378177967,50.936422987474316
31/01/2020, 10:55:55,8.971744,-8.902288,0.76401126,0.46708307,-0.08896387,-0.6177004,0.80216646,-1.8709097,-0.162882,-41.704376,-4.294876,28.92781,12.662015461850993,0.7795094250044465,2.042132378177967,50.936422987474316
31/01/2020, 10:55:55,9.08431,-8.737032,0.9436377,0.46708307,-0.08896387,-0.6177004,0.80216646,-1.8709097,-0.162882,-41.704376,-4.294876,28.92781,12.639258670225074,0.7795094250044465,2.042132378177967,50.936422987474316
31/01/2020, 10:55:55,9.08431,-8.737032,0.9436377,0.46708307,-0.08896387,-0.6177004,0.80216646,-1.8709097,-0.162882,-41.189438,-4.55719,29.869652,12.639258670225074,0.7795094250044465,2.042132378177967,51.0835968801847
31/01/2020, 10:55:56,9.335787,-4.624783,2.5962012,2.250809,-0.47503057,0.5221737,-1.3368449,0.41775632,1.6393118,-41.579117,-20.080933,17.60543,10.737122252792506,2.3589108435646238,2.1561581184059406,49.416778498121865
31/01/2020, 10:55:56,9.273516,-3.2021413,2.907554,2.250809,-0.47503057,0.5221737,-1.3368449,0.41775632,1.6393118,-41.579117,-20.080933,17.60543,10.232578952417946,2.3589108435646238,2.1561581184059406,49.416778498121865
31/01/2020, 10:55:56,9.273516,-3.2021413,2.907554,2.250809,-0.47503057,0.5221737,-2.629157,0.5515729,0.106918335,-41.579117,-20.080933,17.60543,10.232578952417946,2.3589108435646238,2.6885183828121266,49.416778498121865
31/01/2020, 10:55:56,9.273516,-3.2021413,2.907554,2.250809,-0.47503057,0.5221737,-2.629157,0.5515729,0.106918335,-41.496674,-19.12883,19.627365,10.232578952417946,2.3589108435646238,2.6885183828121266,49.730468681434296
31/01/2020, 10:55:56,8.190968,-1.2717555,1.9854712,2.250809,-0.47503057,0.5221737,-2.629157,0.5515729,0.106918335,-41.496674,-19.12883,19.627365,8.523579505540681,2.3589108435646238,2.6885183828121266,49.730468681434296
31/01/2020, 10:55:56,6.919212,-0.7544312,1.947151,2.250809,-0.47503057,0.5221737,-2.629157,0.5515729,0.106918335,-41.496674,-19.12883,19.627365,7.227451559728934,2.3589108435646238,2.6885183828121266,49.730468681434296
31/01/2020, 10:55:56,6.919212,-0.7544312,1.947151,2.250809,-0.47503057,0.5221737,-0.08683014,-1.7014675,-1.4369142,-41.496674,-19.12883,19.627365,7.227451559728934,2.3589108435646238,2.228733633368555,49.730468681434296
31/01/2020, 10:55:56,6.919212,-0.7544312,1.947151,2.250809,-0.47503057,0.5221737,-0.08683014,-1.7014675,-1.4369142,-41.686737,-18.583511,20.564438,7.227451559728934,2.3589108435646238,2.228733633368555,50.06023417542482
31/01/2020, 10:55:56,6.919212,-0.7544312,1.947151,2.2434785,-0.30643183,0.9277881,-0.08683014,-1.7014675,-1.4369142,-41.686737,-18.583511,20.564438,7.227451559728934,2.447015964341133,2.228733633368555,50.06023417542482
31/01/2020, 10:55:56,6.3875175,-1.1304493,2.5339308,2.2434785,-0.30643183,0.9277881,-0.08683014,-1.7014675,-1.4369142,-41.686737,-18.583511,20.564438,6.964129522171651,2.447015964341133,2.228733633368555,50.06023417542482
31/01/2020, 10:55:56,6.3994923,-0.3784131,3.6811452,2.2434785,-0.30643183,0.9277881,-0.08683014,-1.7014675,-1.4369142,-41.686737,-18.583511,20.564438,7.39239660973045,2.447015964341133,2.228733633368555,50.06023417542482
31/01/2020, 10:55:56,6.3994923,-0.3784131,3.6811452,2.2434785,-0.30643183,0.9277881,0.5341339,-1.4376948,-1.1745353,-41.686737,-18.583511,20.564438,7.39239660973045,2.447015964341133,1.931786336389809,50.06023417542482
31/01/2020, 10:55:56,6.3994923,-0.3784131,3.6811452,2.2434785,-0.30643183,0.9277881,0.5341339,-1.4376948,-1.1745353,-41.631653,-17.358322,22.25148,7.39239660973045,2.447015964341133,1.931786336389809,50.29546929813747
31/01/2020, 10:55:56,6.3994923,-0.3784131,3.6811452,2.2434785,-0.30643183,0.9277881,-1.827107,0.9755728,-2.130761,-41.631653,-17.358322,22.25148,7.39239660973045,2.447015964341133,2.971565950798788,50.29546929813747
31/01/2020, 10:55:56,5.1828227,0.56522465,-1.2358302,2.2434785,-0.30643183,0.9277881,-1.827107,0.9755728,-2.130761,-41.631653,-17.358322,22.25148,5.358022614696865,2.447015964341133,2.971565950798788,50.29546929813747
31/01/2020, 10:55:56,4.5840673,-4.4379716,-4.703819,2.2434785,-0.30643183,0.9277881,-1.827107,0.9755728,-2.130761,-41.631653,-17.358322,22.25148,7.92686423224283,2.447015964341133,2.971565950798788,50.29546929813747
31/01/2020, 10:55:56,4.5840673,-4.4379716,-4.703819,2.2434785,-0.30643183,0.9277881,-1.827107,0.9755728,-2.130761,-41.901245,-16.105942,22.795784,7.92686423224283,2.447015964341133,2.971565950798788,50.34643453877699
31/01/2020, 10:55:56,3.532654,-1.3603711,-0.16765137,2.2434785,-0.30643183,0.9277881,-1.827107,0.9755728,-2.130761,-41.901245,-16.105942,22.795784,3.7892428217780285,2.447015964341133,2.971565950798788,50.34643453877699
31/01/2020, 10:55:56,6.1552005,-3.4464333,8.1071415,2.2434785,-0.30643183,0.9277881,-1.827107,0.9755728,-2.130761,-41.901245,-16.105942,22.795784,10.746633831727888,2.447015964341133,2.971565950798788,50.34643453877699
31/01/2020, 10:55:56,6.1552005,-3.4464333,8.1071415,2.2434785,-0.30643183,0.9277881,-2.3087673,1.4411045,-0.43929744,-41.901245,-16.105942,22.795784,10.746633831727888,2.447015964341133,2.756840771763233,50.34643453877699
31/01/2020, 10:55:57,1.3148658,4.4475513,9.13221,0.07124252,0.3826239,0.56859946,0.3355428,0.4459505,0.6886864,11.444534,21.551231,-53.623062,10.242403999855968,0.6890441948344953,0.8864252604717856,58.91405377468923
31/01/2020, 10:55:57,1.214275,4.5840673,9.09868,0.07124252,0.3826239,0.56859946,0.3355428,0.4459505,0.6886864,11.444534,21.551231,-53.623062,10.260317081842006,0.6890441948344953,0.8864252604717856,58.91405377468923
31/01/2020, 10:55:57,1.1879297,4.6990285,8.988508,0.07124252,0.3826239,0.56859946,0.3355428,0.4459505,0.6886864,11.444534,21.551231,-53.623062,10.21201870149966,0.6890441948344953,0.8864252604717856,58.91405377468923
31/01/2020, 10:55:57,1.1879297,4.6990285,8.988508,0.07124252,0.3826239,0.56859946,0.3504153,0.4658246,0.47151375,11.444534,21.551231,-53.623062,10.21201870149966,0.6890441948344953,0.7497390555939102,58.91405377468923
31/01/2020, 10:55:57,1.1879297,4.6990285,8.988508,0.07124252,0.3826239,0.56859946,0.3504153,0.4658246,0.47151375,12.158783,21.103745,-53.95987,10.21201870149966,0.6890441948344953,0.7497390555939102,59.201955535898165
31/01/2020, 10:55:57,1.1879297,4.6990285,8.988508,0.07124252,0.3826239,0.56859946,0.4082716,-0.083627224,0.63459396,12.158783,21.103745,-53.95987,10.21201870149966,0.6890441948344953,0.7592026866319344,59.201955535898165
31/01/2020, 10:55:57,0.9484278,4.6990285,8.851993,0.07124252,0.3826239,0.56859946,0.4082716,-0.083627224,0.63459396,12.158783,21.103745,-53.95987,10.066685510620987,0.6890441948344953,0.7592026866319344,59.201955535898165
31/01/2020, 10:55:57,0.72569096,4.749324,8.825647,0.07124252,0.3826239,0.56859946,0.4082716,-0.083627224,0.63459396,12.158783,21.103745,-53.95987,10.048619585491695,0.6890441948344953,0.7592026866319344,59.201955535898165
31/01/2020, 10:55:57,0.72569096,4.749324,8.825647,0.07124252,0.3826239,0.56859946,0.4082716,-0.083627224,0.63459396,13.218979,20.445015,-53.946777,10.048619585491695,0.6890441948344953,0.7592026866319344,59.18610330903728
31/01/2020, 10:55:57,0.72569096,4.749324,8.825647,0.016264668,0.377737,0.27660593,0.4082716,-0.083627224,0.63459396,13.218979,20.445015,-53.946777,10.048619585491695,0.46846623404572973,0.7592026866319344,59.18610330903728
31/01/2020, 10:55:57,0.74724615,4.775669,8.679551,0.016264668,0.377737,0.27660593,0.4082716,-0.083627224,0.63459396,13.218979,20.445015,-53.946777,9.934787358556134,0.46846623404572973,0.7592026866319344,59.18610330903728
31/01/2020, 10:55:57,0.8861573,4.8187795,8.57896,0.016264668,0.377737,0.27660593,0.4082716,-0.083627224,0.63459396,13.218979,20.445015,-53.946777,9.879497565500413,0.46846623404572973,0.7592026866319344,59.18610330903728
31/01/2020, 10:55:57,0.8861573,4.8187795,8.57896,0.016264668,0.377737,0.27660593,0.368015,-0.01955986,0.4820547,13.218979,20.445015,-53.946777,9.879497565500413,0.46846623404572973,0.6067902156008831,59.18610330903728
31/01/2020, 10:55:57,0.8861573,4.8187795,8.57896,0.016264668,0.377737,0.27660593,0.368015,-0.01955986,0.4820547,13.893814,20.431305,-53.9189,9.879497565500413,0.46846623404572973,0.6067902156008831,59.31040396320866
31/01/2020, 10:55:57,0.8861573,4.8187795,8.57896,0.016264668,0.377737,0.27660593,0.13603622,0.09763479,0.23103905,13.893814,20.431305,-53.9189,9.879497565500413,0.46846623404572973,0.2853374255448618,59.31040396320866
31/01/2020, 10:55:57,1.0514137,4.878655,8.47837,0.016264668,0.377737,0.27660593,0.13603622,0.09763479,0.23103905,13.893814,20.431305,-53.9189,9.838165370109348,0.46846623404572973,0.2853374255448618,59.31040396320866
31/01/2020, 10:55:57,1.096919,4.864285,8.358619,0.016264668,0.377737,0.27660593,0.13603622,0.09763479,0.23103905,13.893814,20.431305,-53.9189,9.732985504248793,0.46846623404572973,0.2853374255448618,59.31040396320866
31/01/2020, 10:55:57,1.096919,4.864285,8.358619,0.016264668,0.377737,0.27660593,0.13603622,0.09763479,0.23103905,13.733765,20.317657,-53.452652,9.732985504248793,0.46846623404572973,0.2853374255448618,58.80994388662007
31/01/2020, 10:55:57,1.096919,4.864285,8.358619,0.016264668,0.377737,0.27660593,-0.025899827,0.17638206,0.053951263,13.733765,20.317657,-53.452652,9.732985504248793,0.46846623404572973,0.18625834928639132,58.80994388662007
31/01/2020, 10:55:57,1.0538087,4.9241605,8.291558,0.016264668,0.377737,0.27660593,-0.025899827,0.17638206,0.053951263,13.733765,20.317657,-53.452652,9.700917877409157,0.46846623404572973,0.18625834928639132,58.80994388662007
31/01/2020, 10:56:20,0.23471193,5.108577,8.523875,-0.6996691,0.255564,-1.0086541,-0.1962806,-0.010041237,-0.07999706,21.268585,16.784088,-52.420456,9.940276424713772,1.2538871442070276,0.2121943210328774,59.00815648132645
31/01/2020, 10:56:20,6.3012967,-9.467513,4.5457473,-0.6996691,0.255564,-1.0086541,-0.1962806,-0.010041237,-0.07999706,21.268585,16.784088,-52.420456,12.247610484412366,1.2538871442070276,0.2121943210328774,59.00815648132645
31/01/2020, 10:56:20,5.7887626,-9.848321,4.399651,-0.6996691,0.255564,-1.0086541,-0.1962806,-0.010041237,-0.07999706,21.268585,16.784088,-52.420456,12.241573722475746,1.2538871442070276,0.2121943210328774,59.00815648132645
31/01/2020, 10:56:20,5.3313136,-9.592053,4.253555,-0.6996691,0.255564,-1.0086541,-0.1962806,-0.010041237,-0.07999706,21.268585,16.784088,-52.420456,11.769584619251193,1.2538871442070276,0.2121943210328774,59.00815648132645
31/01/2020, 10:56:20,5.43909,-8.947793,4.0044727,-0.6996691,0.255564,-1.0086541,-0.1962806,-0.010041237,-0.07999706,21.268585,16.784088,-52.420456,11.210820627474218,1.2538871442070276,0.2121943210328774,59.00815648132645
31/01/2020, 10:56:20,6.1528053,-8.722662,3.4009278,-0.6996691,0.255564,-1.0086541,-0.1962806,-0.010041237,-0.07999706,21.268585,16.784088,-52.420456,11.203042223707012,1.2538871442070276,0.2121943210328774,59.00815648132645
31/01/2020, 10:56:20,6.9790874,-8.528665,4.1146436,-0.6996691,0.255564,-1.0086541,-0.1962806,-0.010041237,-0.07999706,21.268585,16.784088,-52.420456,11.763335908103759,1.2538871442070276,0.2121943210328774,59.00815648132645
31/01/2020, 10:56:20,7.4197707,-9.642349,3.999683,-0.6996691,0.255564,-1.0086541,-0.1962806,-0.010041237,-0.07999706,21.268585,16.784088,-52.420456,12.807238568718827,1.2538871442070276,0.2121943210328774,59.00815648132645
31/01/2020, 10:56:20,6.6844997,-10.375225,4.2080493,-0.6996691,0.255564,-1.0086541,-0.1962806,-0.010041237,-0.07999706,21.268585,16.784088,-52.420456,13.03976651879376,1.2538871442070276,0.2121943210328774,59.00815648132645
31/01/2020, 10:56:20,6.6844997,-10.375225,4.2080493,-0.6996691,0.255564,-1.0086541,-0.1962806,-0.010041237,-0.07999706,-24.85939,41.02707,24.354813,13.03976651879376,1.2538871442070276,0.2121943210328774,53.79931765513394
31/01/2020, 10:56:20,6.6844997,-10.375225,4.2080493,-0.6996691,0.255564,-1.0086541,-0.1962806,-0.010041237,-0.07999706,-25.82782,40.44124,25.437172,13.03976651879376,1.2538871442070276,0.2121943210328774,54.310401918692435
31/01/2020, 10:56:20,6.6844997,-10.375225,4.2080493,-0.6996691,0.255564,-1.0086541,4.913005,-13.284512,-4.7679343,-25.82782,40.44124,25.437172,13.03976651879376,1.2538871442070276,14.944867418527988,54.310401918692435
31/01/2020, 10:56:20,6.6844997,-10.375225,4.2080493,-0.6996691,0.255564,-1.0086541,6.457291,-12.590441,-4.7890706,-25.82782,40.44124,25.437172,13.03976651879376,1.2538871442070276,14.93823966346,54.310401918692435
31/01/2020, 10:56:20,6.3084817,-10.447076,5.407954,-0.6996691,0.255564,-1.0086541,6.457291,-12.590441,-4.7890706,-25.82782,40.44124,25.437172,13.348569352669388,1.2538871442070276,14.93823966346,54.310401918692435
31/01/2020, 10:56:20,6.468948,-9.903406,5.5780005,-0.6996691,0.255564,-1.0086541,6.457291,-12.590441,-4.7890706,-25.82782,40.44124,25.437172,13.07818145204924,1.2538871442070276,14.93823966346,54.310401918692435
31/01/2020, 10:56:20,5.6905665,-10.310559,5.9540186,-0.6996691,0.255564,-1.0086541,6.457291,-12.590441,-4.7890706,-25.82782,40.44124,25.437172,13.196231184111928,1.2538871442070276,14.93823966346,54.310401918692435
31/01/2020, 10:56:20,5.374424,-10.265054,5.4534597,-0.6996691,0.255564,-1.0086541,6.457291,-12.590441,-4.7890706,-25.82782,40.44124,25.437172,12.806091703889239,1.2538871442070276,14.93823966346,54.310401918692435
31/01/2020, 10:56:20,5.374424,-10.265054,5.4534597,-0.6996691,0.255564,-1.0086541,6.1912203,-14.175203,-4.8118677,-25.82782,40.44124,25.437172,12.806091703889239,1.2538871442070276,16.19943421092189,54.310401918692435
31/01/2020, 10:56:20,5.374424,-10.265054,5.4534597,-0.6996691,0.255564,-1.0086541,6.1912203,-14.175203,-4.8118677,-25.77739,40.38263,25.380226,12.806091703889239,1.2538871442070276,16.19943421092189,54.21610873427518
31/01/2020, 10:56:20,5.374424,-10.265054,5.4534597,0.5135088,0.49013615,-0.6177004,6.1912203,-14.175203,-4.8118677,-25.77739,40.38263,25.380226,12.806091703889239,0.9409986759185838,16.19943421092189,54.21610873427518
31/01/2020, 10:56:21,2.3902297,1.5376027,8.071217,5.988081,0.85054654,0.0432555,-0.29850936,-8.833784,3.5409513,-17.781387,48.771492,-25.454727,8.556982944440914,6.048339793433994,9.521721755644752,57.81677354476433
31/01/2020, 10:56:21,2.3902297,1.5376027,8.071217,5.988081,0.85054654,0.0432555,-1.2538633,-7.741586,4.0711784,-17.781387,48.771492,-25.454727,8.556982944440914,6.048339793433994,8.836222277830837,57.81677354476433
31/01/2020, 10:56:21,2.3902297,1.5376027,8.071217,5.988081,0.85054654,0.0432555,-1.2538633,-7.741586,4.0711784,-17.008652,46.084007,-31.485764,8.556982944440914,6.048339793433994,8.836222277830837,58.347093034147
31/01/2020, 10:56:21,2.3902297,1.5376027,8.071217,5.791383,0.5854311,-0.66412616,-1.2538633,-7.741586,4.0711784,-17.008652,46.084007,-31.485764,8.556982944440914,5.858660917038771,8.836222277830837,58.347093034147
31/01/2020, 10:56:21,2.3902297,1.5376027,8.071217,5.791383,0.5854311,-0.66412616,-1.4542416,-9.135766,5.783662,-17.008652,46.084007,-31.485764,8.556982944440914,5.858660917038771,10.909985516862042,58.347093034147
31/01/2020, 10:56:21,2.7973828,2.792593,7.549102,5.791383,0.5854311,-0.66412616,-1.4542416,-9.135766,5.783662,-17.008652,46.084007,-31.485764,8.521318255738382,5.858660917038771,10.909985516862042,58.347093034147
31/01/2020, 10:56:21,2.3327491,4.26074,7.438931,5.791383,0.5854311,-0.66412616,-1.4542416,-9.135766,5.783662,-17.008652,46.084007,-31.485764,8.884442380711912,5.858660917038771,10.909985516862042,58.347093034147
31/01/2020, 10:56:21,2.3327491,4.26074,7.438931,5.791383,0.5854311,-0.66412616,-1.4542416,-9.135766,5.783662,-17.09555,43.04721,-38.562943,8.884442380711912,5.858660917038771,10.909985516862042,60.269567206677635
31/01/2020, 10:56:21,2.3327491,4.26074,7.438931,5.791383,0.5854311,-0.66412616,0.25805092,-7.7389064,5.729367,-17.09555,43.04721,-38.562943,8.884442380711912,5.858660917038771,9.632388384063418,60.269567206677635
31/01/2020, 10:56:21,1.4202466,5.4606447,7.688013,5.791383,0.5854311,-0.66412616,0.25805092,-7.7389064,5.729367,-17.09555,43.04721,-38.562943,9.53631408126144,5.858660917038771,9.632388384063418,60.269567206677635
31/01/2020, 10:56:21,0.30416748,6.696475,8.320298,5.791383,0.5854311,-0.66412616,0.25805092,-7.7389064,5.729367,-17.09555,43.04721,-38.562943,10.684692682579584,5.858660917038771,9.632388384063418,60.269567206677635
31/01/2020, 10:56:21,0.30416748,6.696475,8.320298,5.791383,0.5854311,-0.66412616,0.25805092,-7.7389064,5.729367,-17.017319,39.479095,-42.65738,10.684692682579584,5.858660917038771,9.632388384063418,60.56269570327892
31/01/2020, 10:56:21,0.24908204,7.783814,7.7574687,5.791383,0.5854311,-0.66412616,0.25805092,-7.7389064,5.729367,-17.017319,39.479095,-42.65738,10.992184594678651,5.858660917038771,9.632388384063418,60.56269570327892
31/01/2020, 10:56:21,0.31374758,8.502319,6.5360084,5.791383,0.5854311,-0.66412616,0.25805092,-7.7389064,5.729367,-17.017319,39.479095,-42.65738,10.728805939763527,5.858660917038771,9.632388384063418,60.56269570327892
31/01/2020, 10:56:21,0.31374758,8.502319,6.5360084,5.791383,0.5854311,-0.66412616,0.29045677,-5.1989126,5.8738976,-17.017319,39.479095,-42.65738,10.728805939763527,5.858660917038771,7.849568779845223,60.56269570327892
31/01/2020, 10:56:21,0.31374758,8.502319,6.5360084,5.791383,0.5854311,-0.66412616,0.29045677,-5.1989126,5.8738976,-15.797394,35.576187,-47.97316,10.728805939763527,5.858660917038771,7.849568779845223,61.77901587152593
31/01/2020, 10:56:21,0.31374758,8.502319,6.5360084,5.791383,0.5854311,-0.66412616,-1.6560739,-2.8657975,7.4018135,-15.797394,35.576187,-47.97316,10.728805939763527,5.858660917038771,8.108157588011029,61.77901587152593
31/01/2020, 10:56:21,0.5843848,8.293953,5.975574,5.791383,0.5854311,-0.66412616,-1.6560739,-2.8657975,7.4018135,-15.797394,35.576187,-47.97316,10.239074461258031,5.858660917038771,8.108157588011029,61.77901587152593
31/01/2020, 10:56:21,1.6190332,8.464,5.9228835,5.791383,0.5854311,-0.66412616,-1.6560739,-2.8657975,7.4018135,-15.797394,35.576187,-47.97316,10.45662992446388,5.858660917038771,8.108157588011029,61.77901587152593
31/01/2020, 10:56:21,1.6190332,8.464,5.9228835,5.791383,0.5854311,-0.66412616,-1.6560739,-2.8657975,7.4018135,-15.999039,30.326897,-51.372253,10.45662992446388,5.858660917038771,8.108157588011029,61.7640536390334
31/01/2020, 10:56:22,-5.4534597,-4.040398,9.223221,-1.9861509,0.80534256,-1.6195191,-3.0156202,-4.323354,0.24571037,37.213028,46.10749,-4.726761,11.451324923252068,2.686301180989082,5.276905036744378,59.43948520668217
31/01/2020, 10:56:22,-6.368357,-5.237908,9.920172,-1.9861509,0.80534256,-1.6195191,-3.0156202,-4.323354,0.24571037,37.213028,46.10749,-4.726761,12.899668969558277,2.686301180989082,5.276905036744378,59.43948520668217
31/01/2020, 10:56:22,-7.434141,-7.1275783,9.558523,-1.9861509,0.80534256,-1.6195191,-3.0156202,-4.323354,0.24571037,37.213028,46.10749,-4.726761,14.051127782150722,2.686301180989082,5.276905036744378,59.43948520668217
31/01/2020, 10:56:22,-7.434141,-7.1275783,9.558523,-1.9861509,0.80534256,-1.6195191,0.10692835,-1.9918157,-0.8457732,37.213028,46.10749,-4.726761,14.051127782150722,2.686301180989082,2.166586194775494,59.43948520668217
31/01/2020, 10:56:22,-7.434141,-7.1275783,9.558523,-1.9861509,0.80534256,-1.6195191,0.10692835,-1.9918157,-0.8457732,36.05107,46.562523,-2.7740326,14.051127782150722,2.686301180989082,2.166586194775494,58.95289243816563
31/01/2020, 10:56:22,-8.2125225,-7.795789,9.074729,-1.9861509,0.80534256,-1.6195191,0.10692835,-1.9918157,-0.8457732,36.05107,46.562523,-2.7740326,14.51104938290299,2.686301180989082,2.166586194775494,58.95289243816563
31/01/2020, 10:56:22,-7.8508744,-6.104905,8.907078,-1.9861509,0.80534256,-1.6195191,0.10692835,-1.9918157,-0.8457732,36.05107,46.562523,-2.7740326,13.350735207980248,2.686301180989082,2.166586194775494,58.95289243816563
31/01/2020, 10:56:22,-7.8508744,-6.104905,8.907078,-1.9861509,0.80534256,-1.6195191,0.49398994,-0.9026189,0.04894924,36.05107,46.562523,-2.7740326,13.350735207980248,2.686301180989082,1.0301179277703805,58.95289243816563
31/01/2020, 10:56:22,-7.8508744,-6.104905,8.907078,-1.9861509,0.80534256,-1.6195191,0.49398994,-0.9026189,0.04894924,34.672424,48.405052,-0.71287537,13.350735207980248,2.686301180989082,1.0301179277703805,59.54606852096044
31/01/2020, 10:56:22,-6.358777,-4.3349857,7.8412943,-1.9861509,0.80534256,-1.6195191,0.49398994,-0.9026189,0.04894924,34.672424,48.405052,-0.71287537,10.986903246588765,2.686301180989082,1.0301179277703805,59.54606852096044
31/01/2020, 10:56:22,-5.43909,-3.2548318,7.4748564,-1.9861509,0.80534256,-1.6195191,0.49398994,-0.9026189,0.04894924,34.672424,48.405052,-0.71287537,9.800566586690975,2.686301180989082,1.0301179277703805,59.54606852096044
31/01/2020, 10:56:22,-5.43909,-3.2548318,7.4748564,-1.9861509,0.80534256,-1.6195191,-1.2235909,-2.5054297,2.0303473,34.672424,48.405052,-0.71287537,9.800566586690975,2.686301180989082,3.4491539725690523,59.54606852096044
31/01/2020, 10:56:22,-5.43909,-3.2548318,7.4748564,-1.9861509,0.80534256,-1.6195191,-1.2235909,-2.5054297,2.0303473,33.45668,48.976997,1.9371033,9.800566586690975,2.686301180989082,3.4491539725690523,59.34516069196906
31/01/2020, 10:56:22,-4.7876444,-3.1255007,7.455696,-1.9861509,0.80534256,-1.6195191,-1.2235909,-2.5054297,2.0303473,33.45668,48.976997,1.9371033,9.395621197584626,2.686301180989082,3.4491539725690523,59.34516069196906
31/01/2020, 10:56:22,-4.402046,-4.2751102,7.2281694,-1.9861509,0.80534256,-1.6195191,-1.2235909,-2.5054297,2.0303473,33.45668,48.976997,1.9371033,9.48161441182634,2.686301180989082,3.4491539725690523,59.34516069196906
31/01/2020, 10:56:22,-4.402046,-4.2751102,7.2281694,-1.9861509,0.80534256,-1.6195191,-3.0453405,-4.7173166,1.3274279,33.45668,48.976997,1.9371033,9.48161441182634,2.686301180989082,5.769682824122202,59.34516069196906
31/01/2020, 10:56:22,-4.402046,-4.2751102,7.2281694,-1.9861509,0.80534256,-1.6195191,-3.0453405,-4.7173166,1.3274279,32.02893,49.98195,5.1550446,9.48161441182634,2.686301180989082,5.769682824122202,59.58709671524562
31/01/2020, 10:56:22,-4.402046,-4.2751102,7.2281694,-1.460807,0.47425365,-1.6427319,-3.0453405,-4.7173166,1.3274279,32.02893,49.98195,5.1550446,9.48161441182634,2.248875637257392,5.769682824122202,59.58709671524562
31/01/2020, 10:56:22,-4.2511597,-5.1804276,7.690408,-1.460807,0.47425365,-1.6427319,-3.0453405,-4.7173166,1.3274279,32.02893,49.98195,5.1550446,10.200566988061055,2.248875637257392,5.769682824122202,59.58709671524562
31/01/2020, 10:56:22,-4.4667115,-5.6594315,7.879615,-1.460807,0.47425365,-1.6427319,-3.0453405,-4.7173166,1.3274279,32.02893,49.98195,5.1550446,10.680309270098375,2.248875637257392,5.769682824122202,59.58709671524562
31/01/2020, 10:56:23,1.6238233,-7.913145,1.9663111,3.10602,-0.42493963,1.6363914,-3.686051,-0.4353037,-1.4996746,-35.398636,32.820793,29.409561,8.313906796242089,3.536341412643964,4.0031842650771745,56.52601322955522
31/01/2020, 10:56:23,1.6238233,-7.913145,1.9663111,3.10602,-0.42493963,1.6363914,-3.2810853,-0.6783838,0.07056403,-35.398636,32.820793,29.409561,8.313906796242089,3.536341412643964,3.3512243039621183,56.52601322955522
31/01/2020, 10:56:23,1.6238233,-7.913145,1.9663111,3.10602,-0.42493963,1.6363914,-3.2810853,-0.6783838,0.07056403,-34.33641,34.080154,29.032532,8.313906796242089,3.536341412643964,3.3512243039621183,56.421041393441435
31/01/2020, 10:56:23,0.44307864,-10.763218,4.366121,3.10602,-0.42493963,1.6363914,-3.2810853,-0.6783838,0.07056403,-34.33641,34.080154,29.032532,11.623518820709378,3.536341412643964,3.3512243039621183,56.421041393441435
31/01/2020, 10:56:23,0.44307864,-10.763218,4.366121,3.10602,-0.42493963,1.6363914,-2.5588596,-0.560472,0.2300148,-34.33641,34.080154,29.032532,11.623518820709378,3.536341412643964,2.6296003629765883,56.421041393441435
31/01/2020, 10:56:23,0.44307864,-10.763218,4.366121,3.10602,-0.42493963,1.6363914,-2.5588596,-0.560472,0.2300148,-33.30275,34.77665,29.198364,11.623518820709378,3.536341412643964,2.6296003629765883,56.311925532843844
31/01/2020, 10:56:23,0.44307864,-10.763218,4.366121,3.10602,-0.42493963,1.6363914,-3.238535,-1.8500185,0.008157253,-33.30275,34.77665,29.198364,11.623518820709378,3.536341412643964,3.7297109099297607,56.311925532843844
31/01/2020, 10:56:23,0.44307864,-10.763218,4.366121,3.10602,-0.42493963,1.6363914,-3.238535,-1.8500185,0.008157253,-32.591354,36.463997,28.218979,11.623518820709378,3.536341412643964,3.7297109099297607,56.46352997999951
31/01/2020, 10:56:23,0.44307864,-10.763218,4.366121,3.10602,-0.42493963,1.6363914,-3.8441591,-3.6166716,-0.80139494,-32.591354,36.463997,28.218979,11.623518820709378,3.536341412643964,5.338549093704777,56.46352997999951
31/01/2020, 10:56:23,0.44307864,-10.763218,4.366121,3.10602,-0.42493963,1.6363914,-3.8441591,-3.6166716,-0.80139494,-31.286652,39.29383,26.67453,11.623518820709378,3.536341412643964,5.338549093704777,56.87170004401991
31/01/2020, 10:56:23,0.44307864,-10.763218,4.366121,4.254446,-0.13661134,1.2148945,-3.8441591,-3.6166716,-0.80139494,-31.286652,39.29383,26.67453,11.623518820709378,4.4266174902392645,5.338549093704777,56.87170004401991
31/01/2020, 10:56:23,0.44307864,-10.763218,4.366121,4.254446,-0.13661134,1.2148945,-2.1346383,-2.156814,-0.81487083,-31.286652,39.29383,26.67453,11.623518820709378,4.4266174902392645,3.142060190996674,56.87170004401991
31/01/2020, 10:56:23,0.44307864,-10.763218,4.366121,4.254446,-0.13661134,1.2148945,-2.1346383,-2.156814,-0.81487083,-29.79628,40.98449,23.35849,11.623518820709378,4.4266174902392645,3.142060190996674,55.7957500681404
31/01/2020, 10:56:23,1.5088624,-9.101074,9.031619,4.254446,-0.13661134,1.2148945,-2.1346383,-2.156814,-0.81487083,-29.79628,40.98449,23.35849,12.910319928899787,4.4266174902392645,3.142060190996674,55.7957500681404
31/01/2020, 10:56:23,1.5088624,-9.101074,9.031619,4.254446,-0.13661134,1.2148945,-2.007444,-0.24076748,0.23989248,-29.79628,40.98449,23.35849,12.910319928899787,4.4266174902392645,2.036012871625999,55.7957500681404
31/01/2020, 10:56:23,1.5088624,-9.101074,9.031619,4.254446,-0.13661134,1.2148945,-2.007444,-0.24076748,0.23989248,-29.148361,44.91047,18.55848,12.910319928899787,4.4266174902392645,2.036012871625999,56.66563637708626
31/01/2020, 10:56:23,1.5088624,-9.101074,9.031619,4.254446,-0.13661134,1.2148945,-2.7764125,-0.8766198,1.3727074,-29.148361,44.91047,18.55848,12.910319928899787,4.4266174902392645,3.218890199260668,56.66563637708626
