DATE,TIME,ax,ay,az,gx,gy,gz,ma,mg,label
10/08/2020, 17:29:12,-0.17723145,-3.527864,9.057964,-0.011334497,-0.023315335,-0.0010073337,9.72234297657868,0.025943985144033004,stand
10/08/2020, 17:29:12,-0.17962648,-3.6380348,9.196876,-0.011334497,-0.023315335,-0.0010073337,9.891920102711184,0.025943985144033004,stand
10/08/2020, 17:29:12,-0.17962648,-3.6380348,9.196876,0.0045479937,-0.018428415,-0.009559444,9.891920102711184,0.021252616318476164,stand
10/08/2020, 17:29:12,-0.081430666,-3.7146754,9.295072,0.0045479937,-0.018428415,-0.009559444,10.01018484151787,0.021252616318476164,stand
10/08/2020, 17:29:12,-0.081430666,-3.7146754,9.295072,0.025317404,-0.004989385,-0.015668094,10.01018484151787,0.030188641989018113,stand
10/08/2020, 17:29:12,-0.07424561,-3.666775,9.314231,0.025317404,-0.004989385,-0.015668094,10.010277160733773,0.030188641989018113,stand
10/08/2020, 17:29:12,-0.07424561,-3.666775,9.314231,0.032647785,-0.0013241951,-0.020555016,10.010277160733773,0.03860233170918299,stand
10/08/2020, 17:29:12,-0.10777588,-3.6332448,9.304651,0.032647785,-0.0013241951,-0.020555016,9.989425316417913,0.03860233170918299,stand
10/08/2020, 17:29:12,-0.10777588,-3.6332448,9.304651,0.026539136,-0.004989385,-0.015668094,9.989425316417913,0.03122032773065882,stand
10/08/2020, 17:29:12,-0.17483643,-3.558999,9.177715,0.026539136,-0.004989385,-0.015668094,9.845176496751805,0.03122032773065882,stand
10/08/2020, 17:29:12,-0.17483643,-3.558999,9.177715,0.008213184,-0.004989385,-0.012002904,9.845176496751805,0.015375957094337448,stand
10/08/2020, 17:29:12,-0.12454102,-3.4560134,8.990904,0.008213184,-0.004989385,-0.012002904,9.633062414913807,0.015375957094337448,stand
10/08/2020, 17:29:12,-0.12454102,-3.4560134,8.990904,-0.014999687,-0.011098035,-0.010781174,9.633062414913807,0.02154972575544001,stand
10/08/2020, 17:29:12,-0.122146,-3.432063,8.871153,-0.014999687,-0.011098035,-0.010781174,9.512693108081303,0.02154972575544001,stand
10/08/2020, 17:29:12,-0.122146,-3.432063,8.871153,-0.030882176,-0.013541495,-0.007115984,9.512693108081303,0.03446328655356239,stand
10/08/2020, 17:29:12,-0.13651612,-3.5733693,8.873548,-0.030882176,-0.013541495,-0.007115984,9.566998000768425,0.03446328655356239,stand
10/08/2020, 17:29:12,-0.13651612,-3.5733693,8.873548,-0.032103907,-0.013541495,-0.008337714,9.566998000768425,0.03582667210990258,stand
10/08/2020, 17:29:12,-0.11256592,-3.647615,8.928633,-0.032103907,-0.013541495,-0.008337714,9.645633649007296,0.03582667210990258,stand
10/08/2020, 17:29:12,-0.11256592,-3.647615,8.928633,-0.021108337,-0.011098035,-0.018111553,9.645633649007296,0.029945894670251792,stand
10/08/2020, 17:29:12,-0.12454102,-3.7937112,9.012459,-0.021108337,-0.011098035,-0.018111553,9.779170142162435,0.029945894670251792,stand
10/08/2020, 17:29:12,-0.12454102,-3.7937112,9.012459,-0.004004116,-0.004989385,-0.021776743,9.779170142162435,0.022696992228395708,stand
10/08/2020, 17:29:12,-0.17004639,-3.8272414,9.029224,-0.004004116,-0.004989385,-0.021776743,9.808342666116527,0.022696992228395708,stand
10/08/2020, 17:29:12,-0.17004639,-3.8272414,9.029224,0.013100104,0.002340995,-0.021776743,9.808342666116527,0.025520962735240498,stand
10/08/2020, 17:29:12,-0.17723145,-3.7482057,9.024434,0.013100104,0.002340995,-0.021776743,9.773477748836402,0.025520962735240498,stand
10/08/2020, 17:29:12,-0.17723145,-3.7482057,9.024434,0.014321834,0.003562725,-0.024220206,9.773477748836402,0.028362410065525423,stand
10/08/2020, 17:29:12,-0.22513184,-3.6739602,9.0004835,0.014321834,0.003562725,-0.024220206,9.724061467683494,0.028362410065525423,stand
10/08/2020, 17:29:12,-0.22513184,-3.6739602,9.0004835,0.0033262637,-1.0246504E-4,-0.019333284,9.724061467683494,0.019617604677230446,stand
10/08/2020, 17:29:12,-0.2562671,-3.6404297,8.998089,0.0033262637,-1.0246504E-4,-0.019333284,9.70999506674692,0.019617604677230446,stand
10/08/2020, 17:29:12,-0.2562671,-3.6404297,8.998089,-0.0076693064,-0.0037676552,-0.015668094,9.70999506674692,0.017846642836563467,stand
10/08/2020, 17:29:12,-0.2203418,-3.6212697,8.976534,-0.0076693064,-0.0037676552,-0.015668094,9.681957727906775,0.017846642836563467,stand
10/08/2020, 17:29:13,1.4106666,-3.300337,18.041683,-0.11884674,0.073201336,-0.033994045,18.39523138240152,0.143661329346619,stand
10/08/2020, 17:29:13,-3.9781277,-4.3493557,9.604029,-0.11884674,0.073201336,-0.033994045,11.26852973682347,0.143661329346619,stand
10/08/2020, 17:29:13,-3.9781277,-4.3493557,9.604029,0.22812459,0.26012602,0.011209967,11.26852973682347,0.34616764717111176,stand
10/08/2020, 17:29:13,-1.1208692,-3.7697608,0.34967285,0.22812459,0.26012602,0.011209967,3.9483813926995137,0.34616764717111176,stand
10/08/2020, 17:29:13,-1.1208692,-3.7697608,0.34967285,-0.06264716,-0.14915353,0.0051013166,3.9483813926995137,0.16185631074529508,stand
10/08/2020, 17:29:13,4.0571632,-2.694397,9.80521,-0.06264716,-0.14915353,0.0051013166,10.948173087811574,0.16185631074529508,stand
10/08/2020, 17:29:13,4.0571632,-2.694397,9.80521,-0.13228577,-0.1845837,0.006323046,10.948173087811574,0.2271797676836714,stand
10/08/2020, 17:29:13,0.39996827,-3.4871485,17.775835,-0.13228577,-0.1845837,0.006323046,18.119064288997627,0.2271797676836714,stand
10/08/2020, 17:29:13,0.39996827,-3.4871485,17.775835,0.112060234,-0.11372335,-0.029107124,18.119064288997627,0.162289006385687,stand
10/08/2020, 17:29:13,-4.282295,-4.394861,7.3766603,0.112060234,-0.11372335,-0.029107124,9.595205857145835,0.162289006385687,stand
10/08/2020, 17:29:13,-4.282295,-4.394861,7.3766603,-0.116403274,0.21980894,-0.007115984,9.595205857145835,0.24882991756939227,stand
10/08/2020, 17:29:13,0.21555176,-3.6763551,0.44307864,-0.116403274,0.21980894,-0.007115984,3.7092274445996845,0.24882991756939227,stand
10/08/2020, 17:29:13,0.21555176,-3.6763551,0.44307864,0.13405137,-0.0013241951,0.035644565,3.7092274445996845,0.13871574408496046,stand
10/08/2020, 17:29:13,3.8128712,-2.9482691,11.972703,0.13405137,-0.0013241951,0.035644565,12.906428414828888,0.13871574408496046,stand
10/08/2020, 17:29:13,3.8128712,-2.9482691,11.972703,0.036312975,-0.2627744,-0.032772314,12.906428414828888,0.2672883202324544,stand
10/08/2020, 17:29:13,-0.61552006,-3.8799317,17.521963,0.036312975,-0.2627744,-0.032772314,17.956946466803288,0.2672883202324544,stand
10/08/2020, 17:29:13,-0.61552006,-3.8799317,17.521963,0.064412765,0.26501295,-0.027885396,17.956946466803288,0.27415043889204244,stand
10/08/2020, 17:29:13,-4.2511597,-4.615203,5.965994,0.064412765,0.26501295,-0.027885396,8.65826422304986,0.27415043889204244,stand
10/08/2020, 17:29:13,-4.2511597,-4.615203,5.965994,0.17314672,0.101301126,-0.026663665,8.65826422304986,0.20236762946964887,stand
10/08/2020, 17:29:13,0.1101709,-3.5997145,1.463357,0.17314672,0.101301126,-0.026663665,3.8873507511289236,0.20236762946964887,stand
10/08/2020, 17:29:13,0.1101709,-3.5997145,1.463357,-0.19337228,-0.030645715,0.014875156,3.8873507511289236,0.196349862635804,stand
10/08/2020, 17:29:13,3.7937112,-2.7351124,13.32589,-0.19337228,-0.030645715,0.014875156,14.122762401588638,0.196349862635804,stand
10/08/2020, 17:29:13,3.7937112,-2.7351124,13.32589,-0.1090729,-0.17114466,0.0038795862,14.122762401588638,0.20298385429220273,stand
10/08/2020, 17:29:13,0.07185059,-3.5733693,15.955621,-0.1090729,-0.17114466,0.0038795862,16.35102334494512,0.20298385429220273,stand
10/08/2020, 17:29:13,0.07185059,-3.5733693,15.955621,-0.019886605,-0.2701048,0.016096886,16.35102334494512,0.27131381734061666,stand
10/08/2020, 17:29:13,1.9447559,-3.3051271,9.829161,-0.019886605,-0.2701048,0.016096886,10.55075072540121,0.27131381734061666,stand
10/08/2020, 17:29:13,1.9447559,-3.3051271,9.829161,-0.036990825,0.073201336,-0.008337714,10.55075072540121,0.08243951842982783,stand
10/08/2020, 17:29:13,-0.7161109,-3.9637575,10.214759,-0.036990825,0.073201336,-0.008337714,10.980231658321918,0.08243951842982783,stand
10/08/2020, 17:29:13,-0.7161109,-3.9637575,10.214759,-0.029660445,0.14650515,-0.022998475,10.980231658321918,0.15123633813625006,stand
10/08/2020, 17:29:13,-0.39996827,-4.0595584,8.830438,-0.029660445,0.14650515,-0.022998475,9.727107392218683,0.15123633813625006,stand
10/08/2020, 17:29:14,-0.07664063,-3.7482057,9.474698,0.024095673,-0.0037676552,-0.012002904,10.189446644651534,0.02718209691004636,stand
10/08/2020, 17:29:14,-0.06466553,-3.7170706,9.498648,0.024095673,-0.0037676552,-0.012002904,10.200250156723849,0.02718209691004636,stand
10/08/2020, 17:29:14,-0.06466553,-3.7170706,9.498648,0.033869516,0.002340995,-0.0022290638,10.200250156723849,0.03402341993504591,stand
10/08/2020, 17:29:14,-0.11256592,-3.63564,9.374106,0.033869516,0.002340995,-0.0022290638,10.055069345595784,0.03402341993504591,stand
10/08/2020, 17:29:14,-0.11256592,-3.63564,9.374106,0.037534706,0.0072279153,0.008766507,10.055069345595784,0.039216687496736055,stand
10/08/2020, 17:29:14,-0.16046631,-3.4679885,9.249566,0.037534706,0.0072279153,0.008766507,9.879633912578289,0.039216687496736055,stand
10/08/2020, 17:29:14,-0.16046631,-3.4679885,9.249566,0.030204326,0.0072279153,0.009988236,9.879633912578289,0.032623747903933076,stand
10/08/2020, 17:29:14,-0.19160157,-3.3817677,9.19448,0.030204326,0.0072279153,0.009988236,9.798547121210024,0.032623747903933076,stand
10/08/2020, 17:29:14,-0.19160157,-3.3817677,9.19448,0.017987024,-0.0013241951,0.012431697,9.798547121210024,0.021905104801613038,stand
10/08/2020, 17:29:14,-0.21794678,-3.3602126,9.144185,0.017987024,-0.0013241951,0.012431697,9.744467651126069,0.021905104801613038,stand
10/08/2020, 17:29:14,-0.21794678,-3.3602126,9.144185,0.0021045338,-0.004989385,0.011209967,9.744467651126069,0.012449352522963789,stand
10/08/2020, 17:29:14,-0.22992188,-3.4464333,9.182506,0.0021045338,-0.004989385,0.011209967,9.810666431711619,0.012449352522963789,stand
10/08/2020, 17:29:14,-0.22992188,-3.4464333,9.182506,-0.0052258465,-0.004989385,0.006323046,9.810666431711619,0.009601268016796085,stand
10/08/2020, 17:29:14,-0.2562671,-3.544629,9.223221,-0.0052258465,-0.004989385,0.006323046,9.88422332064306,0.009601268016796085,stand
10/08/2020, 17:29:14,-0.2562671,-3.544629,9.223221,-0.006447577,-0.002545925,0.0026578563,9.88422332064306,0.0074240947546950166,stand
10/08/2020, 17:29:14,-0.23710695,-3.5781593,9.2328005,-0.006447577,-0.002545925,0.0026578563,9.90474879461031,0.0074240947546950166,stand
10/08/2020, 17:29:14,-0.23710695,-3.5781593,9.2328005,-0.004004116,-1.0246504E-4,-0.0010073337,9.90474879461031,0.004130153346598104,stand
10/08/2020, 17:29:14,-0.24668702,-3.5925295,9.275911,-0.004004116,-1.0246504E-4,-0.0010073337,9.95035948968832,0.004130153346598104,stand
10/08/2020, 17:29:14,-0.24668702,-3.5925295,9.275911,0.0021045338,0.002340995,2.1439628E-4,9.95035948968832,0.0031551998446618205,stand
10/08/2020, 17:29:14,-0.23231691,-3.5566041,9.266331,0.0021045338,0.002340995,2.1439628E-4,9.928156384705474,0.0031551998446618205,stand
10/08/2020, 17:29:14,-0.23231691,-3.5566041,9.266331,0.009434914,0.008449646,0.0014361264,9.928156384705474,0.012746630065833578,stand
10/08/2020, 17:29:14,-0.17723145,-3.4440382,9.211246,0.009434914,0.008449646,0.0014361264,9.835642028964395,0.012746630065833578,stand
10/08/2020, 17:29:14,-0.17723145,-3.4440382,9.211246,0.005769724,0.008449646,-0.0010073337,9.835642028964395,0.01028109669698382,stand
10/08/2020, 17:29:14,-0.15567628,-3.3123121,9.110655,0.005769724,0.008449646,-0.0010073337,9.695343117819563,0.01028109669698382,stand
10/08/2020, 17:29:14,-0.15567628,-3.3123121,9.110655,-0.012556226,0.003562725,-0.005894254,9.695343117819563,0.014321105047279738,stand
10/08/2020, 17:29:14,-0.119750984,-3.295547,9.10347,-0.012556226,0.003562725,-0.005894254,9.68236198809294,0.014321105047279738,stand
10/08/2020, 17:29:14,-0.119750984,-3.295547,9.10347,-0.032103907,-1.0246504E-4,-0.0046725236,9.68236198809294,0.03244231558902801,stand
10/08/2020, 17:29:14,-0.12693603,-3.3458424,9.079519,-0.032103907,-1.0246504E-4,-0.0046725236,9.677212618938784,0.03244231558902801,stand
10/08/2020, 17:29:14,-0.12693603,-3.3458424,9.079519,-0.040656015,-0.002545925,-0.0046725236,9.677212618938784,0.04100275343730553,stand
10/08/2020, 17:29:14,-0.13891114,-3.4799635,9.077125,-0.040656015,-0.002545925,-0.0046725236,9.722326546529342,0.04100275343730553,stand
10/08/2020, 17:29:15,-0.05748047,-3.786526,9.347761,-0.16038556,-0.04286302,-0.010781174,10.08571868938861,0.16636406227154804,stand
10/08/2020, 17:29:15,0.0047900393,-3.8440065,9.290281,-0.16038556,-0.04286302,-0.010781174,10.05414023009039,0.16636406227154804,stand
10/08/2020, 17:29:15,0.0047900393,-3.8440065,9.290281,-0.13228577,-0.025758795,-0.013224634,10.05414023009039,0.13541762231605214,stand
10/08/2020, 17:29:15,-0.0023950196,-3.891907,9.295072,-0.13228577,-0.025758795,-0.013224634,10.076968876366086,0.13541762231605214,stand
10/08/2020, 17:29:15,-0.0023950196,-3.891907,9.295072,-0.09441214,-0.002545925,-0.005894254,10.076968876366086,0.09463020790016498,stand
10/08/2020, 17:29:15,-0.014370117,-3.8464015,9.175321,-0.09441214,-0.002545925,-0.005894254,9.948945633342422,0.09463020790016498,stand
10/08/2020, 17:29:15,-0.014370117,-3.8464015,9.175321,-0.043099478,0.014558295,2.1439628E-4,9.948945633342422,0.045492360974601215,stand
10/08/2020, 17:29:15,-0.045505375,-3.6931202,9.093889,-0.043099478,0.014558295,2.1439628E-4,9.815295680704295,0.045492360974601215,stand
10/08/2020, 17:29:15,-0.045505375,-3.6931202,9.093889,-0.011334497,0.019445216,-0.0046725236,9.815295680704295,0.02298738186545582,stand
10/08/2020, 17:29:15,-0.15328126,-3.6691701,9.036409,-0.011334497,0.019445216,-0.0046725236,9.75412728626064,0.02298738186545582,stand
10/08/2020, 17:29:15,-0.15328126,-3.6691701,9.036409,0.006991454,0.015780026,-0.010781174,9.75412728626064,0.02035002102425818,stand
10/08/2020, 17:29:15,-0.19160157,-3.6955154,9.101074,0.006991454,0.015780026,-0.010781174,9.824616894686816,0.02035002102425818,stand
10/08/2020, 17:29:15,-0.19160157,-3.6955154,9.101074,0.017987024,0.013336565,-0.013224634,9.824616894686816,0.02600553715024875,stand
10/08/2020, 17:29:15,-0.20597169,-3.7027004,9.16095,0.017987024,0.013336565,-0.013224634,9.883087268118128,0.02600553715024875,stand
10/08/2020, 17:29:15,-0.20597169,-3.7027004,9.16095,0.027760863,0.009671375,-0.010781174,9.883087268118128,0.03131189443101176,stand
10/08/2020, 17:29:15,-0.22752686,-3.7506008,9.268726,0.027760863,0.009671375,-0.010781174,10.001403055262047,0.03131189443101176,stand
10/08/2020, 17:29:15,-0.22752686,-3.7506008,9.268726,0.032647785,0.008449646,-0.005894254,10.001403055262047,0.034234727905214854,stand
10/08/2020, 17:29:15,-0.25387207,-3.755391,9.251961,0.032647785,0.008449646,-0.005894254,9.988302633952882,0.034234727905214854,stand
10/08/2020, 17:29:15,-0.25387207,-3.755391,9.251961,0.028982595,0.003562725,-0.0022290638,9.988302633952882,0.029285705120619177,stand
10/08/2020, 17:29:15,-0.22273682,-3.7194655,9.261541,0.028982595,0.003562725,-0.0022290638,9.982994727949997,0.029285705120619177,stand
10/08/2020, 17:29:15,-0.22273682,-3.7194655,9.261541,0.033869516,0.002340995,0.0026578563,9.982994727949997,0.03405420060772111,stand
10/08/2020, 17:29:15,-0.1939966,-3.7362306,9.244776,0.033869516,0.002340995,0.0026578563,9.973110494680354,0.03405420060772111,stand
10/08/2020, 17:29:15,-0.1939966,-3.7362306,9.244776,0.039978165,0.0047844555,0.009988236,9.973110494680354,0.04148384708505355,stand
10/08/2020, 17:29:15,-0.18681154,-3.7482057,9.204061,0.039978165,0.0047844555,0.009988236,9.939752256677446,0.04148384708505355,stand
10/08/2020, 17:29:15,-0.18681154,-3.7482057,9.204061,0.041199896,0.0011192651,0.012431697,9.939752256677446,0.04304917321766269,stand
10/08/2020, 17:29:15,-0.20357667,-3.7146754,9.19448,0.041199896,0.0011192651,0.012431697,9.918604659632114,0.04304917321766269,stand
10/08/2020, 17:29:15,-0.20357667,-3.7146754,9.19448,0.037534706,-1.0246504E-4,0.013653426,9.918604659632114,0.03994096554931715,stand
10/08/2020, 17:29:15,-0.1820215,-3.7170706,9.208851,0.037534706,-1.0246504E-4,0.013653426,9.932405534002053,0.03994096554931715,stand
10/08/2020, 17:29:15,-0.1820215,-3.7170706,9.208851,0.026539136,-0.002545925,0.017318618,9.932405534002053,0.03179216843010085,stand
10/08/2020, 17:29:15,-0.1460962,-3.6883302,9.077125,0.026539136,-0.002545925,0.017318618,9.798944560159882,0.03179216843010085,stand
10/08/2020, 17:29:16,-0.014370117,-3.6092947,9.271121,-0.0076693064,0.023110406,-0.016889825,9.94891448620334,0.0296340235470501,stand
10/08/2020, 17:29:16,-0.05748047,-3.6092947,9.237591,-0.0076693064,0.023110406,-0.016889825,9.917832197400454,0.0296340235470501,stand
10/08/2020, 17:29:16,-0.05748047,-3.6092947,9.237591,-3.3892598E-4,0.027997326,-0.018111553,9.917832197400454,0.03334656644289343,stand
10/08/2020, 17:29:16,-0.06227051,-3.5805542,9.2256155,-3.3892598E-4,0.027997326,-0.018111553,9.89627342545094,0.03334656644289343,stand
10/08/2020, 17:29:16,-0.06227051,-3.5805542,9.2256155,-0.013777957,0.025553865,-0.018111553,9.89627342545094,0.03421783885172215,stand
10/08/2020, 17:29:16,-0.16046631,-3.5853443,9.15616,-0.013777957,0.025553865,-0.018111553,9.834414864708048,0.03421783885172215,stand
10/08/2020, 17:29:16,-0.16046631,-3.5853443,9.15616,-0.030882176,0.019445216,-0.005894254,9.834414864708048,0.036967113239876656,stand
10/08/2020, 17:29:16,-0.2203418,-3.5637891,9.1130495,-0.030882176,0.019445216,-0.005894254,9.787584726936883,0.036967113239876656,stand
10/08/2020, 17:29:16,-0.2203418,-3.5637891,9.1130495,-0.047986396,0.020666946,0.0051013166,9.787584726936883,0.05249609742565983,stand
10/08/2020, 17:29:16,-0.21315674,-3.5661843,8.859178,-0.047986396,0.020666946,0.0051013166,9.552388899852925,0.05249609742565983,stand
10/08/2020, 17:29:16,-0.21315674,-3.5661843,8.859178,-0.035769098,0.024332136,0.009988236,9.552388899852925,0.04439871662441362,stand
10/08/2020, 17:29:16,-0.25866213,-3.4416432,8.842413,-0.035769098,0.024332136,0.009988236,9.492106248437755,0.04439871662441362,stand
10/08/2020, 17:29:16,-0.25866213,-3.4416432,8.842413,0.025317404,0.037771165,0.008766507,9.492106248437755,0.046308568769211404,stand
10/08/2020, 17:29:16,-0.23471193,-3.4560134,8.931028,0.025317404,0.037771165,0.008766507,9.579268566597726,0.046308568769211404,stand
10/08/2020, 17:29:16,-0.23471193,-3.4560134,8.931028,0.039978165,0.056097116,0.0051013166,9.579268566597726,0.06907360987980152,stand
10/08/2020, 17:29:16,-0.36883304,-3.544629,8.928633,0.039978165,0.056097116,0.0051013166,9.613579758920169,0.06907360987980152,stand
10/08/2020, 17:29:16,-0.36883304,-3.544629,8.928633,0.035091244,0.056097116,0.008766507,9.613579758920169,0.06674678632209903,stand
10/08/2020, 17:29:16,-0.44307864,-3.5015187,9.137,0.035091244,0.056097116,0.008766507,9.794984563707176,0.06674678632209903,stand
10/08/2020, 17:29:16,-0.44307864,-3.5015187,9.137,0.010656644,0.040214624,0.011209967,9.794984563707176,0.04308646434346894,stand
10/08/2020, 17:29:16,-0.37362307,-3.3338673,9.568104,0.010656644,0.040214624,0.011209967,10.139175291557226,0.04308646434346894,stand
10/08/2020, 17:29:16,-0.37362307,-3.3338673,9.568104,0.013100104,0.012114836,0.011209967,10.139175291557226,0.02107238325212047,stand
10/08/2020, 17:29:16,-0.29937744,-3.432063,9.455538,0.013100104,0.012114836,0.011209967,10.063591754709758,0.02107238325212047,stand
10/08/2020, 17:29:16,-0.29937744,-3.432063,9.455538,8.8280346E-4,-1.0246504E-4,0.012431697,10.063591754709758,0.012463423729270602,stand
10/08/2020, 17:29:16,-0.16765137,-3.547024,9.536968,8.8280346E-4,-1.0246504E-4,0.012431697,10.176603036564371,0.012463423729270602,stand
10/08/2020, 17:29:16,-0.16765137,-3.547024,9.536968,-0.036990825,-0.013541495,0.025870726,10.176603036564371,0.047127355936448116,stand
10/08/2020, 17:29:16,-0.14370118,-3.7170706,9.6686945,-0.036990825,-0.013541495,0.025870726,10.359580926974811,0.047127355936448116,stand
10/08/2020, 17:29:16,-0.14370118,-3.7170706,9.6686945,-0.076086186,-0.033089176,0.044196676,10.359580926974811,0.09400716700054466,stand
10/08/2020, 17:29:16,-0.13891114,-3.8895118,9.429193,-0.076086186,-0.033089176,0.044196676,10.200846560237464,0.09400716700054466,stand
10/08/2020, 17:29:16,-0.13891114,-3.8895118,9.429193,-0.068755805,-0.041641288,0.046640135,10.200846560237464,0.09293363136830653,stand
10/08/2020, 17:29:16,-0.07424561,-3.999683,9.273516,-0.068755805,-0.041641288,0.046640135,10.099557871487283,0.09293363136830653,stand
10/08/2020, 17:29:17,-0.26584718,-3.3099172,9.311836,0.10472985,0.024332136,-0.005894254,9.88617827468045,0.10768071924387673,stand
10/08/2020, 17:29:17,-0.37601808,-3.2428565,9.455538,0.10472985,0.024332136,-0.005894254,10.003234621977285,0.10768071924387673,stand
10/08/2020, 17:29:17,-0.37601808,-3.2428565,9.455538,0.12427754,0.0108931055,-0.0046725236,10.003234621977285,0.12484149575227678,stand
10/08/2020, 17:29:17,-0.46702883,-3.2117214,9.532178,0.12427754,0.0108931055,-0.0046725236,10.06954251206319,0.12484149575227678,stand
10/08/2020, 17:29:17,-0.46702883,-3.2117214,9.532178,0.13038619,-0.0013241951,-0.007115984,10.06954251206319,0.13058694001889432,stand
10/08/2020, 17:29:17,-0.39757326,-3.278782,9.383687,0.13038619,-0.0013241951,-0.007115984,9.947967494116165,0.13058694001889432,stand
10/08/2020, 17:29:17,-0.39757326,-3.278782,9.383687,0.10106467,-0.0074328454,-0.010781174,9.947967494116165,0.1019095080564404,stand
10/08/2020, 17:29:17,-0.2802173,-3.2811768,9.242381,0.10106467,-0.0074328454,-0.010781174,9.811536642141954,0.1019095080564404,stand
10/08/2020, 17:29:17,-0.2802173,-3.2811768,9.242381,0.047308546,-0.019650145,2.1439628E-4,9.811536642141954,0.05122765491121664,stand
10/08/2020, 17:29:17,-0.23231691,-3.1901662,9.1202345,0.047308546,-0.019650145,2.1439628E-4,9.664875006763923,0.05122765491121664,stand
10/08/2020, 17:29:17,-0.23231691,-3.1901662,9.1202345,-0.008891036,-0.033089176,0.022205535,9.664875006763923,0.040829277155858254,stand
10/08/2020, 17:29:17,-0.20357667,-3.187771,9.086704,-0.008891036,-0.033089176,0.022205535,9.6317974508058,0.040829277155858254,stand
10/08/2020, 17:29:17,-0.20357667,-3.187771,9.086704,-0.040656015,-0.04286302,0.031979375,9.6317974508058,0.06717760310383818,stand
10/08/2020, 17:29:17,-0.12693603,-3.3242872,9.062755,-0.040656015,-0.04286302,0.031979375,9.654041614186577,0.06717760310383818,stand
10/08/2020, 17:29:17,-0.12693603,-3.3242872,9.062755,-0.029660445,-0.04286302,0.029535916,9.654041614186577,0.05991118992440851,stand
10/08/2020, 17:29:17,-0.05748047,-3.432063,9.182506,-0.029660445,-0.04286302,0.029535916,9.803100039228411,0.05991118992440851,stand
10/08/2020, 17:29:17,-0.05748047,-3.432063,9.182506,0.008213184,-0.03186745,0.030757647,9.803100039228411,0.04504468332272939,stand
10/08/2020, 17:29:17,-0.16046631,-3.422483,9.477093,0.008213184,-0.03186745,0.030757647,10.07742159272962,0.04504468332272939,stand
10/08/2020, 17:29:17,-0.16046631,-3.422483,9.477093,0.053417195,-0.022093605,0.035644565,10.07742159272962,0.0679121423147026,stand
10/08/2020, 17:29:17,-0.28740236,-3.2428565,9.627979,0.053417195,-0.022093605,0.035644565,10.163498580801695,0.0679121423147026,stand
10/08/2020, 17:29:17,-0.28740236,-3.2428565,9.627979,0.052195467,-0.028202256,0.030757647,10.163498580801695,0.06682639362262426,stand
10/08/2020, 17:29:17,-0.4047583,-3.0895753,9.663904,0.052195467,-0.028202256,0.030757647,10.15383419977167,0.06682639362262426,stand
10/08/2020, 17:29:17,-0.4047583,-3.0895753,9.663904,0.019208755,-0.052636858,0.033201106,10.15383419977167,0.06513008937860396,stand
10/08/2020, 17:29:17,-0.4023633,-3.1087356,9.580078,0.019208755,-0.052636858,0.033201106,10.079882434685558,0.06513008937860396,stand
10/08/2020, 17:29:17,-0.4023633,-3.1087356,9.580078,-0.038212556,-0.08562356,0.044196676,10.079882434685558,0.10365780290684806,stand
10/08/2020, 17:29:17,-0.30416748,-3.1470559,9.381292,-0.038212556,-0.08562356,0.044196676,9.899753759368958,0.10365780290684806,stand
10/08/2020, 17:29:17,-0.30416748,-3.1470559,9.381292,-0.09441214,-0.114945084,0.055192247,9.899753759368958,0.15865752020708082,stand
10/08/2020, 17:29:17,-0.16765137,-3.3242872,9.307046,-0.09441214,-0.114945084,0.055192247,9.884335904703445,0.15865752020708082,stand
10/08/2020, 17:29:17,-0.16765137,-3.3242872,9.307046,-0.13228577,-0.123497196,0.055192247,9.884335904703445,0.1892016579657671,stand
10/08/2020, 17:29:17,-0.07424561,-3.4631984,9.187295,-0.13228577,-0.123497196,0.055192247,9.818637604713421,0.1892016579657671,stand
10/08/2020, 17:29:18,-0.31135255,-4.2104445,9.065149,-0.15916383,-0.15892737,0.45714143,10.000085741806375,0.5094794594622549,stand
10/08/2020, 17:29:18,-0.2945874,-3.8368216,8.976534,-0.15916383,-0.15892737,0.45714143,9.766582926787002,0.5094794594622549,stand
10/08/2020, 17:29:18,-0.2945874,-3.8368216,8.976534,-0.20803304,-0.19313581,0.468137,9.766582926787002,0.5474773374941622,stand
10/08/2020, 17:29:18,-0.28979737,-3.6859353,8.974138,-0.20803304,-0.19313581,0.468137,9.70593935450215,0.5474773374941622,stand
10/08/2020, 17:29:18,-0.28979737,-3.6859353,8.974138,-0.27889335,-0.23833981,0.49134988,9.70593935450215,0.6131982288714471,stand
10/08/2020, 17:29:18,-0.3161426,-3.8104763,9.148975,-0.27889335,-0.23833981,0.49134988,9.915816968671553,0.6131982288714471,stand
10/08/2020, 17:29:18,-0.3161426,-3.8104763,9.148975,-0.32409737,-0.27376997,0.50723237,9.915816968671553,0.6612667965975505,stand
10/08/2020, 17:29:18,-0.27303225,-4.028423,9.108259,-0.32409737,-0.27376997,0.50723237,9.963088015233339,0.6612667965975505,stand
10/08/2020, 17:29:18,-0.27303225,-4.028423,9.108259,-0.33631468,-0.2859873,0.5206714,9.963088015233339,0.6826382839265127,stand
10/08/2020, 17:29:18,-0.2706372,-4.1314087,9.060359,-0.33631468,-0.2859873,0.5206714,9.96152034114388,0.6826382839265127,stand
10/08/2020, 17:29:18,-0.2706372,-4.1314087,9.060359,-0.35097542,-0.28354383,0.5328887,9.96152034114388,0.698248685530803,stand
10/08/2020, 17:29:18,-0.3544629,-4.0930886,8.986114,-0.35097542,-0.28354383,0.5328887,9.880751750326432,0.698248685530803,stand
10/08/2020, 17:29:18,-0.3544629,-4.0930886,8.986114,-0.38884908,-0.27499172,0.5609885,9.880751750326432,0.7358886699082465,stand
10/08/2020, 17:29:18,-0.40954837,-3.9469924,8.796907,-0.38884908,-0.27499172,0.5609885,9.650495277247384,0.7358886699082465,stand
10/08/2020, 17:29:18,-0.40954837,-3.9469924,8.796907,-0.4022881,-0.32019573,0.55732334,9.650495277247384,0.7582679820533705,stand
10/08/2020, 17:29:18,-0.3424878,-4.0499783,9.13221,-0.4022881,-0.32019573,0.55732334,9.995842996147372,0.7582679820533705,stand
10/08/2020, 17:29:18,-0.3424878,-4.0499783,9.13221,-0.3912925,-0.33363476,0.5512147,9.995842996147372,0.7538299715133905,stand
10/08/2020, 17:29:18,-0.24668702,-4.129014,9.163345,-0.3912925,-0.33363476,0.5512147,10.053681365025675,0.7538299715133905,stand
10/08/2020, 17:29:18,-0.24668702,-4.129014,9.163345,-0.35952756,-0.32752612,0.55732334,10.053681365025675,0.7396909674687687,stand
10/08/2020, 17:29:18,-0.3065625,-4.2056546,9.139395,-0.35952756,-0.32752612,0.55732334,10.065289263014517,0.7396909674687687,stand
10/08/2020, 17:29:18,-0.3065625,-4.2056546,9.139395,-0.35097542,-0.30920017,0.5805362,10.065289263014517,0.745527166526432,stand
10/08/2020, 17:29:18,-0.44547364,-4.160149,8.897498,-0.35097542,-0.30920017,0.5805362,9.832128979294284,0.745527166526432,stand
10/08/2020, 17:29:18,-0.44547364,-4.160149,8.897498,-0.407175,-0.29942632,0.60741425,9.832128979294284,0.7901896414662205,stand
10/08/2020, 17:29:18,-0.46463382,-4.0044727,8.62207,-0.407175,-0.29942632,0.60741425,9.51797157635691,0.7901896414662205,stand
10/08/2020, 17:29:18,-0.46463382,-4.0044727,8.62207,-0.47192672,-0.3397434,0.60374904,9.51797157635691,0.8382441822751842,stand
10/08/2020, 17:29:18,-0.5364844,-4.0739284,8.866363,-0.47192672,-0.3397434,0.60374904,9.772261408577203,0.8382441822751842,stand
10/08/2020, 17:29:18,-0.5364844,-4.0739284,8.866363,-0.5122438,-0.36539975,0.5988621,9.772261408577203,0.8686463737952451,stand
10/08/2020, 17:29:18,-0.41912845,-4.2176294,8.840017,-0.5122438,-0.36539975,0.5988621,9.803569394995524,0.8686463737952451,stand
10/08/2020, 17:29:18,-0.41912845,-4.2176294,8.840017,-0.5317915,-0.3678432,0.59397525,9.803569394995524,0.878019036611245,stand
10/08/2020, 17:29:18,-0.29937744,-4.3158255,8.954978,-0.5317915,-0.3678432,0.59397525,9.945230367408051,0.878019036611245,stand
10/08/2020, 17:29:19,-1.5184424,-3.178191,5.985154,-1.7840648,-0.033089176,0.27143845,6.944683953500205,1.8048991185476428,stand
10/08/2020, 17:29:19,-1.583108,-3.415298,7.2497244,-1.7840648,-0.033089176,0.27143845,8.168781721076297,1.8048991185476428,stand
10/08/2020, 17:29:19,-1.583108,-3.415298,7.2497244,-2.0015326,-0.15404044,0.2897644,8.168781721076297,2.0282565012012097,stand
10/08/2020, 17:29:19,-0.78556645,-4.366121,8.064031,-2.0015326,-0.15404044,0.2897644,9.203733802098274,2.0282565012012097,stand
10/08/2020, 17:29:19,-0.78556645,-4.366121,8.064031,-1.9343376,-0.06851935,0.28365576,9.203733802098274,1.9562253206301827,stand
10/08/2020, 17:29:19,-0.27542725,-5.5875807,8.713081,-1.9343376,-0.06851935,0.28365576,10.354453381021502,1.9562253206301827,stand
10/08/2020, 17:29:19,-0.27542725,-5.5875807,8.713081,-1.5226146,-0.004989385,0.25799942,10.354453381021502,1.544326328742687,stand
10/08/2020, 17:29:19,-0.53169435,-6.871311,9.481883,-1.5226146,-0.004989385,0.25799942,11.721933393368158,1.544326328742687,stand
10/08/2020, 17:29:19,-0.53169435,-6.871311,9.481883,-0.823785,0.006006185,0.27876884,11.721933393368158,0.8696952781003707,stand
10/08/2020, 17:29:19,-0.76401126,-7.31918,10.075848,-0.823785,0.006006185,0.27876884,12.477051519996754,0.8696952781003707,stand
10/08/2020, 17:29:19,-0.76401126,-7.31918,10.075848,-0.16038556,-0.012319765,0.27876884,12.477051519996754,0.32184991917838335,stand
10/08/2020, 17:29:19,-0.23710695,-7.117998,9.70941,-0.16038556,-0.012319765,0.27876884,12.041376747536466,0.32184991917838335,stand
10/08/2020, 17:29:19,-0.23710695,-7.117998,9.70941,0.15848596,-0.012319765,0.21523888,12.041376747536466,0.2675768200014102,stand
10/08/2020, 17:29:19,0.035925295,-6.5479836,9.431587,0.15848596,-0.012319765,0.21523888,11.481821194146956,0.2675768200014102,stand
10/08/2020, 17:29:19,0.035925295,-6.5479836,9.431587,0.2122421,-0.044084746,0.19324774,11.481821194146956,0.2904046482686402,stand
10/08/2020, 17:29:19,0.045505375,-6.449788,9.275911,0.2122421,-0.044084746,0.19324774,11.297980714043307,0.2904046482686402,stand
10/08/2020, 17:29:19,0.045505375,-6.449788,9.275911,0.16215116,-0.123497196,0.22379099,11.297980714043307,0.30269945780708274,stand
10/08/2020, 17:29:19,0.009580079,-6.6533647,9.256751,0.16215116,-0.123497196,0.22379099,11.399771631518208,0.30269945780708274,stand
10/08/2020, 17:29:19,0.009580079,-6.6533647,9.256751,0.13282964,-0.18580543,0.24089521,11.399771631518208,0.33196064719266105,stand
10/08/2020, 17:29:19,0.28261232,-6.7898808,9.172925,0.13282964,-0.18580543,0.24089521,11.415993313383549,0.33196064719266105,stand
10/08/2020, 17:29:19,0.28261232,-6.7898808,9.172925,0.13160792,-0.18824889,0.21890406,11.415993313383549,0.3172968281236439,stand
10/08/2020, 17:29:19,0.4047583,-6.4186525,8.8951025,0.13160792,-0.18824889,0.21890406,10.976601393199491,0.3172968281236439,stand
10/08/2020, 17:29:19,0.4047583,-6.4186525,8.8951025,0.12183408,-0.1723664,0.20179985,10.976601393199491,0.2920220847211263,stand
10/08/2020, 17:29:19,0.23710695,-5.8007374,8.54064,0.12183408,-0.1723664,0.20179985,10.327018126375103,0.2920220847211263,stand
10/08/2020, 17:29:19,0.23710695,-5.8007374,8.54064,0.092512555,-0.16747947,0.21523888,10.327018126375103,0.28798563007807576,stand
10/08/2020, 17:29:19,-0.06945557,-5.2762284,8.131092,0.092512555,-0.16747947,0.21523888,9.693197035828852,0.28798563007807576,stand
10/08/2020, 17:29:19,-0.06945557,-5.2762284,8.131092,0.050973736,-0.17969678,0.23600829,9.693197035828852,0.3009803432026896,stand
10/08/2020, 17:29:19,-0.2203418,-5.0031962,7.788604,0.050973736,-0.17969678,0.23600829,9.259744705086732,0.3009803432026896,stand
10/08/2020, 17:29:19,-0.2203418,-5.0031962,7.788604,0.016765293,-0.18824889,0.23356482,9.259744705086732,0.3004517360450381,stand
10/08/2020, 17:29:19,-0.28261232,-4.974456,7.647298,0.016765293,-0.18824889,0.23356482,9.127225488150197,0.3004517360450381,stand
10/08/2020, 17:29:20,-0.80233157,-5.336104,8.186177,0.010656644,0.038992893,0.011209967,9.804653944766267,0.04194845773385017,stand
10/08/2020, 17:29:20,-0.90052736,-5.3145485,8.121511,0.010656644,0.038992893,0.011209967,9.747529101540351,0.04194845773385017,stand
10/08/2020, 17:29:20,-0.90052736,-5.3145485,8.121511,0.008213184,0.038992893,0.016096886,9.747529101540351,0.04297687560030881,stand
10/08/2020, 17:29:20,-0.86939216,-5.3025737,8.145462,0.008213184,0.038992893,0.016096886,9.75815977247641,0.04297687560030881,stand
10/08/2020, 17:29:20,-0.86939216,-5.3025737,8.145462,-0.0027823867,0.031662513,0.008766507,9.75815977247641,0.0329713211691014,stand
10/08/2020, 17:29:20,-0.87178713,-5.3001785,8.064031,-0.0027823867,0.031662513,0.008766507,9.68919478122993,0.0329713211691014,stand
10/08/2020, 17:29:20,-0.87178713,-5.3001785,8.064031,-0.013777957,0.021888675,0.0051013166,9.68919478122993,0.02636227681856813,stand
10/08/2020, 17:29:20,-0.83586186,-5.333709,8.0999565,-0.013777957,0.021888675,0.0051013166,9.734290406869151,0.02636227681856813,stand
10/08/2020, 17:29:20,-0.83586186,-5.333709,8.0999565,-0.014999687,0.013336565,0.006323046,9.734290406869151,0.021043656737516125,stand
10/08/2020, 17:29:20,-0.7951465,-5.3792143,8.147857,-0.014999687,0.013336565,0.006323046,9.795701779059735,0.021043656737516125,stand
10/08/2020, 17:29:20,-0.7951465,-5.3792143,8.147857,-0.016221415,0.014558295,2.1439628E-4,9.795701779059735,0.021797344463479033,stand
10/08/2020, 17:29:20,-0.7448511,-5.374424,8.250843,-0.016221415,0.014558295,2.1439628E-4,9.875001129537324,0.021797344463479033,stand
10/08/2020, 17:29:20,-0.7448511,-5.374424,8.250843,-0.013777957,0.013336565,-0.0010073337,9.875001129537324,0.01920184376030709,stand
10/08/2020, 17:29:20,-0.8382569,-5.3935843,8.178992,-0.013777957,0.013336565,-0.0010073337,9.833073795915388,0.01920184376030709,stand
10/08/2020, 17:29:20,-0.8382569,-5.3935843,8.178992,-0.011334497,0.013336565,0.0038795862,9.833073795915388,0.017927241188084832,stand
10/08/2020, 17:29:20,-0.85023195,-5.3241286,8.267608,-0.011334497,0.013336565,0.0038795862,9.870287579595171,0.017927241188084832,stand
10/08/2020, 17:29:20,-0.85023195,-5.3241286,8.267608,-0.010112767,0.0108931055,0.0038795862,9.870287579595171,0.015361607858555318,stand
10/08/2020, 17:29:20,-0.85741705,-5.3408937,8.167017,-0.010112767,0.0108931055,0.0038795862,9.795941832899759,0.015361607858555318,stand
10/08/2020, 17:29:20,-0.85741705,-5.3408937,8.167017,-0.011334497,0.008449646,0.0051013166,9.795941832899759,0.01502966253322684,stand
10/08/2020, 17:29:20,-0.87178713,-5.345684,8.162227,-0.011334497,0.008449646,0.0051013166,9.795830495974247,0.01502966253322684,stand
10/08/2020, 17:29:20,-0.87178713,-5.345684,8.162227,-0.019886605,0.0047844555,0.006323046,9.795830495974247,0.02140908690257214,stand
10/08/2020, 17:29:20,-0.91729254,-5.369634,8.0999565,-0.019886605,0.0047844555,0.006323046,9.761336589803596,0.02140908690257214,stand
10/08/2020, 17:29:20,-0.91729254,-5.369634,8.0999565,-0.024773527,0.0011192651,0.0038795862,9.761336589803596,0.025100429888814245,stand
10/08/2020, 17:29:20,-0.8885523,-5.3935843,8.157437,-0.024773527,0.0011192651,0.0038795862,9.819575346455983,0.025100429888814245,stand
10/08/2020, 17:29:20,-0.8885523,-5.3935843,8.157437,-0.025995255,0.0011192651,0.0038795862,9.819575346455983,0.026306980083227533,stand
10/08/2020, 17:29:20,-0.83586186,-5.4366946,8.190968,-0.025995255,0.0011192651,0.0038795862,9.866522337232274,0.026306980083227533,stand
10/08/2020, 17:29:20,-0.83586186,-5.4366946,8.190968,-0.023551796,0.003562725,0.0014361264,9.866522337232274,0.023862995314786098,stand
10/08/2020, 17:29:20,-0.84544194,-5.465435,8.241262,-0.023551796,0.003562725,0.0014361264,9.924926128355189,0.023862995314786098,stand
10/08/2020, 17:29:20,-0.84544194,-5.465435,8.241262,-0.018664878,0.003562725,2.1439628E-4,9.924926128355189,0.01900306923068896,stand
10/08/2020, 17:29:20,-0.86220706,-5.391189,8.248447,-0.018664878,0.003562725,2.1439628E-4,9.89167355461799,0.01900306923068896,stand
10/08/2020, 17:29:21,-0.9196875,-5.51094,8.392149,0.005769724,0.041436356,-0.08164152,10.081887223401178,0.09173657215206975,stand
10/08/2020, 17:29:21,-0.8885523,-5.4750147,8.3179035,0.005769724,0.041436356,-0.08164152,9.997641220234389,0.09173657215206975,stand
10/08/2020, 17:29:21,-0.8885523,-5.4750147,8.3179035,0.006991454,0.042658083,-0.073089406,9.997641220234389,0.0849155682978575,stand
10/08/2020, 17:29:21,-0.9244776,-5.4271145,8.267608,0.006991454,0.042658083,-0.073089406,9.93285293055686,0.0849155682978575,stand
10/08/2020, 17:29:21,-0.9244776,-5.4271145,8.267608,0.0045479937,0.046323273,-0.058428645,9.93285293055686,0.0747023190439681,stand
10/08/2020, 17:29:21,-0.8933423,-5.455855,8.193362,0.0045479937,0.046323273,-0.058428645,9.884108348002163,0.0747023190439681,stand
10/08/2020, 17:29:21,-0.8933423,-5.455855,8.193362,-0.0052258465,0.043879814,-0.058428645,9.884108348002163,0.07325745122583162,stand
10/08/2020, 17:29:21,-0.88376224,-5.43909,8.188572,-0.0052258465,0.043879814,-0.058428645,9.870027534443746,0.07325745122583162,stand
10/08/2020, 17:29:21,-0.88376224,-5.43909,8.188572,-0.014999687,0.036549434,-0.053541727,9.870027534443746,0.06653997521766604,stand
10/08/2020, 17:29:21,-0.88376224,-5.50136,8.236472,-0.014999687,0.036549434,-0.053541727,9.944117357898987,0.06653997521766604,stand
10/08/2020, 17:29:21,-0.88376224,-5.50136,8.236472,-0.017443147,0.034105975,-0.043767884,9.944117357898987,0.05816449610698789,stand
10/08/2020, 17:29:21,-0.81191164,-5.5372853,8.265213,-0.017443147,0.034105975,-0.043767884,9.981707041545603,0.05816449610698789,stand
10/08/2020, 17:29:21,-0.81191164,-5.5372853,8.265213,-0.011334497,0.040214624,-0.041324425,9.981707041545603,0.05876559331839292,stand
10/08/2020, 17:29:21,-0.80712163,-5.5468655,8.231683,-0.011334497,0.040214624,-0.041324425,9.958903712163558,0.05876559331839292,stand
10/08/2020, 17:29:21,-0.80712163,-5.5468655,8.231683,-0.006447577,0.047545005,-0.036437504,9.958903712163558,0.06024774195958593,stand
10/08/2020, 17:29:21,-0.8310718,-5.489385,8.150251,-0.006447577,0.047545005,-0.036437504,9.861573257200703,0.06024774195958593,stand
10/08/2020, 17:29:21,-0.8310718,-5.489385,8.150251,-0.0076693064,0.046323273,-0.026663665,9.861573257200703,0.05399643440901285,stand
10/08/2020, 17:29:21,-0.87178713,-5.4103494,8.133487,-0.0076693064,0.046323273,-0.026663665,9.807420648281841,0.05399643440901285,stand
10/08/2020, 17:29:21,-0.87178713,-5.4103494,8.133487,-0.016221415,0.041436356,-0.021776743,9.807420648281841,0.04954121941157063,stand
10/08/2020, 17:29:21,-0.8310718,-5.3217335,8.131092,-0.016221415,0.041436356,-0.021776743,9.753265390558418,0.04954121941157063,stand
10/08/2020, 17:29:21,-0.8310718,-5.3217335,8.131092,-0.019886605,0.032884244,-0.019333284,9.753265390558418,0.04301890810978624,stand
10/08/2020, 17:29:21,-0.855022,-5.360054,8.183782,-0.019886605,0.032884244,-0.019333284,9.820159029536837,0.04301890810978624,stand
10/08/2020, 17:29:21,-0.855022,-5.360054,8.183782,-0.019886605,0.027997326,-0.016889825,9.820159029536837,0.03827000848243467,stand
10/08/2020, 17:29:21,-0.8262818,-5.374424,8.152647,-0.019886605,0.027997326,-0.016889825,9.799634080996979,0.03827000848243467,stand
10/08/2020, 17:29:21,-0.8262818,-5.374424,8.152647,-0.021108337,0.025553865,-0.018111553,9.799634080996979,0.037770229925068025,stand
10/08/2020, 17:29:21,-0.80233157,-5.362449,8.037686,-0.021108337,0.025553865,-0.018111553,9.69556593825856,0.037770229925068025,stand
10/08/2020, 17:29:21,-0.80233157,-5.362449,8.037686,-0.018664878,0.015780026,-0.016889825,9.69556593825856,0.029709478172359225,stand
10/08/2020, 17:29:21,-0.847837,-5.415139,8.083191,-0.018664878,0.015780026,-0.016889825,9.766295893695153,0.029709478172359225,stand
10/08/2020, 17:29:21,-0.847837,-5.415139,8.083191,-0.025995255,0.013336565,-0.020555016,9.766295893695153,0.0357229044327128,stand
10/08/2020, 17:29:21,-0.81191164,-5.4462748,8.037686,-0.025995255,0.013336565,-0.020555016,9.742972394318267,0.0357229044327128,stand
10/08/2020, 17:29:22,-0.68976563,-5.489385,8.281978,-0.0027823867,-0.025758795,0.019762076,9.95993371284014,0.03258522492714372,stand
10/08/2020, 17:29:22,-0.6777906,-5.49657,8.296348,-0.0027823867,-0.025758795,0.019762076,9.975022147913778,0.03258522492714372,stand
10/08/2020, 17:29:22,-0.6777906,-5.49657,8.296348,-3.3892598E-4,-0.020871876,0.018540345,9.975022147913778,0.02791942814916343,stand
10/08/2020, 17:29:22,-0.7041358,-5.46304,8.229287,-3.3892598E-4,-0.020871876,0.018540345,9.902614746771473,0.02791942814916343,stand
10/08/2020, 17:29:22,-0.7041358,-5.46304,8.229287,0.0045479937,-0.015984956,0.023427267,9.902614746771473,0.02872350765176881,stand
10/08/2020, 17:29:22,-0.7185059,-5.415139,8.217313,0.0045479937,-0.015984956,0.023427267,9.86733059931109,0.02872350765176881,stand
10/08/2020, 17:29:22,-0.7185059,-5.415139,8.217313,0.008213184,-0.015984956,0.022205535,9.86733059931109,0.028566781612695442,stand
10/08/2020, 17:29:22,-0.7927515,-5.415139,8.195757,0.008213184,-0.015984956,0.022205535,9.855080863594319,0.028566781612695442,stand
10/08/2020, 17:29:22,-0.7927515,-5.415139,8.195757,0.0033262637,-0.014763225,0.016096886,9.855080863594319,0.022093586986273256,stand
10/08/2020, 17:29:22,-0.79035646,-5.4462748,8.183782,0.0033262637,-0.014763225,0.016096886,9.862091752216113,0.022093586986273256,stand
10/08/2020, 17:29:22,-0.79035646,-5.4462748,8.183782,8.8280346E-4,-0.015984956,0.014875156,9.862091752216113,0.021853339061493917,stand
10/08/2020, 17:29:22,-0.7664063,-5.5157304,8.2197075,8.8280346E-4,-0.015984956,0.014875156,9.928456650159433,0.021853339061493917,stand
10/08/2020, 17:29:22,-0.7664063,-5.5157304,8.2197075,0.0033262637,-0.018428415,0.013653426,9.928456650159433,0.02317512816431501,stand
10/08/2020, 17:29:22,-0.68976563,-5.527705,8.207732,0.0033262637,-0.018428415,0.013653426,9.919585132471793,0.02317512816431501,stand
10/08/2020, 17:29:22,-0.68976563,-5.527705,8.207732,0.0033262637,-0.011098035,0.006323046,9.919585132471793,0.013198913425576813,stand
10/08/2020, 17:29:22,-0.6730005,-5.5420756,8.202942,0.0033262637,-0.011098035,0.006323046,9.922488989693527,0.013198913425576813,stand
10/08/2020, 17:29:22,-0.6730005,-5.5420756,8.202942,0.008213184,-0.0037676552,0.0075447764,9.922488989693527,0.011771799610601496,stand
10/08/2020, 17:29:22,-0.76161623,-5.5301003,8.200547,0.008213184,-0.0037676552,0.0075447764,9.920234059450937,0.011771799610601496,stand
10/08/2020, 17:29:22,-0.76161623,-5.5301003,8.200547,0.008213184,-0.0013241951,0.013653426,9.920234059450937,0.015988306186520057,stand
10/08/2020, 17:29:22,-0.7232959,-5.46304,8.200547,0.008213184,-0.0013241951,0.013653426,9.880128357172206,0.015988306186520057,stand
10/08/2020, 17:29:22,-0.7232959,-5.46304,8.200547,0.006991454,0.0011192651,0.012431697,9.880128357172206,0.014306651337722402,stand
10/08/2020, 17:29:22,-0.7544312,-5.4414845,8.234077,0.006991454,0.0011192651,0.012431697,9.898431742622877,0.014306651337722402,stand
10/08/2020, 17:29:22,-0.7544312,-5.4414845,8.234077,0.009434914,-1.0246504E-4,0.014875156,9.898431742622877,0.01761528789487224,stand
10/08/2020, 17:29:22,-0.728086,-5.4271145,8.241262,0.009434914,-1.0246504E-4,0.014875156,9.894548367913904,0.01761528789487224,stand
10/08/2020, 17:29:22,-0.728086,-5.4271145,8.241262,0.010656644,0.002340995,0.012431697,9.894548367913904,0.016540598590067932,stand
10/08/2020, 17:29:22,-0.69216067,-5.4462748,8.183782,0.010656644,0.002340995,0.012431697,9.85470835627218,0.016540598590067932,stand
10/08/2020, 17:29:22,-0.69216067,-5.4462748,8.183782,0.010656644,0.008449646,0.009988236,9.85470835627218,0.016873808993641267,stand
10/08/2020, 17:29:22,-0.6849756,-5.4223247,8.138277,0.010656644,0.008449646,0.009988236,9.80318059107444,0.016873808993641267,stand
10/08/2020, 17:29:22,-0.6849756,-5.4223247,8.138277,0.015543564,0.0108931055,0.013653426,9.80318059107444,0.023381150316615914,stand
10/08/2020, 17:29:22,-0.68018556,-5.52052,8.143066,0.015543564,0.0108931055,0.013653426,9.861456600305305,0.023381150316615914,stand
10/08/2020, 17:29:23,-0.7496411,-5.494175,8.157437,-3.3892598E-4,0.027997326,-0.010781174,9.863655710441913,0.030003313883080418,stand
10/08/2020, 17:29:23,-0.7113208,-5.4223247,8.181387,-3.3892598E-4,0.027997326,-0.010781174,9.84086756251355,0.030003313883080418,stand
10/08/2020, 17:29:23,-0.7113208,-5.4223247,8.181387,0.006991454,0.024332136,-0.012002904,9.84086756251355,0.0280179044542566,stand
10/08/2020, 17:29:23,-0.72569096,-5.4247193,8.234077,0.006991454,0.024332136,-0.012002904,9.88707432619343,0.0280179044542566,stand
10/08/2020, 17:29:23,-0.72569096,-5.4247193,8.234077,0.013100104,0.025553865,-0.007115984,9.88707432619343,0.02958462432825022,stand
10/08/2020, 17:29:23,-0.6706055,-5.367239,8.255632,0.013100104,0.025553865,-0.007115984,9.869773680748064,0.02958462432825022,stand
10/08/2020, 17:29:23,-0.6706055,-5.367239,8.255632,0.014321834,0.030440787,-0.010781174,9.869773680748064,0.03532690381456442,stand
10/08/2020, 17:29:23,-0.76880133,-5.2762284,8.145462,0.014321834,0.030440787,-0.010781174,9.73540927196543,0.03532690381456442,stand
10/08/2020, 17:29:23,-0.76880133,-5.2762284,8.145462,0.016765293,0.029219056,-0.0046725236,9.73540927196543,0.03400971514536303,stand
10/08/2020, 17:29:23,-0.7783814,-5.257068,8.159832,0.016765293,0.029219056,-0.0046725236,9.737838646473403,0.03400971514536303,stand
10/08/2020, 17:29:23,-0.7783814,-5.257068,8.159832,0.010656644,0.021888675,-0.005894254,9.737838646473403,0.02504836091353799,stand
10/08/2020, 17:29:23,-0.83586186,-5.3384986,8.133487,0.010656644,0.021888675,-0.005894254,9.764826621520333,0.02504836091353799,stand
10/08/2020, 17:29:23,-0.83586186,-5.3384986,8.133487,-0.0015606564,0.017001756,-0.012002904,9.764826621520333,0.020870195092870504,stand
10/08/2020, 17:29:23,-0.81191164,-5.388794,8.205338,-0.0015606564,0.017001756,-0.012002904,9.850170789885052,0.020870195092870504,stand
10/08/2020, 17:29:23,-0.81191164,-5.388794,8.205338,-0.0027823867,0.0108931055,-0.014446364,9.850170789885052,0.018305705410168842,stand
10/08/2020, 17:29:23,-0.7831714,-5.4462748,8.231683,-0.0027823867,0.0108931055,-0.014446364,9.901306355554441,0.018305705410168842,stand
10/08/2020, 17:29:23,-0.7831714,-5.4462748,8.231683,0.0033262637,0.0108931055,-0.013224634,9.901306355554441,0.017453215521656653,stand
10/08/2020, 17:29:23,-0.7568262,-5.5061502,8.270002,0.0033262637,0.0108931055,-0.013224634,9.964106361186476,0.017453215521656653,stand
10/08/2020, 17:29:23,-0.7568262,-5.5061502,8.270002,0.006991454,0.015780026,-0.016889825,9.964106361186476,0.024148620163437346,stand
10/08/2020, 17:29:23,-0.7232959,-5.4438796,8.183782,0.006991454,0.015780026,-0.016889825,9.8556209246975,0.024148620163437346,stand
10/08/2020, 17:29:23,-0.7232959,-5.4438796,8.183782,0.009434914,0.019445216,-0.012002904,9.8556209246975,0.02472253519036128,stand
10/08/2020, 17:29:23,-0.80233157,-5.415139,8.224498,0.009434914,0.019445216,-0.012002904,9.8797688465767,0.02472253519036128,stand
10/08/2020, 17:29:23,-0.80233157,-5.415139,8.224498,0.0045479937,0.014558295,-0.005894254,9.8797688465767,0.016351465474485467,stand
10/08/2020, 17:29:23,-0.77359134,-5.4175344,8.162227,0.0045479937,0.014558295,-0.005894254,9.827006987608021,0.016351465474485467,stand
10/08/2020, 17:29:23,-0.77359134,-5.4175344,8.162227,-0.0027823867,0.0108931055,-0.007115984,9.827006987608021,0.01330558718771348,stand
10/08/2020, 17:29:23,-0.8430469,-5.369634,8.150251,-0.0027823867,0.0108931055,-0.007115984,9.79644306362043,0.01330558718771348,stand
10/08/2020, 17:29:23,-0.8430469,-5.369634,8.150251,-0.010112767,0.0047844555,-0.0022290638,9.79644306362043,0.011407357210370948,stand
10/08/2020, 17:29:23,-0.80712163,-5.364844,8.2197075,-0.010112767,0.0047844555,-0.0022290638,9.848684481847071,0.011407357210370948,stand
10/08/2020, 17:29:23,-0.80712163,-5.364844,8.2197075,-0.012556226,0.002340995,-0.0010073337,9.848684481847071,0.012812251561957371,stand
10/08/2020, 17:29:23,-0.76401126,-5.400769,8.178992,-0.012556226,0.002340995,-0.0010073337,9.830968217983814,0.012812251561957371,stand
10/08/2020, 17:29:24,-0.79993653,-5.345684,8.210127,0.0021045338,-0.015984956,0.009988236,9.829670379471436,0.01896609474283759,stand
10/08/2020, 17:29:24,-0.8214917,-5.4103494,8.246053,0.0021045338,-0.015984956,0.009988236,9.896671903337536,0.01896609474283759,stand
10/08/2020, 17:29:24,-0.8214917,-5.4103494,8.246053,-0.004004116,-0.013541495,0.0038795862,9.896671903337536,0.014644324295399311,stand
10/08/2020, 17:29:24,-0.76880133,-5.3863993,8.222102,-0.004004116,-0.013541495,0.0038795862,9.859377089294346,0.014644324295399311,stand
10/08/2020, 17:29:24,-0.76880133,-5.3863993,8.222102,-0.0015606564,-0.012319765,0.0038795862,9.859377089294346,0.01301012869210943,stand
10/08/2020, 17:29:24,-0.85023195,-5.3959794,8.238868,-0.0015606564,-0.012319765,0.0038795862,9.885263277035984,0.01301012869210943,stand
10/08/2020, 17:29:24,-0.85023195,-5.3959794,8.238868,0.006991454,-0.009876305,0.006323046,9.885263277035984,0.013652939047064671,stand
10/08/2020, 17:29:24,-0.7879615,-5.367239,8.308323,0.006991454,-0.009876305,0.006323046,9.922518192644235,0.013652939047064671,stand
10/08/2020, 17:29:24,-0.7879615,-5.367239,8.308323,0.013100104,-0.0037676552,0.0038795862,9.922518192644235,0.014172478638300436,stand
10/08/2020, 17:29:24,-0.79754156,-5.3241286,8.236472,0.013100104,-0.0037676552,0.0038795862,9.839811549433657,0.014172478638300436,stand
10/08/2020, 17:29:24,-0.79754156,-5.3241286,8.236472,0.019208755,-1.0246504E-4,0.0026578563,9.839811549433657,0.01939203396265363,stand
10/08/2020, 17:29:24,-0.82388675,-5.319339,8.248447,0.019208755,-1.0246504E-4,0.0026578563,9.84941822874973,0.01939203396265363,stand
10/08/2020, 17:29:24,-0.82388675,-5.319339,8.248447,0.016765293,-1.0246504E-4,0.0026578563,9.84941822874973,0.01697497392607202,stand
10/08/2020, 17:29:24,-0.85023195,-5.3097587,8.250843,0.016765293,-1.0246504E-4,0.0026578563,9.84849442436108,0.01697497392607202,stand
10/08/2020, 17:29:24,-0.85023195,-5.3097587,8.250843,0.006991454,0.0011192651,-0.0022290638,9.84849442436108,0.0074230659285694145,stand
10/08/2020, 17:29:24,-0.852627,-5.352869,8.198153,0.006991454,0.0011192651,-0.0022290638,9.828015301313433,0.0074230659285694145,stand
10/08/2020, 17:29:24,-0.852627,-5.352869,8.198153,0.0045479937,-0.0013241951,-0.0022290638,9.828015301313433,0.0052351183494859215,stand
10/08/2020, 17:29:24,-0.85023195,-5.3935843,8.205338,0.0045479937,-0.0013241951,-0.0022290638,9.85602401213199,0.0052351183494859215,stand
10/08/2020, 17:29:24,-0.85023195,-5.3935843,8.205338,0.006991454,-0.0013241951,-0.005894254,9.85602401213199,0.009239921561073325,stand
10/08/2020, 17:29:24,-0.79754156,-5.415139,8.236472,0.006991454,-0.0013241951,-0.005894254,9.889351759354726,0.009239921561073325,stand
10/08/2020, 17:29:24,-0.79754156,-5.415139,8.236472,0.005769724,0.0047844555,-0.014446364,9.889351759354726,0.0162750777749576,stand
10/08/2020, 17:29:24,-0.8286768,-5.4175344,8.186177,0.005769724,0.0047844555,-0.014446364,9.851389838448956,0.0162750777749576,stand
10/08/2020, 17:29:24,-0.8286768,-5.4175344,8.186177,0.011878374,0.008449646,-0.012002904,9.851389838448956,0.018882848990611215,stand
10/08/2020, 17:29:24,-0.84065187,-5.3863993,8.162227,0.011878374,0.008449646,-0.012002904,9.815392859082332,0.018882848990611215,stand
10/08/2020, 17:29:24,-0.84065187,-5.3863993,8.162227,0.014321834,0.008449646,-0.009559444,9.815392859082332,0.019180573765231985,stand
10/08/2020, 17:29:24,-0.847837,-5.3169436,8.152647,0.014321834,0.008449646,-0.009559444,9.770075264101802,0.019180573765231985,stand
10/08/2020, 17:29:24,-0.847837,-5.3169436,8.152647,0.013100104,0.006006185,-0.009559444,9.770075264101802,0.01729363946052351,stand
10/08/2020, 17:29:24,-0.855022,-5.3289185,8.198153,0.013100104,0.006006185,-0.009559444,9.815199420719777,0.01729363946052351,stand
10/08/2020, 17:29:24,-0.855022,-5.3289185,8.198153,0.009434914,0.003562725,-0.005894254,9.815199420719777,0.011681303217761846,stand
10/08/2020, 17:29:24,-0.8813672,-5.372029,8.188572,0.009434914,0.003562725,-0.005894254,9.833016430870812,0.011681303217761846,stand
10/08/2020, 17:29:25,-0.7185059,-5.3959794,8.123906,0.008213184,-0.0074328454,0.016096886,9.779094814359151,0.019540044184915527,stand
10/08/2020, 17:29:25,-0.76401126,-5.360054,8.090376,0.008213184,-0.0074328454,0.016096886,9.734889546090596,0.019540044184915527,stand
10/08/2020, 17:29:25,-0.76401126,-5.360054,8.090376,0.0045479937,-0.009876305,0.020983808,9.734889546090596,0.023633574397118693,stand
10/08/2020, 17:29:25,-0.81909674,-5.4271145,8.102351,0.0045479937,-0.009876305,0.020983808,9.786346913541989,0.023633574397118693,stand
10/08/2020, 17:29:25,-0.81909674,-5.4271145,8.102351,-0.006447577,-0.013541495,0.016096886,9.786346913541989,0.022001206634730167,stand
10/08/2020, 17:29:25,-0.8262818,-5.4534597,8.234077,-0.006447577,-0.013541495,0.016096886,9.910751547399716,0.022001206634730167,stand
10/08/2020, 17:29:25,-0.8262818,-5.4534597,8.234077,-0.006447577,-0.020871876,0.014875156,9.910751547399716,0.026428709959118852,stand
10/08/2020, 17:29:25,-0.8214917,-5.5301003,8.322693,-0.006447577,-0.020871876,0.014875156,10.026169512945145,0.026428709959118852,stand
10/08/2020, 17:29:25,-0.8214917,-5.5301003,8.322693,-3.3892598E-4,-0.019650145,0.016096886,10.026169512945145,0.025403794926181816,stand
10/08/2020, 17:29:25,-0.74724615,-5.49178,8.351434,-3.3892598E-4,-0.019650145,0.016096886,10.023196494535242,0.025403794926181816,stand
10/08/2020, 17:29:25,-0.74724615,-5.49178,8.351434,0.005769724,-0.013541495,0.017318618,10.023196494535242,0.022728755524292318,stand
10/08/2020, 17:29:25,-0.7711963,-5.345684,8.224498,0.005769724,-0.013541495,0.017318618,9.839382384189545,0.022728755524292318,stand
10/08/2020, 17:29:25,-0.7711963,-5.345684,8.224498,0.014321834,-0.008654575,0.023427267,9.839382384189545,0.028789814388169,stand
10/08/2020, 17:29:25,-0.80712163,-5.350474,8.183782,0.014321834,-0.008654575,0.023427267,9.810876502552484,0.028789814388169,stand
10/08/2020, 17:29:25,-0.80712163,-5.350474,8.183782,0.008213184,-0.011098035,0.027092457,9.810876502552484,0.030407630276023664,stand
10/08/2020, 17:29:25,-0.83586186,-5.3073635,8.258028,0.008213184,-0.011098035,0.027092457,9.851994693021869,0.030407630276023664,stand
10/08/2020, 17:29:25,-0.83586186,-5.3073635,8.258028,-0.0052258465,-0.014763225,0.024648998,9.851994693021869,0.029203345351972387,stand
10/08/2020, 17:29:25,-0.8167017,-5.3480787,8.176597,-0.0052258465,-0.014763225,0.024648998,9.8043704744287,0.029203345351972387,stand
10/08/2020, 17:29:25,-0.8167017,-5.3480787,8.176597,-0.006447577,-0.017206686,0.022205535,9.8043704744287,0.028822336425194658,stand
10/08/2020, 17:29:25,-0.8095166,-5.4822,8.293953,-0.006447577,-0.017206686,0.022205535,9.974943156724985,0.028822336425194658,stand
10/08/2020, 17:29:25,-0.8095166,-5.4822,8.293953,-0.0015606564,-0.017206686,0.020983808,9.974943156724985,0.027181351430249537,stand
10/08/2020, 17:29:25,-0.74724615,-5.484595,8.265213,-0.0015606564,-0.017206686,0.020983808,9.947507391753092,0.027181351430249537,stand
10/08/2020, 17:29:25,-0.74724615,-5.484595,8.265213,0.0033262637,-0.008654575,0.012431697,9.947507391753092,0.015508474669821519,stand
10/08/2020, 17:29:25,-0.74724615,-5.4438796,8.250843,0.0033262637,-0.008654575,0.012431697,9.913153532245314,0.015508474669821519,stand
10/08/2020, 17:29:25,-0.74724615,-5.4438796,8.250843,0.008213184,-0.002545925,0.016096886,9.913153532245314,0.018249599180757484,stand
10/08/2020, 17:29:25,-0.74006104,-5.407954,8.198153,0.008213184,-0.002545925,0.016096886,9.849028594538433,0.018249599180757484,stand
10/08/2020, 17:29:25,-0.74006104,-5.407954,8.198153,0.008213184,-0.0013241951,0.019762076,9.849028594538433,0.02144177106781205,stand
10/08/2020, 17:29:25,-0.76880133,-5.3001785,8.195757,0.008213184,-0.0013241951,0.019762076,9.790473904700848,0.02144177106781205,stand
10/08/2020, 17:29:25,-0.76880133,-5.3001785,8.195757,0.006991454,-0.0013241951,0.018540345,9.790473904700848,0.01985896065548159,stand
10/08/2020, 17:29:25,-0.8047266,-5.333709,8.205338,0.006991454,-0.0013241951,0.018540345,9.819551820788803,0.01985896065548159,stand
10/08/2020, 17:29:26,-0.85741705,-5.4414845,7.975415,0.005769724,0.10496632,-0.086528435,9.692892505020597,0.13615574976535494,stand
10/08/2020, 17:29:26,-0.8933423,-5.391189,7.932305,0.005769724,0.10496632,-0.086528435,9.632468051686256,0.13615574976535494,stand
10/08/2020, 17:29:26,-0.8933423,-5.391189,7.932305,0.0045479937,0.10374459,-0.093858816,9.632468051686256,0.1399753594034257,stand
10/08/2020, 17:29:26,-0.8646021,-5.470225,7.92512,0.0045479937,0.10374459,-0.093858816,9.66842395763446,0.1399753594034257,stand
10/08/2020, 17:29:26,-0.8646021,-5.470225,7.92512,0.009434914,0.08908383,-0.099967465,9.66842395763446,0.13423278303967906,stand
10/08/2020, 17:29:26,-0.9388477,-5.5947657,7.9826,0.009434914,0.08908383,-0.099967465,9.793096753030737,0.13423278303967906,stand
10/08/2020, 17:29:26,-0.9388477,-5.5947657,7.9826,0.011878374,0.08175345,-0.09874573,9.793096753030737,0.128745647914738,stand
10/08/2020, 17:29:26,-0.8310718,-5.5732107,7.9227247,0.011878374,0.08175345,-0.09874573,9.72218725719156,0.128745647914738,stand
10/08/2020, 17:29:26,-0.8310718,-5.5732107,7.9227247,0.010656644,0.07197961,-0.10363266,9.72218725719156,0.12662683983758016,stand
10/08/2020, 17:29:26,-0.91250247,-5.5803957,7.9897857,0.010656644,0.07197961,-0.10363266,9.788266035312851,0.12662683983758016,stand
10/08/2020, 17:29:26,-0.91250247,-5.5803957,7.9897857,0.005769724,0.059762303,-0.09019363,9.788266035312851,0.10834995758928892,stand
10/08/2020, 17:29:26,-0.87178713,-5.5492606,8.008945,0.005769724,0.059762303,-0.09019363,9.78251060065274,0.10834995758928892,stand
10/08/2020, 17:29:26,-0.87178713,-5.5492606,8.008945,0.0045479937,0.041436356,-0.080419786,9.78251060065274,0.09058144309331793,stand
10/08/2020, 17:29:26,-0.91250247,-5.5301003,7.9945755,0.0045479937,0.041436356,-0.080419786,9.763601180864349,0.09058144309331793,stand
10/08/2020, 17:29:26,-0.91250247,-5.5301003,7.9945755,0.008213184,0.025553865,-0.06820249,9.763601180864349,0.07329417309673375,stand
10/08/2020, 17:29:26,-0.91010743,-5.5516553,8.054451,0.008213184,0.025553865,-0.06820249,9.824629904398757,0.07329417309673375,stand
10/08/2020, 17:29:26,-0.91010743,-5.5516553,8.054451,0.009434914,0.012114836,-0.051098265,9.824629904398757,0.05335559498384341,stand
10/08/2020, 17:29:26,-0.8885523,-5.637876,8.090376,0.009434914,0.012114836,-0.051098265,9.900977405496358,0.05335559498384341,stand
10/08/2020, 17:29:26,-0.8885523,-5.637876,8.090376,0.0033262637,-0.0037676552,-0.038880967,9.900977405496358,0.03920444898834458,stand
10/08/2020, 17:29:26,-0.86220706,-5.6498513,8.1143265,0.0033262637,-0.0037676552,-0.038880967,9.925044843459883,0.03920444898834458,stand
10/08/2020, 17:29:26,-0.86220706,-5.6498513,8.1143265,-0.0027823867,-0.025758795,-0.022998475,9.925044843459883,0.03464371587347484,stand
10/08/2020, 17:29:26,-0.84544194,-5.745652,8.135881,-0.0027823867,-0.025758795,-0.022998475,9.995992087014123,0.03464371587347484,stand
10/08/2020, 17:29:26,-0.84544194,-5.745652,8.135881,-0.011334497,-0.041641288,-0.008337714,9.995992087014123,0.0439543525514633,stand
10/08/2020, 17:29:26,-0.7807764,-5.719307,8.140672,-0.011334497,-0.041641288,-0.008337714,9.97951000372657,0.0439543525514633,stand
10/08/2020, 17:29:26,-0.7807764,-5.719307,8.140672,-0.017443147,-0.051415127,0.011209967,9.97951000372657,0.05543863250615214,stand
10/08/2020, 17:29:26,-0.74006104,-5.7648125,8.183782,-0.017443147,-0.051415127,0.011209967,10.037680749300547,0.05543863250615214,stand
10/08/2020, 17:29:26,-0.74006104,-5.7648125,8.183782,-0.013777957,-0.055080317,0.033201106,10.037680749300547,0.06577223469140055,stand
10/08/2020, 17:29:26,-0.7831714,-5.712122,8.183782,-0.013777957,-0.055080317,0.033201106,10.01079299847946,0.06577223469140055,stand
10/08/2020, 17:29:26,-0.7831714,-5.712122,8.183782,-0.013777957,-0.062410697,0.047861867,10.01079299847946,0.07984788994953794,stand
10/08/2020, 17:29:26,-0.8047266,-5.625901,8.214917,-0.013777957,-0.062410697,0.047861867,9.989154808407953,0.07984788994953794,stand
10/08/2020, 17:29:27,-0.7664063,-5.336104,8.229287,0.0033262637,0.012114836,-0.018111553,9.837812285952875,0.022042269236378594,stand
10/08/2020, 17:29:27,-0.732876,-5.374424,8.176597,0.0033262637,0.012114836,-0.018111553,9.812149254795147,0.022042269236378594,stand
10/08/2020, 17:29:27,-0.732876,-5.374424,8.176597,0.0021045338,0.015780026,-0.020555016,9.812149254795147,0.025998979877640955,stand
10/08/2020, 17:29:27,-0.7065308,-5.4271145,8.059241,0.0021045338,0.015780026,-0.020555016,9.741874957374101,0.025998979877640955,stand
10/08/2020, 17:29:27,-0.7065308,-5.4271145,8.059241,0.006991454,0.023110406,-0.025441933,9.741874957374101,0.03507510929124117,stand
10/08/2020, 17:29:27,-0.73048097,-5.489385,8.066426,0.006991454,0.023110406,-0.025441933,9.784384723354341,0.03507510929124117,stand
10/08/2020, 17:29:27,-0.73048097,-5.489385,8.066426,0.010656644,0.026775597,-0.026663665,9.784384723354341,0.03926127414513785,stand
10/08/2020, 17:29:27,-0.7113208,-5.489385,8.1071415,0.010656644,0.026775597,-0.026663665,9.816571173532072,0.03926127414513785,stand
10/08/2020, 17:29:27,-0.7113208,-5.489385,8.1071415,0.008213184,0.026775597,-0.031550586,9.816571173532072,0.04218801318578549,stand
10/08/2020, 17:29:27,-0.74724615,-5.4822,8.155042,0.008213184,0.026775597,-0.031550586,9.854826243120526,0.04218801318578549,stand
10/08/2020, 17:29:27,-0.74724615,-5.4822,8.155042,0.008213184,0.026775597,-0.033994045,9.854826243120526,0.04404525023602021,stand
10/08/2020, 17:29:27,-0.7831714,-5.5253105,8.243657,0.008213184,0.026775597,-0.033994045,9.954913176426556,0.04404525023602021,stand
10/08/2020, 17:29:27,-0.7831714,-5.5253105,8.243657,0.010656644,0.029219056,-0.031550586,9.954913176426556,0.04430301064555857,stand
10/08/2020, 17:29:27,-0.7664063,-5.4462748,8.202942,0.010656644,0.029219056,-0.031550586,9.87610971340016,0.04430301064555857,stand
10/08/2020, 17:29:27,-0.7664063,-5.4462748,8.202942,0.009434914,0.031662513,-0.030328855,9.87610971340016,0.0448483193578272,stand
10/08/2020, 17:29:27,-0.7711963,-5.4414845,8.157437,0.009434914,0.031662513,-0.030328855,9.836070377910838,0.0448483193578272,stand
10/08/2020, 17:29:27,-0.7711963,-5.4414845,8.157437,0.013100104,0.025553865,-0.025441933,9.836070377910838,0.03836541080872124,stand
10/08/2020, 17:29:27,-0.87178713,-5.4822,8.202942,0.013100104,0.025553865,-0.025441933,9.904685101722796,0.03836541080872124,stand
10/08/2020, 17:29:27,-0.87178713,-5.4822,8.202942,0.011878374,0.021888675,-0.020555016,9.904685101722796,0.032291152639501636,stand
10/08/2020, 17:29:27,-0.85023195,-5.52052,8.186177,0.011878374,0.021888675,-0.020555016,9.910223800828339,0.032291152639501636,stand
10/08/2020, 17:29:27,-0.85023195,-5.52052,8.186177,0.008213184,0.025553865,-0.021776743,9.910223800828339,0.03456418622539739,stand
10/08/2020, 17:29:27,-0.8262818,-5.5492606,8.126302,0.008213184,0.025553865,-0.021776743,9.87490837225781,0.03456418622539739,stand
10/08/2020, 17:29:27,-0.8262818,-5.5492606,8.126302,0.014321834,0.021888675,-0.014446364,9.87490837225781,0.02988187497471565,stand
10/08/2020, 17:29:27,-0.76401126,-5.489385,8.171807,0.014321834,0.021888675,-0.014446364,9.87398079123101,0.02988187497471565,stand
10/08/2020, 17:29:27,-0.76401126,-5.489385,8.171807,0.022873946,0.021888675,-0.012002904,9.87398079123101,0.03385854675834882,stand
10/08/2020, 17:29:27,-0.6825806,-5.4414845,8.159832,0.022873946,0.021888675,-0.012002904,9.831506882265511,0.03385854675834882,stand
10/08/2020, 17:29:27,-0.6825806,-5.4414845,8.159832,0.016765293,0.027997326,-0.016889825,9.831506882265511,0.03674495222082275,stand
10/08/2020, 17:29:27,-0.76401126,-5.5157304,8.138277,0.016765293,0.027997326,-0.016889825,9.860960817904555,0.03674495222082275,stand
10/08/2020, 17:29:27,-0.76401126,-5.5157304,8.138277,0.014321834,0.026775597,-0.009559444,9.860960817904555,0.031834422783639044,stand
10/08/2020, 17:29:27,-0.8334668,-5.484595,8.111932,0.014321834,0.026775597,-0.009559444,9.827455665400668,0.031834422783639044,stand
10/08/2020, 17:29:28,-1.7531544,-4.3709106,9.029224,0.3136457,0.2747868,-0.27589658,10.183580087134246,0.5000003271351781,stand
10/08/2020, 17:29:28,-1.7962648,-4.2224197,8.966953,0.3136457,0.2747868,-0.27589658,10.072817215073643,0.5000003271351781,stand
10/08/2020, 17:29:28,-1.7962648,-4.2224197,8.966953,0.32464126,0.2711216,-0.2795618,10.072817215073643,0.5070045922815015,stand
10/08/2020, 17:29:28,-1.9040406,-4.2367897,8.899893,0.32464126,0.2711216,-0.2795618,10.039115970947726,0.5070045922815015,stand
10/08/2020, 17:29:28,-1.9040406,-4.2367897,8.899893,0.29531974,0.26989987,-0.27100968,10.039115970947726,0.48322452086800777,stand
10/08/2020, 17:29:28,-2.1459377,-4.24637,8.408914,0.29531974,0.26989987,-0.27100968,9.661600979080049,0.48322452086800777,stand
10/08/2020, 17:29:28,-2.1459377,-4.24637,8.408914,0.20246825,0.24302182,-0.264901,9.661600979080049,0.4125839793818308,stand
10/08/2020, 17:29:28,-2.4956105,-3.9565725,8.396939,0.20246825,0.24302182,-0.264901,9.612030331012258,0.4125839793818308,stand
10/08/2020, 17:29:28,-2.4956105,-3.9565725,8.396939,0.11816889,0.1611659,-0.2600141,9.612030331012258,0.32794154538044445,stand
10/08/2020, 17:29:28,-2.1770728,-4.0930886,8.296348,0.11816889,0.1611659,-0.2600141,9.503809979427864,0.32794154538044445,stand
10/08/2020, 17:29:28,-2.1770728,-4.0930886,8.296348,0.013100104,0.10863151,-0.22091874,9.503809979427864,0.24653094888581858,stand
10/08/2020, 17:29:28,-1.9016455,-4.174519,8.5598,0.013100104,0.10863151,-0.22091874,9.711490294365863,0.24653094888581858,stand
10/08/2020, 17:29:28,-1.9016455,-4.174519,8.5598,-0.047986396,0.09152729,-0.20503625,9.711490294365863,0.22960793548333358,stand
10/08/2020, 17:29:28,-2.0070264,-4.263135,8.713081,-0.047986396,0.09152729,-0.20503625,9.905567199625025,0.22960793548333358,stand
10/08/2020, 17:29:28,-2.0070264,-4.263135,8.713081,-0.072421,0.054875385,-0.20625798,9.905567199625025,0.2253851481731562,stand
10/08/2020, 17:29:28,-2.0213966,-4.653523,8.890313,-0.072421,0.054875385,-0.20625798,10.236160816376138,0.2253851481731562,stand
10/08/2020, 17:29:28,-2.0213966,-4.653523,8.890313,-0.034547366,0.041436356,-0.19037549,10.236160816376138,0.1978719788627252,stand
10/08/2020, 17:29:28,-1.8226099,-4.869075,8.969349,-0.034547366,0.041436356,-0.19037549,10.367208703109256,0.1978719788627252,stand
10/08/2020, 17:29:28,-1.8226099,-4.869075,8.969349,0.039978165,0.073201336,-0.18915376,10.367208703109256,0.2067264725540168,stand
10/08/2020, 17:29:28,-1.81782,-4.7636943,8.911868,0.039978165,0.073201336,-0.18915376,10.267358257358046,0.2067264725540168,stand
10/08/2020, 17:29:28,-1.81782,-4.7636943,8.911868,0.1145037,0.10740978,-0.1952624,10.267358257358046,0.2505501221269822,stand
10/08/2020, 17:29:28,-2.1052222,-4.394861,8.672366,0.1145037,0.10740978,-0.1952624,9.947698240179875,0.2505501221269822,stand
10/08/2020, 17:29:28,-2.1052222,-4.394861,8.672366,0.112060234,0.09274902,-0.20747972,9.947698240179875,0.25339240198919805,stand
10/08/2020, 17:29:28,-2.201023,-3.915857,8.231683,0.112060234,0.09274902,-0.20747972,9.377581814477495,0.25339240198919805,stand
10/08/2020, 17:29:28,-2.201023,-3.915857,8.231683,0.031426053,0.024332136,-0.20625798,9.377581814477495,0.21005238788831512,stand
10/08/2020, 17:29:28,-1.9854712,-3.7529957,8.145462,0.031426053,0.024332136,-0.20625798,9.185620545529147,0.21005238788831512,stand
10/08/2020, 17:29:28,-1.9854712,-3.7529957,8.145462,-0.068755805,-0.024537066,-0.16838434,9.185620545529147,0.18352851411733673,stand
10/08/2020, 17:29:28,-1.590293,-4.160149,8.277188,-0.068755805,-0.024537066,-0.16838434,9.399346715005041,0.18352851411733673,stand
10/08/2020, 17:29:28,-1.590293,-4.160149,8.277188,-0.11273809,-0.036754366,-0.14394975,9.399346715005041,0.1865001060096586,stand
10/08/2020, 17:29:28,-1.2286451,-4.4331813,8.53585,-0.11273809,-0.036754366,-0.14394975,9.696566039788385,0.1865001060096586,stand
10/08/2020, 17:29:29,0.07424561,-6.006709,7.194639,-0.021108337,-0.06974108,0.0026578563,9.372774397788916,0.07291394929756247,stand
10/08/2020, 17:29:29,-0.09580079,-5.47741,7.3862405,-0.021108337,-0.06974108,0.0026578563,9.19607224878765,0.07291394929756247,stand
10/08/2020, 17:29:29,-0.09580079,-5.47741,7.3862405,0.0045479937,-0.028202256,0.011209967,9.19607224878765,0.030687372840492198,stand
10/08/2020, 17:29:29,-0.364043,-4.9002104,7.807764,0.0045479937,-0.028202256,0.011209967,9.2252787811708,0.030687372840492198,stand
10/08/2020, 17:29:29,-0.364043,-4.9002104,7.807764,0.035091244,-0.014763225,0.008766507,9.2252787811708,0.03906660765053504,stand
10/08/2020, 17:29:29,-0.4526587,-4.4259963,8.202942,0.035091244,-0.014763225,0.008766507,9.33180576922279,0.03906660765053504,stand
10/08/2020, 17:29:29,-0.4526587,-4.4259963,8.202942,0.037534706,-0.025758795,0.018540345,9.33180576922279,0.04915398373248832,stand
10/08/2020, 17:29:29,-0.47181886,-4.184099,8.449629,0.037534706,-0.025758795,0.018540345,9.440631678990405,0.04915398373248832,stand
10/08/2020, 17:29:29,-0.47181886,-4.184099,8.449629,0.013100104,-0.04286302,0.035644565,9.440631678990405,0.057265924555678194,stand
10/08/2020, 17:29:29,-0.38559815,-4.045188,8.5430355,0.013100104,-0.04286302,0.035644565,9.460216021039347,0.057265924555678194,stand
10/08/2020, 17:29:29,-0.38559815,-4.045188,8.5430355,-0.019886605,-0.058745507,0.046640135,9.460216021039347,0.07760034736822322,stand
10/08/2020, 17:29:29,-0.38559815,-4.2032595,8.6627865,-0.019886605,-0.058745507,0.046640135,9.636386550714397,0.07760034736822322,stand
10/08/2020, 17:29:29,-0.38559815,-4.2032595,8.6627865,-0.05776024,-0.067297615,0.060079165,9.636386550714397,0.10712012048001258,stand
10/08/2020, 17:29:29,-0.4239185,-4.478687,8.693921,-0.05776024,-0.067297615,0.060079165,9.788902202247721,0.10712012048001258,stand
10/08/2020, 17:29:29,-0.4239185,-4.478687,8.693921,-0.09441214,-0.0709628,0.06863128,9.788902202247721,0.13660023280646058,stand
10/08/2020, 17:29:29,-0.46463382,-4.7229786,8.701106,-0.09441214,-0.0709628,0.06863128,9.911188537995367,0.13660023280646058,stand
10/08/2020, 17:29:29,-0.46463382,-4.7229786,8.701106,-0.11273809,-0.05752378,0.07962684,9.911188537995367,0.1495302505519937,stand
10/08/2020, 17:29:29,-0.51013917,-4.8834453,8.796907,-0.11273809,-0.05752378,0.07962684,10.074416104597912,0.1495302505519937,stand
10/08/2020, 17:29:29,-0.51013917,-4.8834453,8.796907,-0.10540771,-0.04652821,0.08695722,10.074416104597912,0.14435102274196224,stand
10/08/2020, 17:29:29,-0.5724097,-4.8571,8.806487,-0.10540771,-0.04652821,0.08695722,10.073395063711404,0.14435102274196224,stand
10/08/2020, 17:29:29,-0.5724097,-4.8571,8.806487,-0.09196868,-0.04652821,0.08695722,10.073395063711404,0.13485054953698628,stand
10/08/2020, 17:29:29,-0.68018556,-4.88105,8.737032,-0.09196868,-0.04652821,0.08695722,10.031103111229147,0.13485054953698628,stand
10/08/2020, 17:29:29,-0.68018556,-4.88105,8.737032,-0.083416566,-0.044084746,0.088178955,10.031103111229147,0.1291406849055424,stand
10/08/2020, 17:29:29,-0.728086,-4.703819,8.653206,-0.083416566,-0.044084746,0.088178955,9.875929948957781,0.1291406849055424,stand
10/08/2020, 17:29:29,-0.728086,-4.703819,8.653206,-0.082194835,-0.04652821,0.09184415,9.875929948957781,0.1317429801479971,stand
10/08/2020, 17:29:29,-0.68737066,-4.5313773,8.471185,-0.082194835,-0.04652821,0.09184415,9.631553848458305,0.1317429801479971,stand
10/08/2020, 17:29:29,-0.68737066,-4.5313773,8.471185,-0.104185976,-0.055080317,0.08940069,9.631553848458305,0.14792241765554312,stand
10/08/2020, 17:29:29,-0.6442603,-4.4738965,8.368198,-0.104185976,-0.055080317,0.08940069,9.51091823199329,0.14792241765554312,stand
10/08/2020, 17:29:29,-0.6442603,-4.4738965,8.368198,-0.14205961,-0.06974108,0.08695722,9.51091823199329,0.1805721719158058,stand
10/08/2020, 17:29:29,-0.6562354,-4.5481424,8.49753,-0.14205961,-0.06974108,0.08695722,9.660448245774854,0.1805721719158058,stand
10/08/2020, 17:29:30,-0.4766089,-5.1828227,8.480764,-0.035769098,0.014558295,-0.014446364,9.950486010864646,0.04123190160773699,stand
10/08/2020, 17:29:30,-0.5412744,-5.1157618,8.440049,-0.035769098,0.014558295,-0.014446364,9.884251432283085,0.04123190160773699,stand
10/08/2020, 17:29:30,-0.5412744,-5.1157618,8.440049,-0.047986396,0.008449646,2.1439628E-4,9.884251432283085,0.048725113099865366,stand
10/08/2020, 17:29:30,-0.51971924,-5.0989966,8.401729,-0.047986396,0.008449646,2.1439628E-4,9.841692882424528,0.048725113099865366,stand
10/08/2020, 17:29:30,-0.51971924,-5.0989966,8.401729,-0.068755805,-0.002545925,-0.0010073337,9.841692882424528,0.06881029897298305,stand
10/08/2020, 17:29:30,-0.57959473,-5.0606766,8.3322735,-0.068755805,-0.002545925,-0.0010073337,9.765918228537728,0.06881029897298305,stand
10/08/2020, 17:29:30,-0.57959473,-5.0606766,8.3322735,-0.076086186,-0.018428415,0.0075447764,9.765918228537728,0.07864882588798058,stand
10/08/2020, 17:29:30,-0.5125342,-5.142107,8.286768,-0.076086186,-0.018428415,0.0075447764,9.765985819396086,0.07864882588798058,stand
10/08/2020, 17:29:30,-0.5125342,-5.142107,8.286768,-0.06997754,-0.017206686,0.009988236,9.765985819396086,0.0727508800592638,stand
10/08/2020, 17:29:30,-0.38080812,-5.216353,8.111932,-0.06997754,-0.017206686,0.009988236,9.651880145987286,0.0727508800592638,stand
10/08/2020, 17:29:30,-0.38080812,-5.216353,8.111932,-0.06264716,0.003562725,-0.0022290638,9.651880145987286,0.06278796016203683,stand
10/08/2020, 17:29:30,-0.40715334,-5.2977834,7.937095,-0.06264716,0.003562725,-0.0022290638,9.55142723310202,0.06278796016203683,stand
10/08/2020, 17:29:30,-0.40715334,-5.2977834,7.937095,-0.06509062,0.012114836,-0.009559444,9.55142723310202,0.06689499911688165,stand
10/08/2020, 17:29:30,-0.5221143,-5.4295096,7.9083548,-0.06509062,0.012114836,-0.009559444,9.606989811786878,0.06689499911688165,stand
10/08/2020, 17:29:30,-0.5221143,-5.4295096,7.9083548,-0.06631235,-1.0246504E-4,0.0014361264,9.606989811786878,0.06632797874823207,stand
10/08/2020, 17:29:30,-0.5221143,-5.5372853,8.183782,-0.06631235,-1.0246504E-4,0.0014361264,9.894868053063542,0.06632797874823207,stand
10/08/2020, 17:29:30,-0.5221143,-5.5372853,8.183782,-0.055316776,-0.0013241951,0.011209967,9.894868053063542,0.056456731708707734,stand
10/08/2020, 17:29:30,-0.45026368,-5.479805,8.425679,-0.055316776,-0.0013241951,0.011209967,10.060967658983852,0.056456731708707734,stand
10/08/2020, 17:29:30,-0.45026368,-5.479805,8.425679,-0.036990825,0.009671375,0.008766507,10.060967658983852,0.03922637224433749,stand
10/08/2020, 17:29:30,-0.46702883,-5.2355127,8.598121,-0.036990825,0.009671375,0.008766507,10.077518985163328,0.03922637224433749,stand
10/08/2020, 17:29:30,-0.46702883,-5.2355127,8.598121,-0.024773527,0.0108931055,0.009988236,10.077518985163328,0.028847049210709044,stand
10/08/2020, 17:29:30,-0.55803955,-5.022356,8.684341,-0.024773527,0.0108931055,0.009988236,10.047549668687415,0.028847049210709044,stand
10/08/2020, 17:29:30,-0.55803955,-5.022356,8.684341,-0.029660445,-1.0246504E-4,0.013653426,10.047549668687415,0.03265223625714693,stand
10/08/2020, 17:29:30,-0.55803955,-4.9073954,8.583751,-0.029660445,-1.0246504E-4,0.013653426,9.903267838832326,0.03265223625714693,stand
10/08/2020, 17:29:30,-0.55803955,-4.9073954,8.583751,-0.045542937,-0.012319765,0.008766507,9.903267838832326,0.047987366485937065,stand
10/08/2020, 17:29:30,-0.50534916,-4.9720607,8.432864,-0.045542937,-0.012319765,0.008766507,9.802548832565618,0.047987366485937065,stand
10/08/2020, 17:29:30,-0.50534916,-4.9720607,8.432864,-0.055316776,-0.028202256,0.0026578563,9.802548832565618,0.06214802623966612,stand
10/08/2020, 17:29:30,-0.46702883,-5.3241286,8.361013,-0.055316776,-0.028202256,0.0026578563,9.923255859518642,0.06214802623966612,stand
10/08/2020, 17:29:30,-0.46702883,-5.3241286,8.361013,-0.028438717,-0.030645715,-0.0010073337,9.923255859518642,0.04182027266074543,stand
10/08/2020, 17:29:30,-0.36164796,-5.609136,8.210127,-0.028438717,-0.030645715,-0.0010073337,9.949843236098218,0.04182027266074543,stand
10/08/2020, 17:29:31,-0.39517823,-5.2882032,8.382568,-0.004004116,-0.002545925,-0.0046725236,9.919108409206995,0.0066593661521157825,stand
10/08/2020, 17:29:31,-0.40954837,-5.381609,8.4448395,-0.004004116,-0.002545925,-0.0046725236,10.022213263606668,0.0066593661521157825,stand
10/08/2020, 17:29:31,-0.40954837,-5.381609,8.4448395,0.0021045338,0.0047844555,-0.007115984,10.022213263606668,0.008829343336560203,stand
10/08/2020, 17:29:31,-0.39278322,-5.3145485,8.420889,0.0021045338,0.0047844555,-0.007115984,9.96544400510136,0.008829343336560203,stand
10/08/2020, 17:29:31,-0.39278322,-5.3145485,8.420889,0.008213184,0.013336565,-0.0046725236,9.96544400510136,0.016344810819574798,stand
10/08/2020, 17:29:31,-0.45744875,-5.240303,8.461604,0.008213184,0.013336565,-0.0046725236,9.963371897179353,0.016344810819574798,stand
10/08/2020, 17:29:31,-0.45744875,-5.240303,8.461604,0.0021045338,0.012114836,-0.005894254,9.963371897179353,0.013636001664388504,stand
10/08/2020, 17:29:31,-0.5125342,-5.1612673,8.411309,0.0021045338,0.012114836,-0.005894254,9.881877069547592,0.013636001664388504,stand
10/08/2020, 17:29:31,-0.5125342,-5.1612673,8.411309,-0.012556226,0.009671375,-0.0022290638,9.881877069547592,0.016005093997734716,stand
10/08/2020, 17:29:31,-0.5029541,-5.1612673,8.353828,-0.012556226,0.009671375,-0.0022290638,9.832501829882656,0.016005093997734716,stand
10/08/2020, 17:29:31,-0.5029541,-5.1612673,8.353828,-0.029660445,-1.0246504E-4,0.0014361264,9.832501829882656,0.029695368971814608,stand
10/08/2020, 17:29:31,-0.49337405,-5.149292,8.293953,-0.029660445,-1.0246504E-4,0.0014361264,9.774880120801926,0.029695368971814608,stand
10/08/2020, 17:29:31,-0.49337405,-5.149292,8.293953,-0.032103907,-0.0074328454,2.1439628E-4,9.774880120801926,0.03295381649872843,stand
10/08/2020, 17:29:31,-0.44786867,-5.1971927,8.243657,-0.032103907,-0.0074328454,2.1439628E-4,9.755474389802623,0.03295381649872843,stand
10/08/2020, 17:29:31,-0.44786867,-5.1971927,8.243657,-0.021108337,-0.0074328454,-0.0046725236,9.755474389802623,0.02286135490180197,stand
10/08/2020, 17:29:31,-0.3520679,-5.295388,8.286768,-0.021108337,-0.0074328454,-0.0046725236,9.840508697863344,0.02286135490180197,stand
10/08/2020, 17:29:31,-0.3520679,-5.295388,8.286768,-0.0076693064,-0.002545925,-0.008337714,9.840508697863344,0.011611092354076352,stand
10/08/2020, 17:29:31,-0.4023633,-5.3935843,8.305928,-0.0076693064,-0.002545925,-0.008337714,9.911664394494721,0.011611092354076352,stand
10/08/2020, 17:29:31,-0.4023633,-5.3935843,8.305928,0.005769724,0.008449646,-0.013224634,9.911664394494721,0.01672056163804034,stand
10/08/2020, 17:29:31,-0.49576905,-5.4247193,8.423284,0.005769724,0.008449646,-0.013224634,10.03120496358438,0.01672056163804034,stand
10/08/2020, 17:29:31,-0.49576905,-5.4247193,8.423284,0.017987024,0.013336565,-0.007115984,10.03120496358438,0.023495408816033028,stand
10/08/2020, 17:29:31,-0.50774413,-5.2810183,8.416099,0.017987024,0.013336565,-0.007115984,9.948752358585699,0.023495408816033028,stand
10/08/2020, 17:29:31,-0.50774413,-5.2810183,8.416099,0.011878374,0.013336565,2.1439628E-4,9.948752358585699,0.017860730965988378,stand
10/08/2020, 17:29:31,-0.55324954,-5.1540823,8.406519,0.011878374,0.013336565,2.1439628E-4,9.876244732317902,0.017860730965988378,stand
10/08/2020, 17:29:31,-0.55324954,-5.1540823,8.406519,-0.0076693064,0.0072279153,0.0051013166,9.876244732317902,0.011708306937241345,stand
10/08/2020, 17:29:31,-0.5963599,-5.0989966,8.286768,-0.0076693064,0.0072279153,0.0051013166,9.74812469574679,0.011708306937241345,stand
10/08/2020, 17:29:31,-0.5963599,-5.0989966,8.286768,-0.025995255,-0.0074328454,0.012431697,9.74812469574679,0.02975815079024239,stand
10/08/2020, 17:29:31,-0.55803955,-5.0846267,8.272398,-0.025995255,-0.0074328454,0.012431697,9.726119737238339,0.02975815079024239,stand
10/08/2020, 17:29:31,-0.55803955,-5.0846267,8.272398,-0.033325635,-0.014763225,0.011209967,9.726119737238339,0.038134159245208334,stand
10/08/2020, 17:29:31,-0.48139894,-5.1780324,8.258028,-0.033325635,-0.014763225,0.011209967,9.759036397481582,0.038134159245208334,stand
10/08/2020, 17:29:32,-0.45744875,-5.1732426,8.186177,-0.0076693064,-0.002545925,0.0038795862,9.694596230185304,0.008963882192616644,stand
10/08/2020, 17:29:32,-0.45744875,-5.3145485,8.265213,-0.0076693064,-0.002545925,0.0038795862,9.837043823384327,0.008963882192616644,stand
10/08/2020, 17:29:32,-0.45744875,-5.3145485,8.265213,-3.3892598E-4,-0.002545925,0.006323046,9.837043823384327,0.0068247722853529156,stand
10/08/2020, 17:29:32,-0.4143384,-5.326524,8.370594,-3.3892598E-4,-0.002545925,0.006323046,9.930275737925555,0.0068247722853529156,stand
10/08/2020, 17:29:32,-0.4143384,-5.326524,8.370594,0.008213184,0.0011192651,0.0014361264,9.930275737925555,0.008412585945239763,stand
10/08/2020, 17:29:32,-0.4263135,-5.470225,8.432864,0.008213184,0.0011192651,0.0014361264,10.060730669978586,0.008412585945239763,stand
10/08/2020, 17:29:32,-0.4263135,-5.470225,8.432864,0.019208755,0.0047844555,-0.0010073337,10.060730669978586,0.01982125167087421,stand
10/08/2020, 17:29:32,-0.47181886,-5.47741,8.502319,0.019208755,0.0047844555,-0.0010073337,10.124922996363278,0.01982125167087421,stand
10/08/2020, 17:29:32,-0.47181886,-5.47741,8.502319,0.022873946,0.009671375,-0.0010073337,10.124922996363278,0.02485493116020222,stand
10/08/2020, 17:29:32,-0.46702883,-5.257068,8.5598,0.022873946,0.009671375,-0.0010073337,10.056095669196855,0.02485493116020222,stand
10/08/2020, 17:29:32,-0.46702883,-5.257068,8.5598,0.011878374,0.003562725,0.0038795862,10.056095669196855,0.012993843459173829,stand
10/08/2020, 17:29:32,-0.46942386,-5.0774417,8.396939,0.011878374,0.003562725,0.0038795862,9.823917860629248,0.012993843459173829,stand
10/08/2020, 17:29:32,-0.46942386,-5.0774417,8.396939,-0.0076693064,-0.0074328454,0.011209967,9.823917860629248,0.01548317805254308,stand
10/08/2020, 17:29:32,-0.48618898,-4.9792457,8.361013,-0.0076693064,-0.0074328454,0.011209967,9.743501032754734,0.01548317805254308,stand
10/08/2020, 17:29:32,-0.48618898,-4.9792457,8.361013,-0.017443147,-0.014763225,0.014875156,9.743501032754734,0.027266947621994175,stand
10/08/2020, 17:29:32,-0.45984375,-5.0558863,8.267608,-0.017443147,-0.014763225,0.014875156,9.701895646604218,0.027266947621994175,stand
10/08/2020, 17:29:32,-0.45984375,-5.0558863,8.267608,-0.0052258465,-0.017206686,0.0051013166,9.701895646604218,0.018692322840735284,stand
10/08/2020, 17:29:32,-0.40715334,-5.254673,8.270002,-0.0052258465,-0.017206686,0.0051013166,9.806645774183568,0.018692322840735284,stand
10/08/2020, 17:29:32,-0.40715334,-5.254673,8.270002,0.019208755,-0.013541495,0.0014361264,9.806645774183568,0.023545930420645487,stand
10/08/2020, 17:29:32,-0.36883304,-5.3384986,8.313113,0.019208755,-0.013541495,0.0014361264,9.886529032676146,0.023545930420645487,stand
10/08/2020, 17:29:32,-0.36883304,-5.3384986,8.313113,0.035091244,-0.0037676552,-0.007115984,9.886529032676146,0.036003164245478114,stand
10/08/2020, 17:29:32,-0.37601808,-5.4462748,8.337064,0.035091244,-0.0037676552,-0.007115984,9.965436817081823,0.036003164245478114,stand
10/08/2020, 17:29:32,-0.37601808,-5.4462748,8.337064,0.037534706,0.0047844555,-0.008337714,9.965436817081823,0.03874613093344742,stand
10/08/2020, 17:29:32,-0.45744875,-5.400769,8.389753,0.037534706,0.0047844555,-0.008337714,9.988269560309806,0.03874613093344742,stand
10/08/2020, 17:29:32,-0.45744875,-5.400769,8.389753,0.025317404,0.008449646,0.0038795862,9.988269560309806,0.02697070018652892,stand
10/08/2020, 17:29:32,-0.50774413,-5.247488,8.4304695,0.025317404,0.008449646,0.0038795862,9.943176094847292,0.02697070018652892,stand
10/08/2020, 17:29:32,-0.50774413,-5.247488,8.4304695,0.011878374,0.002340995,0.009988236,9.943176094847292,0.015695250571274872,stand
10/08/2020, 17:29:32,-0.50534916,-5.0822315,8.435259,0.011878374,0.002340995,0.009988236,9.860935408850926,0.015695250571274872,stand
10/08/2020, 17:29:32,-0.50534916,-5.0822315,8.435259,-0.0052258465,-0.008654575,0.011209967,9.860935408850926,0.015095512236298373,stand
10/08/2020, 17:29:32,-0.5245093,-5.0606766,8.4376545,-0.0052258465,-0.008654575,0.011209967,9.852896568616469,0.015095512236298373,stand
10/08/2020, 17:29:33,-1.7411792,-5.120552,8.217313,-0.60998225,0.40429017,0.3215294,9.837478762197598,0.7993184826221655,stand
10/08/2020, 17:29:33,-1.7387843,-5.2666483,8.080796,-0.60998225,0.40429017,0.3215294,9.801031732731714,0.7993184826221655,stand
10/08/2020, 17:29:33,-1.7387843,-5.2666483,8.080796,-0.7517029,0.3603079,0.3422988,9.801031732731714,0.9011367896403474,stand
10/08/2020, 17:29:33,-1.7579445,-5.5372853,7.9682302,-0.7517029,0.3603079,0.3422988,9.861267201569435,0.9011367896403474,stand
10/08/2020, 17:29:33,-1.7579445,-5.5372853,7.9682302,-0.8714325,0.32609946,0.36795512,9.861267201569435,1.0005630398547012,stand
10/08/2020, 17:29:33,-1.6717237,-5.757627,7.917935,-0.8714325,0.32609946,0.36795512,9.931697840359194,1.0005630398547012,stand
10/08/2020, 17:29:33,-1.6717237,-5.757627,7.917935,-0.96428394,0.30410832,0.38994628,9.931697840359194,1.0836897605633777,stand
10/08/2020, 17:29:33,-1.6765138,-5.9396486,7.783814,-0.96428394,0.30410832,0.38994628,9.933674243688854,1.0836897605633777,stand
10/08/2020, 17:29:33,-1.6765138,-5.9396486,7.783814,-1.0229269,0.28211716,0.40827224,9.933674243688854,1.1369502219942198,stand
10/08/2020, 17:29:33,-1.6932789,-6.104905,7.7550735,-1.0229269,0.28211716,0.40827224,10.013901628011496,1.1369502219942198,stand
10/08/2020, 17:29:33,-1.6932789,-6.104905,7.7550735,-1.0375878,0.25401738,0.42659816,10.013901628011496,1.1502604860449281,stand
10/08/2020, 17:29:33,-1.6669337,-6.349197,7.6592727,-1.0375878,0.25401738,0.42659816,10.087389507217406,1.1502604860449281,stand
10/08/2020, 17:29:33,-1.6669337,-6.349197,7.6592727,-1.0192618,0.23080452,0.44492412,10.087389507217406,1.1358357658399536,stand
10/08/2020, 17:29:33,-1.6860938,-6.4354177,7.6041875,-1.0192618,0.23080452,0.44492412,10.103523150129634,1.1358357658399536,stand
10/08/2020, 17:29:33,-1.6860938,-6.4354177,7.6041875,-0.99482715,0.21980894,0.46202835,10.103523150129634,1.1186899613538963,stand
10/08/2020, 17:29:33,-1.590293,-6.3947024,7.541917,-0.99482715,0.21980894,0.46202835,10.015076681738748,1.1186899613538963,stand
10/08/2020, 17:29:33,-1.590293,-6.3947024,7.541917,-1.0009358,0.21247856,0.47180218,10.015076681738748,1.126772778223997,stand
10/08/2020, 17:29:33,-1.5232325,-6.219866,7.434141,-1.0009358,0.21247856,0.47180218,9.811902081503336,1.126772778223997,stand
10/08/2020, 17:29:33,-1.5232325,-6.219866,7.434141,-1.0473616,0.18437877,0.47791085,9.811902081503336,1.1659162302928199,stand
10/08/2020, 17:29:33,-1.5495777,-6.2941117,7.2329593,-1.0473616,0.18437877,0.47791085,9.712503969111562,1.1659162302928199,stand
10/08/2020, 17:29:33,-1.5495777,-6.2941117,7.2329593,-1.1072264,0.14283995,0.48157603,9.712503969111562,1.2158408444014264,stand
10/08/2020, 17:29:33,-1.6286134,-6.3994923,7.0006423,-1.1072264,0.14283995,0.48157603,9.623662260017008,1.2158408444014264,stand
10/08/2020, 17:29:33,-1.6286134,-6.3994923,7.0006423,-1.1524304,0.09274902,0.49623677,9.623662260017008,1.258153081337132,stand
10/08/2020, 17:29:33,-1.5950831,-6.466553,6.7491655,-1.1524304,0.09274902,0.49623677,9.482185191378273,1.258153081337132,stand
10/08/2020, 17:29:33,-1.5950831,-6.466553,6.7491655,-1.1988561,0.048766736,0.51822793,9.482185191378273,1.3069791016963859,stand
10/08/2020, 17:29:33,-1.4825171,-6.5623536,6.5360084,-1.1988561,0.048766736,0.51822793,9.37985859126997,1.3069791016963859,stand
10/08/2020, 17:29:33,-1.4825171,-6.5623536,6.5360084,-1.2379515,0.002340995,0.53777564,9.37985859126997,1.3497155527494487,stand
10/08/2020, 17:29:33,-1.4226416,-6.6198344,6.447393,-1.2379515,0.002340995,0.53777564,9.34959853361361,1.3497155527494487,stand
10/08/2020, 17:29:33,-1.4226416,-6.6198344,6.447393,-1.2574991,-0.047749937,0.55487984,9.34959853361361,1.3753093038866668,stand
10/08/2020, 17:29:33,-1.3747413,-6.823411,6.449788,-1.2574991,-0.047749937,0.55487984,9.489395009512783,1.3753093038866668,stand
10/08/2020, 17:29:34,-1.6765138,-8.176597,4.8187795,0.08762564,-0.16259256,-0.09019363,9.637845542263861,0.20554679204055584,stand
10/08/2020, 17:29:34,-1.5447876,-7.9730206,4.8571,0.08762564,-0.16259256,-0.09019363,9.462919534873633,0.20554679204055584,stand
10/08/2020, 17:29:34,-1.5447876,-7.9730206,4.8571,0.047308546,-0.17603159,-0.065759026,9.462919534873633,0.19377685213737317,stand
10/08/2020, 17:29:34,-1.4106666,-7.8508744,4.9145803,0.047308546,-0.17603159,-0.065759026,9.369061287238626,0.19377685213737317,stand
10/08/2020, 17:29:34,-1.4106666,-7.8508744,4.9145803,-0.0052258465,-0.1809185,-0.049876537,9.369061287238626,0.1877404645044856,stand
10/08/2020, 17:29:34,-1.334026,-7.92033,4.864285,-0.0052258465,-0.1809185,-0.049876537,9.390022463301648,0.1877404645044856,stand
10/08/2020, 17:29:34,-1.334026,-7.92033,4.864285,-0.067534074,-0.20413138,-0.044989616,9.390022463301648,0.21966915323526323,stand
10/08/2020, 17:29:34,-1.331631,-8.068821,4.9289503,-0.067534074,-0.20413138,-0.044989616,9.548490127123586,0.21966915323526323,stand
10/08/2020, 17:29:34,-1.331631,-8.068821,4.9289503,-0.11884674,-0.23223117,-0.044989616,9.548490127123586,0.2647261389996892,stand
10/08/2020, 17:29:34,-1.341211,-8.406519,5.127737,-0.11884674,-0.23223117,-0.044989616,9.937911987556207,0.2647261389996892,stand
10/08/2020, 17:29:34,-1.341211,-8.406519,5.127737,-0.12739885,-0.23956154,-0.042546157,9.937911987556207,0.2746459081930972,stand
10/08/2020, 17:29:34,-1.3675562,-8.648416,5.1971927,-0.12739885,-0.23956154,-0.042546157,10.182146798716053,0.2746459081930972,stand
10/08/2020, 17:29:34,-1.3675562,-8.648416,5.1971927,-0.09441214,-0.2334529,-0.046211347,10.182146798716053,0.2560261665773306,stand
10/08/2020, 17:29:34,-1.3124708,-8.737032,5.233118,-0.09441214,-0.2334529,-0.046211347,10.268584675965254,0.2560261665773306,stand
10/08/2020, 17:29:34,-1.3124708,-8.737032,5.233118,-0.05898197,-0.21512695,-0.06820249,10.268584675965254,0.23325963068161604,stand
10/08/2020, 17:29:34,-1.1472144,-8.648416,5.122947,-0.05898197,-0.21512695,-0.06820249,10.11710338389274,0.23325963068161604,stand
10/08/2020, 17:29:34,-1.1472144,-8.648416,5.122947,-0.05776024,-0.18947062,-0.09141535,10.11710338389274,0.21815619955633908,stand
10/08/2020, 17:29:34,-1.1448194,-8.562195,5.0510964,-0.05776024,-0.18947062,-0.09141535,10.006766053916046,0.21815619955633908,stand
10/08/2020, 17:29:34,-1.1448194,-8.562195,5.0510964,-0.07364272,-0.17969678,-0.09874573,10.006766053916046,0.2178644178074374,stand
10/08/2020, 17:29:34,-1.1687696,-8.475974,5.007986,-0.07364272,-0.17969678,-0.09874573,9.914034672753617,0.2178644178074374,stand
10/08/2020, 17:29:34,-1.1687696,-8.475974,5.007986,-0.08708176,-0.18214023,-0.09874573,9.914034672753617,0.224742111397337,stand
10/08/2020, 17:29:34,-1.2022998,-8.4448395,4.967271,-0.08708176,-0.18214023,-0.09874573,9.870897547796144,0.224742111397337,stand
10/08/2020, 17:29:34,-1.2022998,-8.4448395,4.967271,-0.096855596,-0.17969678,-0.09508055,9.870897547796144,0.22519380723519297,stand
10/08/2020, 17:29:34,-1.2645704,-8.519085,4.976851,-0.096855596,-0.17969678,-0.09508055,9.947009197599908,0.22519380723519297,stand
10/08/2020, 17:29:34,-1.2645704,-8.519085,4.976851,-0.08586003,-0.17969678,-0.09508055,9.947009197599908,0.22068799005269296,stand
10/08/2020, 17:29:34,-1.3244458,-8.53106,5.031936,-0.08586003,-0.17969678,-0.09508055,9.992673659008448,0.22068799005269296,stand
10/08/2020, 17:29:34,-1.3244458,-8.53106,5.031936,-0.043099478,-0.18336196,-0.099967465,9.992673659008448,0.21324321391920723,stand
10/08/2020, 17:29:34,-1.3795313,-8.602911,5.0487013,-0.043099478,-0.18336196,-0.099967465,10.069884248781236,0.21324321391920723,stand
10/08/2020, 17:29:34,-1.3795313,-8.602911,5.0487013,0.009434914,-0.17358813,-0.11096304,10.069884248781236,0.2062393062743073,stand
10/08/2020, 17:29:34,-1.3771362,-8.490345,5.0654664,0.009434914,-0.17358813,-0.11096304,9.982054514311294,0.2062393062743073,stand
10/08/2020, 17:29:35,-1.4825171,-9.388477,7.2736745,-1.7351956,-0.4240428,0.44981104,11.9686132893207,1.8420223015551263,stand
10/08/2020, 17:29:35,-1.2789404,-10.135723,7.223379,-1.7351956,-0.4240428,0.44981104,12.511825519119585,1.8420223015551263,stand
10/08/2020, 17:29:35,-1.2789404,-10.135723,7.223379,-1.4383152,-0.40205163,0.37772897,12.511825519119585,1.5404788751878442,stand
10/08/2020, 17:29:35,-1.0083033,-10.564431,7.086863,-1.4383152,-0.40205163,0.37772897,12.761171954536733,1.5404788751878442,stand
10/08/2020, 17:29:35,-1.0083033,-10.564431,7.086863,-1.049805,-0.30186978,0.27999058,12.761171954536733,1.1276571835823674,stand
10/08/2020, 17:29:35,-0.91010743,-10.617122,6.6773148,-1.049805,-0.30186978,0.27999058,12.575297254545202,1.1276571835823674,stand
10/08/2020, 17:29:35,-0.91010743,-10.617122,6.6773148,-0.6368603,-0.18214023,0.1834739,12.575297254545202,0.6873345557519005,stand
10/08/2020, 17:29:35,-1.0585986,-10.394385,6.246211,-0.6368603,-0.18214023,0.1834739,12.172880929844164,0.6873345557519005,stand
10/08/2020, 17:29:35,-1.0585986,-10.394385,6.246211,-0.23735456,-0.06118897,0.116278745,12.172880929844164,0.27129693062587956,stand
10/08/2020, 17:29:35,-1.3028907,-10.109378,5.6785917,-0.23735456,-0.06118897,0.116278745,11.668052486183429,0.27129693062587956,stand
10/08/2020, 17:29:35,-1.3028907,-10.109378,5.6785917,0.07296488,0.040214624,0.07107474,11.668052486183429,0.10951122226315049,stand
10/08/2020, 17:29:35,-1.4585669,-9.508228,5.1636624,0.07296488,0.040214624,0.07107474,10.917748512630977,0.10951122226315049,stand
10/08/2020, 17:29:35,-1.4585669,-9.508228,5.1636624,0.26355478,0.11107497,0.038088027,10.917748512630977,0.2885298416990876,stand
10/08/2020, 17:29:35,-1.6765138,-8.818462,4.761299,0.26355478,0.11107497,0.038088027,10.161001256361534,0.2885298416990876,stand
10/08/2020, 17:29:35,-1.6765138,-8.818462,4.761299,0.31853262,0.13428783,0.019762076,10.161001256361534,0.3462467176200166,stand
10/08/2020, 17:29:35,-1.8226099,-8.169412,4.598438,0.31853262,0.13428783,0.019762076,9.550226373420466,0.3462467176200166,stand
10/08/2020, 17:29:35,-1.8226099,-8.169412,4.598438,0.24400707,0.10618805,0.0026578563,9.550226373420466,0.2661248103169961,stand
10/08/2020, 17:29:35,-1.8753004,-7.699988,4.4188113,0.24400707,0.10618805,0.0026578563,9.073723524079707,0.2661248103169961,stand
10/08/2020, 17:29:35,-1.8753004,-7.699988,4.4188113,0.077851795,0.059762303,-0.0034507937,9.073723524079707,0.09820561462114331,stand
10/08/2020, 17:29:35,-1.9447559,-7.350315,4.488267,0.077851795,0.059762303,-0.0034507937,8.829141957525325,0.09820561462114331,stand
10/08/2020, 17:29:35,-1.9447559,-7.350315,4.488267,-0.1457248,0.012114836,2.1439628E-4,8.829141957525325,0.14622767687791594,stand
10/08/2020, 17:29:35,-1.8896705,-7.278465,4.768484,-0.1457248,0.012114836,2.1439628E-4,8.904231863890809,0.14622767687791594,stand
10/08/2020, 17:29:35,-1.8896705,-7.278465,4.768484,-0.37785348,-0.024537066,0.013653426,8.904231863890809,0.3788954186148731,stand
10/08/2020, 17:29:35,-1.6597486,-7.2449346,4.998406,-0.37785348,-0.024537066,0.013653426,8.957003064664159,0.3788954186148731,stand
10/08/2020, 17:29:35,-1.6597486,-7.2449346,4.998406,-0.5818824,-0.0501934,0.029535916,8.957003064664159,0.5847896160907483,stand
10/08/2020, 17:29:35,-1.5040723,-7.438931,5.2905984,-0.5818824,-0.0501934,0.029535916,9.251505775211108,0.5847896160907483,stand
10/08/2020, 17:29:35,-1.5040723,-7.438931,5.2905984,-0.7529246,-0.07707146,0.031979375,9.251505775211108,0.7575342732307668,stand
10/08/2020, 17:29:35,-1.2933106,-7.699988,5.5229154,-0.7529246,-0.07707146,0.031979375,9.56373671784029,0.7575342732307668,stand
10/08/2020, 17:29:35,-1.2933106,-7.699988,5.5229154,-0.9105278,-0.09784087,0.046640135,9.56373671784029,0.9169564103110488,stand
10/08/2020, 17:29:35,-1.1711646,-7.903565,5.728887,-0.9105278,-0.09784087,0.046640135,9.831485766939466,0.9169564103110488,stand
10/08/2020, 17:29:36,-0.33290774,-5.9228835,6.969507,1.3643335,0.059762303,-0.22336219,9.152344371492745,1.3837876027321385,stand
10/08/2020, 17:29:36,-0.44307864,-5.8510327,6.969507,1.3643335,0.059762303,-0.22336219,9.110704340803586,1.3837876027321385,stand
10/08/2020, 17:29:36,-0.44307864,-5.8510327,6.969507,1.2311649,0.060984034,-0.22824912,9.110704340803586,1.253628255330922,stand
10/08/2020, 17:29:36,-0.5604346,-5.8342676,7.060518,1.2311649,0.060984034,-0.22824912,9.176256152173057,1.253628255330922,stand
10/08/2020, 17:29:36,-0.5604346,-5.8342676,7.060518,1.1065484,0.057318844,-0.21603182,9.176256152173057,1.128895310306659,stand
10/08/2020, 17:29:36,-0.58677983,-5.807923,7.3622904,1.1065484,0.057318844,-0.21603182,9.395722322608261,1.128895310306659,stand
10/08/2020, 17:29:36,-0.58677983,-5.807923,7.3622904,1.0185839,0.047545005,-0.19281895,9.395722322608261,1.0377633763886709,stand
10/08/2020, 17:29:36,-0.41194338,-5.870193,7.4269557,1.0185839,0.047545005,-0.19281895,9.475681201107268,1.0377633763886709,stand
10/08/2020, 17:29:36,-0.41194338,-5.870193,7.4269557,0.94039315,0.0634275,-0.18060164,9.475681201107268,0.9596766523292001,stand
10/08/2020, 17:29:36,-0.36164796,-5.9156985,7.4844365,0.94039315,0.0634275,-0.18060164,9.546887881880203,0.9596766523292001,stand
10/08/2020, 17:29:36,-0.36164796,-5.9156985,7.4844365,0.8658676,0.07686653,-0.16960607,9.546887881880203,0.8856643891758382,stand
10/08/2020, 17:29:36,-0.45026368,-5.865403,7.6592727,0.8658676,0.07686653,-0.16960607,9.65764721010964,0.8856643891758382,stand
10/08/2020, 17:29:36,-0.45026368,-5.865403,7.6592727,0.82432884,0.07442307,-0.16716261,9.65764721010964,0.8443933727303629,stand
10/08/2020, 17:29:36,-0.4382886,-5.894143,7.7143583,0.82432884,0.07442307,-0.16716261,9.71824800431253,0.8443933727303629,stand
10/08/2020, 17:29:36,-0.4382886,-5.894143,7.7143583,0.7742379,0.08297518,-0.16594088,9.71824800431253,0.7961567291616632,stand
10/08/2020, 17:29:36,-0.56522465,-5.8677983,7.776629,0.7742379,0.08297518,-0.16594088,9.758406339105056,0.7961567291616632,stand
10/08/2020, 17:29:36,-0.56522465,-5.8677983,7.776629,0.71926004,0.08175345,-0.1500584,9.758406339105056,0.7392808339487227,stand
10/08/2020, 17:29:36,-0.57959473,-5.728887,7.7430983,0.71926004,0.08175345,-0.1500584,9.649437698084206,0.7392808339487227,stand
10/08/2020, 17:29:36,-0.57959473,-5.728887,7.7430983,0.6642822,0.08175345,-0.13295418,9.649437698084206,0.6823718085456142,stand
10/08/2020, 17:29:36,-0.60833496,-5.6450615,7.685618,0.6642822,0.08175345,-0.13295418,9.55539185749628,0.6823718085456142,stand
10/08/2020, 17:29:36,-0.60833496,-5.6450615,7.685618,0.5922001,0.08175345,-0.114628226,9.55539185749628,0.608707002784469,stand
10/08/2020, 17:29:36,-0.7209009,-5.518125,7.680828,0.5922001,0.08175345,-0.114628226,9.484962965765744,0.608707002784469,stand
10/08/2020, 17:29:36,-0.7209009,-5.518125,7.680828,0.52011806,0.059762303,-0.101189196,9.484962965765744,0.5332293879918792,stand
10/08/2020, 17:29:36,-0.79035646,-5.4103494,7.697593,0.52011806,0.059762303,-0.101189196,9.441900491111653,0.5332293879918792,stand
10/08/2020, 17:29:36,-0.79035646,-5.4103494,7.697593,0.4529229,0.047545005,-0.09752401,9.441900491111653,0.46573664525704545,stand
10/08/2020, 17:29:36,-0.7448511,-5.3792143,7.7646537,0.4529229,0.047545005,-0.09752401,9.475262335964807,0.46573664525704545,stand
10/08/2020, 17:29:36,-0.7448511,-5.3792143,7.7646537,0.37839738,0.031662513,-0.08408497,9.475262335964807,0.38891820606780403,stand
10/08/2020, 17:29:36,-0.67539555,-5.364844,7.812554,0.37839738,0.031662513,-0.08408497,9.501247644410181,0.38891820606780403,stand
10/08/2020, 17:29:36,-0.67539555,-5.364844,7.812554,0.3136457,0.013336565,-0.073089406,9.501247644410181,0.3223252154440392,stand
10/08/2020, 17:29:36,-0.5748047,-5.384004,7.903565,0.3136457,0.013336565,-0.073089406,9.580409145425168,0.3223252154440392,stand
10/08/2020, 17:29:37,-0.5029541,-4.5864625,8.365804,0.51645285,0.086640365,-0.09874573,9.5538093424958,0.5328985062405043,stand
10/08/2020, 17:29:37,-0.4167334,-5.007986,9.079519,0.51645285,0.086640365,-0.09874573,10.377440022025924,0.5328985062405043,stand
10/08/2020, 17:29:37,-0.4167334,-5.007986,9.079519,0.5958653,0.124514,-0.106076114,10.377440022025924,0.6179088480867376,stand
10/08/2020, 17:29:37,-0.15567628,-4.617598,8.952583,0.5958653,0.124514,-0.106076114,10.074482363518616,0.6179088480867376,stand
10/08/2020, 17:29:37,-0.15567628,-4.617598,8.952583,0.65328664,0.14406168,-0.13295418,10.074482363518616,0.68206598773834,stand
10/08/2020, 17:29:37,-0.55324954,-4.382886,9.407638,0.65328664,0.14406168,-0.13295418,10.393239114557622,0.68206598773834,stand
10/08/2020, 17:29:37,-0.55324954,-4.382886,9.407638,0.72292525,0.13184439,-0.16716261,10.393239114557622,0.7536227120237644,stand
10/08/2020, 17:29:37,-0.7424561,-4.648733,9.354947,0.72292525,0.13184439,-0.16716261,10.472678544003054,0.7536227120237644,stand
10/08/2020, 17:29:37,-0.7424561,-4.648733,9.354947,0.72292525,0.10740978,-0.18182337,10.472678544003054,0.7531384409870536,stand
10/08/2020, 17:29:37,-0.8334668,-4.517007,10.33451,0.72292525,0.10740978,-0.18182337,11.309293164654312,0.7531384409870536,stand
10/08/2020, 17:29:37,-0.8334668,-4.517007,10.33451,0.7815683,0.08419691,-0.18426684,11.309293164654312,0.8073985239071624,stand
10/08/2020, 17:29:37,-1.0394385,-4.2248144,10.102193,0.7815683,0.08419691,-0.18426684,10.99926316469949,0.8073985239071624,stand
10/08/2020, 17:29:37,-1.0394385,-4.2248144,10.102193,0.80600286,0.038992893,-0.20137106,10.99926316469949,0.8316918610788753,stand
10/08/2020, 17:29:37,-0.9316626,-3.8224514,9.829161,0.80600286,0.038992893,-0.20137106,10.587328721559242,0.8316918610788753,stand
10/08/2020, 17:29:37,-0.9316626,-3.8224514,9.829161,0.796229,0.0047844555,-0.20747972,10.587328721559242,0.8228313019540934,stand
10/08/2020, 17:29:37,-0.6730005,-3.4248781,9.314231,0.796229,0.0047844555,-0.20747972,9.946739035612362,0.8228313019540934,stand
10/08/2020, 17:29:37,-0.6730005,-3.4248781,9.314231,0.7742379,-0.009876305,-0.21236663,9.946739035612362,0.8028956384587537,stand
10/08/2020, 17:29:37,-0.74006104,-3.647615,8.684341,0.7742379,-0.009876305,-0.21236663,9.44831049980583,0.8028956384587537,stand
10/08/2020, 17:29:37,-0.74006104,-3.647615,8.684341,0.77179444,-0.004989385,-0.20992316,9.44831049980583,0.7998495379997183,stand
10/08/2020, 17:29:37,-0.6586304,-3.908672,8.281978,0.77179444,-0.004989385,-0.20992316,9.181648292107965,0.7998495379997183,stand
10/08/2020, 17:29:37,-0.6586304,-3.908672,8.281978,0.7632423,0.017001756,-0.21236663,9.181648292107965,0.7924187393668907,stand
10/08/2020, 17:29:37,-0.7448511,-3.671565,8.708291,0.7632423,0.017001756,-0.21236663,9.47995391424006,0.7924187393668907,stand
10/08/2020, 17:29:37,-0.7448511,-3.671565,8.708291,0.75713366,0.024332136,-0.20747972,9.47995391424006,0.7854242600743382,stand
10/08/2020, 17:29:37,-0.86939216,-3.271597,9.134604,0.75713366,0.024332136,-0.20747972,9.74167273038346,0.7854242600743382,stand
10/08/2020, 17:29:37,-0.86939216,-3.271597,9.134604,0.7094862,0.002340995,-0.19648413,9.74167273038346,0.736194365541562,stand
10/08/2020, 17:29:37,-0.68737066,-3.0656252,9.6686945,0.7094862,0.002340995,-0.19648413,10.166326253441433,0.736194365541562,stand
10/08/2020, 17:29:37,-0.68737066,-3.0656252,9.6686945,0.66794735,-0.024537066,-0.19404069,10.166326253441433,0.6959939082656746,stand
10/08/2020, 17:29:37,-0.69695073,-3.1446607,9.730965,0.66794735,-0.024537066,-0.19404069,10.250185585685044,0.6959939082656746,stand
10/08/2020, 17:29:37,-0.69695073,-3.1446607,9.730965,0.6325172,-0.047749937,-0.18182337,10.250185585685044,0.6598619758458931,stand
10/08/2020, 17:29:37,-0.74724615,-3.2308815,9.924961,0.6325172,-0.047749937,-0.18182337,10.464311941225349,0.6598619758458931,stand
10/08/2020, 17:29:38,-0.97237796,-4.263135,9.022039,-0.2642326,0.015780026,0.06374436,10.025818356781055,0.2722704949212664,stand
10/08/2020, 17:29:38,-1.089734,-4.239185,8.856783,-0.2642326,0.015780026,0.06374436,9.879312320111188,0.2722704949212664,stand
10/08/2020, 17:29:38,-1.089734,-4.239185,8.856783,-0.26178914,-0.002545925,0.06496609,9.879312320111188,0.2697417839804169,stand
10/08/2020, 17:29:38,-1.0322535,-4.2343946,8.708291,-0.26178914,-0.002545925,0.06496609,9.738068472809196,0.2697417839804169,stand
10/08/2020, 17:29:38,-1.0322535,-4.2343946,8.708291,-0.24835013,-1.0246504E-4,0.06496609,9.738068472809196,0.25670681660917993,stand
10/08/2020, 17:29:38,-0.9268726,-4.2272096,8.657996,-0.24835013,-1.0246504E-4,0.06496609,9.67932287826499,0.25670681660917993,stand
10/08/2020, 17:29:38,-0.9268726,-4.2272096,8.657996,-0.24957184,-0.002545925,0.06252263,9.67932287826499,0.25729684502086536,stand
10/08/2020, 17:29:38,-1.0202783,-4.2224197,8.519085,-0.24957184,-0.002545925,0.06252263,9.562667221133886,0.25729684502086536,stand
10/08/2020, 17:29:38,-1.0202783,-4.2224197,8.519085,-0.22391553,-0.011098035,0.060079165,9.562667221133886,0.2321009219965005,stand
10/08/2020, 17:29:38,-0.8214917,-4.423601,8.727451,-0.22391553,-0.011098035,0.060079165,9.818935909909436,0.2321009219965005,stand
10/08/2020, 17:29:38,-0.8214917,-4.423601,8.727451,-0.18970709,0.0011192651,0.053970516,9.818935909909436,0.19723804807264292,stand
10/08/2020, 17:29:38,-0.77359134,-4.646338,8.830438,-0.18970709,0.0011192651,0.053970516,10.008173135580027,0.19723804807264292,stand
10/08/2020, 17:29:38,-0.77359134,-4.646338,8.830438,-0.15672037,0.021888675,0.050305326,10.008173135580027,0.16604521754038168,stand
10/08/2020, 17:29:38,-0.8167017,-4.639153,8.859178,-0.15672037,0.021888675,0.050305326,10.03363193644121,0.16604521754038168,stand
10/08/2020, 17:29:38,-0.8167017,-4.639153,8.859178,-0.116403274,0.041436356,0.049083598,10.03363193644121,0.13295071795234076,stand
10/08/2020, 17:29:38,-0.74006104,-4.543352,9.019644,-0.116403274,0.041436356,0.049083598,10.126386960952646,0.13295071795234076,stand
10/08/2020, 17:29:38,-0.74006104,-4.543352,9.019644,-0.095633864,0.062205765,0.046640135,10.126386960952646,0.12325053952993177,stand
10/08/2020, 17:29:38,-0.74724615,-4.4451566,8.990904,-0.095633864,0.062205765,0.046640135,10.057541741953289,0.12325053952993177,stand
10/08/2020, 17:29:38,-0.74724615,-4.4451566,8.990904,-0.07852965,0.08175345,0.049083598,10.057541741953289,0.12353028568860833,stand
10/08/2020, 17:29:38,-0.9388477,-4.373306,8.983719,-0.07852965,0.08175345,0.049083598,10.035658593935482,0.12353028568860833,stand
10/08/2020, 17:29:38,-0.9388477,-4.373306,8.983719,-0.06264716,0.059762303,0.049083598,10.035658593935482,0.09952586914964634,stand
10/08/2020, 17:29:38,-0.977168,-4.378096,9.022039,-0.06264716,0.059762303,0.049083598,10.075702358503762,0.09952586914964634,stand
10/08/2020, 17:29:38,-0.977168,-4.378096,9.022039,-0.05042986,0.052431926,0.047861867,10.075702358503762,0.08708062793870777,stand
10/08/2020, 17:29:38,-0.8765772,-4.3469605,9.053174,-0.05042986,0.052431926,0.047861867,10.080893481080325,0.08708062793870777,stand
10/08/2020, 17:29:38,-0.8765772,-4.3469605,9.053174,-0.060203694,0.047545005,0.036866296,10.080893481080325,0.08511249027448266,stand
10/08/2020, 17:29:38,-1.1639795,-4.3086405,8.749006,-0.060203694,0.047545005,0.036866296,9.821626233451713,0.08511249027448266,stand
10/08/2020, 17:29:38,-1.1639795,-4.3086405,8.749006,-0.036990825,0.027997326,0.036866296,9.821626233451713,0.059256182770583955,stand
10/08/2020, 17:29:38,-0.98195803,-4.3709106,8.8879175,-0.036990825,0.027997326,0.036866296,9.95309897751064,0.059256182770583955,stand
10/08/2020, 17:29:38,-0.98195803,-4.3709106,8.8879175,-0.054095045,0.040214624,0.022205535,9.95309897751064,0.0709688358898868,stand
10/08/2020, 17:29:47,-1.0514137,-4.4212065,8.871153,-0.054095045,0.040214624,0.022205535,9.96744153453509,0.0709688358898868,stand
10/08/2020, 17:29:47,-1.0514137,-4.4212065,8.871153,-0.051651586,0.040214624,0.013653426,9.96744153453509,0.06686941287223379,stand
10/08/2020, 17:29:47,-1.0753639,-4.414021,8.832832,-0.051651586,0.040214624,0.013653426,9.932719469923013,0.06686941287223379,stand
10/08/2020, 17:29:47,-1.0753639,-4.414021,8.832832,-0.030882176,0.036549434,0.022205535,9.932719469923013,0.052750883639149246,stand
10/08/2020, 17:29:47,-1.0418335,-4.399651,8.820857,-0.030882176,0.036549434,0.022205535,9.912107016769195,0.052750883639149246,stand
10/08/2020, 17:29:47,-1.0418335,-4.399651,8.820857,-0.030882176,0.026775597,0.036866296,9.912107016769195,0.05504330257862841,stand
10/08/2020, 17:29:47,-0.99393314,-4.263135,8.947793,-0.030882176,0.026775597,0.036866296,9.961185794856462,0.05504330257862841,stand
10/08/2020, 17:29:47,-0.99393314,-4.263135,8.947793,-0.054095045,0.029219056,0.024648998,9.961185794856462,0.06623896263368989,stand
10/08/2020, 17:29:47,-1.1304493,-4.138594,8.679551,-0.054095045,0.029219056,0.024648998,9.681966994141636,0.06623896263368989,stand
10/08/2020, 17:29:47,-1.1304493,-4.138594,8.679551,-0.061425425,0.006006185,0.028314188,9.681966994141636,0.0679032426111524,stand
10/08/2020, 17:29:47,-0.9532178,-4.258345,8.911868,-0.061425425,0.006006185,0.028314188,9.922878632433374,0.0679032426111524,stand
10/08/2020, 17:29:47,-0.9532178,-4.258345,8.911868,-0.06264716,0.017001756,0.034422837,9.922878632433374,0.07347555797147583,stand
10/08/2020, 17:29:47,-1.1160791,-4.368516,8.737032,-0.06264716,0.017001756,0.034422837,9.831850861720365,0.07347555797147583,stand
10/08/2020, 17:29:47,-1.1160791,-4.368516,8.737032,-0.05898197,-0.0037676552,0.035644565,9.831850861720365,0.06901885976755187,stand
10/08/2020, 17:29:47,-1.0705738,-4.394861,8.828042,-0.05898197,-0.0037676552,0.035644565,9.919438467961951,0.06901885976755187,stand
10/08/2020, 17:29:47,-1.0705738,-4.394861,8.828042,-0.029660445,0.0108931055,0.023427267,9.919438467961951,0.039334953284675435,stand
10/08/2020, 17:29:47,-0.859812,-4.4355764,9.079519,-0.029660445,0.0108931055,0.023427267,10.1415622694514,0.039334953284675435,stand
10/08/2020, 17:29:47,-0.859812,-4.4355764,9.079519,-0.034547366,0.038992893,0.028314188,10.1415622694514,0.05929299672986292,stand
10/08/2020, 17:29:47,-1.0370435,-4.512217,9.017249,-0.034547366,0.038992893,0.028314188,10.136387090365998,0.05929299672986292,stand
10/08/2020, 17:29:47,-1.0370435,-4.512217,9.017249,-0.025995255,0.058540575,0.055192247,10.136387090365998,0.08455138281205013,stand
10/08/2020, 17:29:47,-0.99393314,-4.30385,8.729847,-0.025995255,0.058540575,0.055192247,9.783724099510803,0.08455138281205013,stand
10/08/2020, 17:29:47,-0.99393314,-4.30385,8.729847,-0.054095045,0.062205765,0.07962684,9.783724099510803,0.11461354759508502,stand
10/08/2020, 17:29:47,-1.094524,-3.8056862,8.660391,-0.054095045,0.062205765,0.07962684,9.522793723893995,0.11461354759508502,stand
10/08/2020, 17:29:47,-1.094524,-3.8056862,8.660391,-0.12006847,0.041436356,0.09184415,9.522793723893995,0.15674423849153646,stand
10/08/2020, 17:29:47,-1.0274634,-4.8044095,8.452024,-0.12006847,0.041436356,0.09184415,9.776233899810792,0.15674423849153646,stand
10/08/2020, 17:29:47,-0.977168,-4.86189,8.679551,-0.12006847,0.041436356,0.09184415,9.99637123553538,0.15674423849153646,stand
10/08/2020, 17:29:47,-0.9196875,-4.8379397,8.629255,-0.12006847,0.041436356,0.09184415,9.935569081759889,0.15674423849153646,stand
10/08/2020, 17:29:47,-1.0729688,-4.758904,8.617281,-0.12006847,0.041436356,0.09184415,9.90232095880525,0.15674423849153646,stand
10/08/2020, 17:29:47,-0.9484278,-4.7948294,8.665181,-0.12006847,0.041436356,0.09184415,9.948631488500055,0.15674423849153646,stand
10/08/2020, 17:29:47,-1.0083033,-4.8355446,8.52627,-0.12006847,0.041436356,0.09184415,9.853752867985186,0.15674423849153646,stand
10/08/2020, 17:29:48,-1.0801538,-4.790039,8.629255,-0.028438717,0.049988464,0.014875156,9.928507110549369,0.05940435488476665,stand
10/08/2020, 17:29:48,-1.0801538,-4.790039,8.629255,-0.045542937,0.048766736,0.009988236,9.928507110549369,0.06746938926202811,stand
10/08/2020, 17:29:48,-1.0801538,-4.790039,8.629255,-0.045542937,0.026775597,0.014875156,9.928507110549369,0.0548849881914057,stand
10/08/2020, 17:29:48,-1.0801538,-4.790039,8.629255,-0.06386889,0.025553865,0.018540345,9.928507110549369,0.07124590690897077,stand
10/08/2020, 17:29:48,-1.0801538,-4.790039,8.629255,-0.07730792,0.012114836,0.020983808,9.928507110549369,0.08101606936087805,stand
10/08/2020, 17:29:48,-1.0801538,-4.790039,8.629255,-0.06997754,0.0011192651,0.019762076,9.928507110549369,0.07272309176412498,stand
10/08/2020, 17:29:48,-1.0801538,-4.790039,8.629255,-0.06386889,0.0047844555,0.016096886,9.928507110549369,0.06603965157706768,stand
10/08/2020, 17:29:48,-1.0801538,-4.790039,8.629255,-0.039434288,-0.0037676552,0.009988236,9.928507110549369,0.04085367958119345,stand
10/08/2020, 17:29:48,-1.0801538,-4.790039,8.629255,-0.017443147,-0.004989385,0.0026578563,9.928507110549369,0.018336344404362687,stand
10/08/2020, 17:29:48,-1.0801538,-4.790039,8.629255,-0.0076693064,0.006006185,-0.0010073337,9.928507110549369,0.009793224145433783,stand
10/08/2020, 17:29:48,-1.0801538,-4.790039,8.629255,-0.004004116,0.003562725,0.0026578563,9.928507110549369,0.00598248739115072,stand
10/08/2020, 17:29:48,-1.0801538,-4.790039,8.629255,-0.011334497,-1.0246504E-4,0.011209967,9.928507110549369,0.01594191527509808,stand
10/08/2020, 17:29:48,-1.0801538,-4.790039,8.629255,-0.028438717,0.0047844555,0.008766507,9.928507110549369,0.030141388287878084,stand
10/08/2020, 17:29:48,-1.0801538,-4.790039,8.629255,-0.034547366,-0.008654575,0.012431697,9.928507110549369,0.03772226487863535,stand
10/08/2020, 17:29:48,-1.0801538,-4.790039,8.629255,-0.041877747,-0.0074328454,0.014875156,9.928507110549369,0.04505844107497641,stand
10/08/2020, 17:29:48,-1.0801538,-4.790039,8.629255,-0.05776024,0.013336565,0.0075447764,9.928507110549369,0.05975811907286588,stand
10/08/2020, 17:29:48,-1.0801538,-4.790039,8.629255,-0.051651586,0.012114836,0.011209967,9.928507110549369,0.05422470766161936,stand
10/08/2020, 17:29:48,-1.0801538,-4.790039,8.629255,-0.008891036,-0.0013241951,0.012431697,9.928507110549369,0.01534115706957037,stand
10/08/2020, 17:29:48,-1.0801538,-4.790039,8.629255,-0.0076693064,0.0108931055,-0.0010073337,9.928507110549369,0.013360117117592737,stand
10/08/2020, 17:29:48,-1.0801538,-4.790039,8.629255,-0.0052258465,0.009671375,0.0038795862,9.928507110549369,0.011657450786955844,stand
10/08/2020, 17:29:48,-1.0801538,-4.790039,8.629255,-0.017443147,0.0072279153,0.008766507,9.928507110549369,0.02081724677749457,stand
10/08/2020, 17:29:48,-1.0801538,-4.790039,8.629255,-0.044321205,0.015780026,0.0038795862,9.928507110549369,0.04720624605811043,stand
10/08/2020, 17:29:48,-1.0801538,-4.790039,8.629255,-0.047986396,0.0072279153,0.0075447764,9.928507110549369,0.04911069720138459,stand
10/08/2020, 17:29:48,-1.0801538,-4.790039,8.629255,-0.051651586,0.017001756,0.0075447764,9.928507110549369,0.05489872187142883,stand
10/08/2020, 17:29:48,-1.0801538,-4.790039,8.629255,-0.05898197,0.024332136,0.006323046,9.928507110549369,0.06411635149533158,stand
10/08/2020, 17:29:48,-1.0801538,-4.790039,8.629255,-0.05042986,0.018223485,0.019762076,9.928507110549369,0.05714722805812665,stand
10/08/2020, 17:29:48,-1.0801538,-4.790039,8.629255,-0.05776024,0.013336565,0.0026578563,9.928507110549369,0.05933947542807993,stand
10/08/2020, 17:29:48,-1.0801538,-4.790039,8.629255,-0.040656015,-1.0246504E-4,-0.007115984,9.928507110549369,0.041274196584758255,stand
10/08/2020, 17:29:48,-1.0801538,-4.790039,8.629255,-0.0076693064,-0.018428415,-0.008337714,9.928507110549369,0.021631972002472993,stand
10/08/2020, 17:29:48,-1.0801538,-4.790039,8.629255,-0.006447577,-0.008654575,-0.014446364,9.928507110549369,0.018032480161366438,stand
10/08/2020, 17:29:49,-1.0585986,-4.8379397,8.461604,-0.022330068,0.002340995,0.0038795862,9.804337624312645,0.022785157146246484,stand
10/08/2020, 17:29:49,-1.0585986,-4.8379397,8.461604,-0.017443147,-0.008654575,0.006323046,9.804337624312645,0.02047305397902542,stand
10/08/2020, 17:29:49,-1.0585986,-4.8379397,8.461604,-0.008891036,-0.008654575,0.0026578563,9.804337624312645,0.012689223142757135,stand
10/08/2020, 17:29:49,-1.0585986,-4.8379397,8.461604,-0.004004116,0.0047844555,-0.0034507937,9.804337624312645,0.0071296520234058105,stand
10/08/2020, 17:29:49,-1.0585986,-4.8379397,8.461604,0.014321834,0.002340995,-0.0010073337,9.804337624312645,0.014546817648653006,stand
10/08/2020, 17:29:49,-1.0585986,-4.8379397,8.461604,0.019208755,0.0047844555,-0.005894254,9.804337624312645,0.020654527985107158,stand
10/08/2020, 17:29:49,-1.0585986,-4.8379397,8.461604,0.011878374,0.0108931055,-0.0034507937,9.804337624312645,0.016482217531390557,stand
10/08/2020, 17:29:49,-1.0585986,-4.8379397,8.461604,0.005769724,-0.002545925,0.0026578563,9.804337624312645,0.006843657659238344,stand
10/08/2020, 17:29:49,-1.0585986,-4.8379397,8.461604,-0.008891036,-0.009876305,0.0026578563,9.804337624312645,0.013551978565484376,stand
10/08/2020, 17:29:49,-1.0585986,-4.8379397,8.461604,-0.024773527,-0.002545925,0.0038795862,9.804337624312645,0.025204375826502364,stand
10/08/2020, 17:29:49,-1.0585986,-4.8379397,8.461604,-0.014999687,-0.0074328454,0.0075447764,9.804337624312645,0.01836195644974925,stand
10/08/2020, 17:29:49,-1.0585986,-4.8379397,8.461604,-0.013777957,0.002340995,0.0026578563,9.804337624312645,0.014225911752234041,stand
10/08/2020, 17:29:49,-1.0585986,-4.8379397,8.461604,-0.008891036,0.009671375,0.0014361264,9.804337624312645,0.013215463447466333,stand
10/08/2020, 17:29:49,-1.0585986,-4.8379397,8.461604,0.019208755,-0.0037676552,2.1439628E-4,9.804337624312645,0.019575941192581516,stand
10/08/2020, 17:29:49,-1.0585986,-4.8379397,8.461604,0.008213184,0.0072279153,-0.008337714,9.804337624312645,0.013755603222932065,stand
10/08/2020, 17:29:49,-1.0585986,-4.8379397,8.461604,-0.006447577,0.0072279153,-0.0034507937,9.804337624312645,0.010282119688107542,stand
10/08/2020, 17:29:49,-1.0585986,-4.8379397,8.461604,-0.0052258465,-0.006211115,0.0026578563,9.804337624312645,0.00854117219615075,stand
10/08/2020, 17:29:49,-1.0585986,-4.8379397,8.461604,-0.012556226,0.002340995,0.006323046,9.804337624312645,0.014252016705415552,stand
10/08/2020, 17:29:49,-0.94603276,-4.9648757,8.51669,-0.012556226,0.002340995,0.006323046,9.903483304950633,0.014252016705415552,stand
10/08/2020, 17:29:49,-1.0801538,-4.905,8.399334,-0.012556226,0.002340995,0.006323046,9.786448293827805,0.014252016705415552,stand
10/08/2020, 17:29:49,-1.0035132,-4.8211746,8.49753,-0.012556226,0.002340995,0.006323046,9.821343051194928,0.014252016705415552,stand
10/08/2020, 17:29:49,-0.9867481,-4.8355446,8.62207,-0.012556226,0.002340995,0.006323046,9.934599122771388,0.014252016705415552,stand
10/08/2020, 17:29:49,-1.0777588,-4.6966333,8.442444,-0.012556226,0.002340995,0.006323046,9.720842908336827,0.014252016705415552,stand
10/08/2020, 17:29:49,-1.0322535,-4.6654983,8.490345,-0.012556226,0.002340995,0.006323046,9.742606402753577,0.014252016705415552,stand
10/08/2020, 17:29:49,-0.9244776,-4.754114,8.52148,-0.012556226,0.002340995,0.006323046,9.801626132315741,0.014252016705415552,stand
10/08/2020, 17:29:49,-1.1088941,-4.7229786,8.3179035,-0.012556226,0.002340995,0.006323046,9.629314195326932,0.014252016705415552,stand
10/08/2020, 17:29:49,-1.0322535,-4.87626,8.485555,-0.012556226,0.002340995,0.006323046,9.841142995304,0.014252016705415552,stand
10/08/2020, 17:29:49,-0.9699829,-4.9792457,8.523875,-0.012556226,0.002340995,0.006323046,9.919183599779775,0.014252016705415552,stand
10/08/2020, 17:29:49,-1.0777588,-4.88584,8.468789,-0.012556226,0.002340995,0.006323046,9.836329841425279,0.014252016705415552,stand
10/08/2020, 17:29:49,-0.977168,-4.87147,8.586145,-0.012556226,0.002340995,0.006323046,9.920079128014978,0.014252016705415552,stand
10/08/2020, 17:29:50,-4.191284,1.6118482,8.47837,-0.014999687,0.031662513,0.029535916,9.59414773679338,0.0458243998431287,stand
10/08/2020, 17:29:50,-4.1721244,1.9734962,8.396939,-0.014999687,0.031662513,0.029535916,9.581748189630861,0.0458243998431287,stand
10/08/2020, 17:29:50,-4.430786,2.2321582,8.308323,-0.014999687,0.031662513,0.029535916,9.676911978101638,0.0458243998431287,stand
