DATE,TIME,ax,ay,az,gx,gy,gz,ma,mg,label
10/08/2020, 17:33:30,-3.8296363,2.3447242,8.665181,-0.017443147,0.006006185,-0.007115984,9.759570198975636,0.01977308387860222,stand
10/08/2020, 17:33:30,-3.8703518,2.2944288,8.650811,-0.017443147,0.006006185,-0.007115984,9.750926159179961,0.01977308387860222,stand
10/08/2020, 17:33:30,-3.8703518,2.2944288,8.650811,-0.0015606564,0.009671375,-0.0034507937,9.750926159179961,0.010386487504096898,stand
10/08/2020, 17:33:30,-3.8344264,2.311194,8.698711,-0.0015606564,0.009671375,-0.0034507937,9.783252180166524,0.010386487504096898,stand
10/08/2020, 17:33:30,-3.8344264,2.311194,8.698711,-0.030882176,0.032884244,0.0051013166,9.783252180166524,0.045399402216804094,stand
10/08/2020, 17:33:30,-4.2343946,2.3614893,8.214917,-0.030882176,0.032884244,0.0051013166,9.538951369255088,0.045399402216804094,stand
10/08/2020, 17:33:30,-4.2343946,2.3614893,8.214917,0.010656644,0.038992893,2.1439628E-4,9.538951369255088,0.040423455078784566,stand
10/08/2020, 17:33:30,-4.761299,2.323169,6.8761015,0.010656644,0.038992893,2.1439628E-4,8.68031424317783,0.040423455078784566,stand
10/08/2020, 17:33:30,-4.761299,2.323169,6.8761015,-0.09074695,-0.14915353,0.028314188,8.68031424317783,0.17687135794693568,stand
10/08/2020, 17:33:30,-1.8585353,2.8285182,8.025711,-0.09074695,-0.14915353,0.028314188,8.7101496182639,0.17687135794693568,stand
10/08/2020, 17:33:30,-1.8585353,2.8285182,8.025711,0.2000248,0.11351843,0.006323046,8.7101496182639,0.23007897619235224,stand
10/08/2020, 17:33:30,-5.2762284,2.2944288,3.4440382,0.2000248,0.11351843,0.006323046,6.705549109147338,0.23007897619235224,stand
10/08/2020, 17:33:30,-5.2762284,2.2944288,3.4440382,0.006991454,0.25401738,-0.025441933,6.705549109147338,0.25538403082332595,stand
10/08/2020, 17:33:30,-6.6342044,2.0118165,4.2272096,0.006991454,0.25401738,-0.025441933,8.119690525228284,0.25538403082332595,stand
10/08/2020, 17:33:30,-6.6342044,2.0118165,4.2272096,-0.23002417,0.31754735,-0.025441933,8.119690525228284,0.39293095161731184,stand
10/08/2020, 17:33:30,-5.5540504,2.0860622,0.97956306,-0.23002417,0.31754735,-0.025441933,6.0132084287817795,0.39293095161731184,stand
10/08/2020, 17:33:30,-5.5540504,2.0860622,0.97956306,0.033869516,0.006006185,-0.016889825,6.0132084287817795,0.038320811358439275,stand
10/08/2020, 17:33:30,-1.2957057,2.7422974,1.2022998,0.033869516,0.006006185,-0.016889825,3.2626022096412113,0.038320811358439275,stand
10/08/2020, 17:33:30,-1.2957057,2.7422974,1.2022998,-0.09319041,-0.048971668,0.027092457,3.2626022096412113,0.1087045438186826,stand
10/08/2020, 17:33:30,-0.08861572,2.8476784,13.371394,-0.09319041,-0.048971668,0.027092457,13.671551004168217,0.1087045438186826,stand
10/08/2020, 17:33:30,-0.08861572,2.8476784,13.371394,0.13160792,-0.3140871,2.1439628E-4,13.671551004168217,0.3405457274229212,stand
10/08/2020, 17:33:30,-6.5623536,1.9663111,17.098045,0.13160792,-0.3140871,2.1439628E-4,18.419392471171864,0.3405457274229212,stand
10/08/2020, 17:33:30,-6.5623536,1.9663111,17.098045,-0.060203694,0.10740978,-0.013224634,18.419392471171864,0.12383956202608419,stand
10/08/2020, 17:33:30,-6.706055,1.6813037,1.9447559,-0.060203694,0.10740978,-0.013224634,7.181924093746511,0.12383956202608419,stand
10/08/2020, 17:33:30,-6.706055,1.6813037,1.9447559,-0.07852965,0.24180008,0.042974945,7.181924093746511,0.2578391602685031,stand
10/08/2020, 17:33:30,0.047900394,2.907554,3.547024,-0.07852965,0.24180008,0.042974945,4.58667020105507,0.2578391602685031,stand
10/08/2020, 17:33:30,0.047900394,2.907554,3.547024,-0.017443147,-0.22734424,0.017318618,4.58667020105507,0.22866920099212024,stand
10/08/2020, 17:33:30,-2.7375073,2.811753,18.3219,-0.017443147,-0.22734424,0.017318618,18.737446456791762,0.22866920099212024,stand
10/08/2020, 17:33:30,-2.7375073,2.811753,18.3219,-0.096855596,-0.012319765,-0.020555016,18.737446456791762,0.0997762080829862,stand
10/08/2020, 17:33:30,-8.083191,1.8250049,8.533455,-0.096855596,-0.012319765,-0.020555016,11.894892638246272,0.0997762080829862,stand
10/08/2020, 17:33:31,-2.8452833,2.5890162,7.1874537,-0.70894235,-0.64517593,0.25799942,8.152185788330788,0.9926806874898655,stand
10/08/2020, 17:33:31,-2.8452833,2.5890162,7.1874537,-0.9435145,-0.76734895,0.2812123,8.152185788330788,1.248248541709988,stand
10/08/2020, 17:33:31,-2.9913795,2.1195924,11.194322,-0.9435145,-0.76734895,0.2812123,11.77938284379301,1.248248541709988,stand
10/08/2020, 17:33:31,-2.9913795,2.1195924,11.194322,-1.0962307,-0.78323144,0.31297728,11.77938284379301,1.3831587441881488,stand
10/08/2020, 17:33:31,-2.9602442,1.8705103,10.2315235,-1.0962307,-0.78323144,0.31297728,10.814154055788855,1.3831587441881488,stand
10/08/2020, 17:33:31,-2.9602442,1.8705103,10.2315235,-1.0937873,-0.7258101,0.34840745,10.814154055788855,1.3581453349945656,stand
10/08/2020, 17:33:31,-3.178191,1.5615528,9.237591,-1.0937873,-0.7258101,0.34840745,9.893049495691779,1.3581453349945656,stand
10/08/2020, 17:33:31,-3.178191,1.5615528,9.237591,-1.0131532,-0.66838884,0.34840745,9.893049495691779,1.2627789960383462,stand
10/08/2020, 17:33:31,-2.6369166,1.465752,9.766891,-1.0131532,-0.66838884,0.34840745,10.222226217310494,1.2627789960383462,stand
10/08/2020, 17:33:31,-2.6369166,1.465752,9.766891,-0.89464533,-0.6036371,0.3215294,10.222226217310494,1.1261212934718894,stand
10/08/2020, 17:33:31,-2.8692336,1.5136524,9.831555,-0.89464533,-0.6036371,0.3215294,10.35292838497595,1.1261212934718894,stand
10/08/2020, 17:33:31,-2.8692336,1.5136524,9.831555,-0.7675854,-0.5584331,0.28732094,10.35292838497595,0.9917601571591936,stand
10/08/2020, 17:33:31,-3.0704153,1.465752,9.469908,-0.7675854,-0.5584331,0.28732094,10.06255592757469,0.9917601571591936,stand
10/08/2020, 17:33:31,-3.0704153,1.465752,9.469908,-0.6857295,-0.5388854,0.30198172,10.06255592757469,0.9229384593960485,stand
10/08/2020, 17:33:31,-3.2620168,1.7818946,9.532178,-0.6857295,-0.5388854,0.30198172,10.23124223465551,0.9229384593960485,stand
10/08/2020, 17:33:31,-3.2620168,1.7818946,9.532178,-0.69550335,-0.54499406,0.3422988,10.23124223465551,0.9475821385186484,stand
10/08/2020, 17:33:31,-3.173401,2.0333717,9.503438,-0.69550335,-0.54499406,0.3422988,10.223522328962128,0.9475821385186484,stand
10/08/2020, 17:33:31,-3.173401,2.0333717,9.503438,-0.79324174,-0.5584331,0.35695955,10.223522328962128,1.0336827960507629,stand
10/08/2020, 17:33:31,-3.1159205,1.9591261,9.307046,-0.79324174,-0.5584331,0.35695955,10.008408466586038,1.0336827960507629,stand
10/08/2020, 17:33:31,-3.1159205,1.9591261,9.307046,-0.9435145,-0.5938633,0.36795512,10.008408466586038,1.174003517386126,stand
10/08/2020, 17:33:31,-3.06802,1.7148341,9.285491,-0.9435145,-0.5938633,0.36795512,9.92843120822899,1.174003517386126,stand
10/08/2020, 17:33:31,-3.06802,1.7148341,9.285491,-1.0889004,-0.6219631,0.39605492,9.92843120822899,1.3150672086389232,stand
10/08/2020, 17:33:31,-2.823728,1.3747413,9.400452,-1.0889004,-0.6219631,0.39605492,9.911197979859606,1.3150672086389232,stand
10/08/2020, 17:33:31,-2.823728,1.3747413,9.400452,-1.1597607,-0.61585444,0.41315913,9.911197979859606,1.3765980077690878,stand
10/08/2020, 17:33:31,-2.5171657,0.98435307,9.426797,-1.1597607,-0.61585444,0.41315913,9.806608688199082,1.3765980077690878,stand
10/08/2020, 17:33:31,-2.5171657,0.98435307,9.426797,-1.1451,-0.59630674,0.39361146,9.806608688199082,1.3497280156155995,stand
10/08/2020, 17:33:31,-2.2129982,0.5484595,9.510623,-1.1451,-0.59630674,0.39361146,9.780087834164565,1.3497280156155995,stand
10/08/2020, 17:33:31,-2.2129982,0.5484595,9.510623,-1.0742396,-0.56087655,0.35695955,9.780087834164565,1.2633263106049504,stand
10/08/2020, 17:33:31,-2.2129982,0.5484595,9.510623,-0.9508449,-0.5022335,0.32275113,9.780087834164565,1.1227256040443503,stand
10/08/2020, 17:33:31,-2.071692,0.2945874,9.6758795,-0.9508449,-0.5022335,0.32275113,9.899562269156704,1.1227256040443503,stand
10/08/2020, 17:33:32,-0.5628296,-10.394385,3.0752053,-0.25323704,-0.19313581,0.5206714,10.854349889462796,0.6103516815874691,stand
10/08/2020, 17:33:32,-0.5628296,-10.394385,3.0752053,-0.18848535,-0.21146175,0.47180218,10.854349889462796,0.5503090894711988,stand
10/08/2020, 17:33:32,-0.2802173,-10.5620365,3.0177248,-0.18848535,-0.21146175,0.47180218,10.988257356833667,0.5503090894711988,stand
10/08/2020, 17:33:32,-0.2802173,-10.5620365,3.0177248,-0.17871152,-0.29209593,0.4400372,10.988257356833667,0.5575756166180174,stand
10/08/2020, 17:33:32,-0.1939966,-10.832674,3.417693,-0.17871152,-0.29209593,0.4400372,11.360681581625979,0.5575756166180174,stand
10/08/2020, 17:33:32,-0.1939966,-10.832674,3.417693,-0.11395982,-0.38250396,0.4595849,11.360681581625979,0.6086989320779816,stand
10/08/2020, 17:33:32,-0.119750984,-11.285333,3.8895118,-0.11395982,-0.38250396,0.4595849,11.937394029566,0.6086989320779816,stand
10/08/2020, 17:33:32,-0.119750984,-11.285333,3.8895118,-0.05898197,-0.441147,0.46202835,11.937394029566,0.6415292263871177,stand
10/08/2020, 17:33:32,0.12454102,-11.53681,3.786526,-0.05898197,-0.441147,0.46202835,12.142951556650022,0.6415292263871177,stand
10/08/2020, 17:33:32,0.12454102,-11.53681,3.786526,-0.32409737,-0.48879448,0.4192678,12.142951556650022,0.720933167950637,stand
10/08/2020, 17:33:32,0.15328126,-11.438614,3.1925611,-0.32409737,-0.48879448,0.4192678,11.876776902790967,0.720933167950637,stand
10/08/2020, 17:33:32,0.15328126,-11.438614,3.1925611,-0.7798027,-0.54865927,0.32763803,11.876776902790967,1.0081993293052958,stand
10/08/2020, 17:33:32,-0.050295413,-11.821816,3.9326222,-0.7798027,-0.54865927,0.32763803,12.458867966093903,1.0081993293052958,stand
10/08/2020, 17:33:32,-0.050295413,-11.821816,3.9326222,-1.0265921,-0.51445085,0.2653298,12.458867966093903,1.17853765092614,stand
10/08/2020, 17:33:32,-0.13651612,-12.86365,4.287085,-1.0265921,-0.51445085,0.2653298,13.559912777661255,1.17853765092614,stand
10/08/2020, 17:33:32,-0.13651612,-12.86365,4.287085,-0.91541475,-0.36539975,0.22989964,13.559912777661255,1.0121042378021534,stand
10/08/2020, 17:33:32,-0.19878663,-13.548626,4.4283915,-0.91541475,-0.36539975,0.22989964,14.255365026666956,1.0121042378021534,stand
10/08/2020, 17:33:32,-0.19878663,-13.548626,4.4283915,-0.45726594,-0.18336196,0.18836083,14.255365026666956,0.5274405678592117,stand
10/08/2020, 17:33:32,-0.34488282,-13.040882,4.2296047,-0.45726594,-0.18336196,0.18836083,13.713974860549065,0.5274405678592117,stand
10/08/2020, 17:33:32,-0.34488282,-13.040882,4.2296047,0.20735517,0.013336565,0.192026,13.713974860549065,0.28292758328969975,stand
10/08/2020, 17:33:32,-0.28500733,-11.718831,3.5781593,0.20735517,0.013336565,0.192026,12.256241465113588,0.28292758328969975,stand
10/08/2020, 17:33:32,-0.28500733,-11.718831,3.5781593,0.79256386,0.19048741,0.1871391,12.256241465113588,0.836339620523136,stand
10/08/2020, 17:33:32,-0.2921924,-10.145303,2.811753,0.79256386,0.19048741,0.1871391,10.53178521771139,0.836339620523136,stand
10/08/2020, 17:33:32,-0.2921924,-10.145303,2.811753,1.1884043,0.32732117,0.123609126,10.53178521771139,1.2388394557742346,stand
10/08/2020, 17:33:32,-0.41194338,-8.950189,2.42376,1.1884043,0.32732117,0.123609126,9.281712461212084,1.2388394557742346,stand
10/08/2020, 17:33:32,-0.41194338,-8.950189,2.42376,1.3716639,0.44460726,0.09306588,9.281712461212084,1.4449217291103726,stand
10/08/2020, 17:33:32,-0.9316626,-8.174202,1.9040406,1.3716639,0.44460726,0.09306588,8.444580718854144,1.4449217291103726,stand
10/08/2020, 17:33:32,-0.9316626,-8.174202,1.9040406,1.2238345,0.4861461,0.13216124,8.444580718854144,1.32347101855469,stand
10/08/2020, 17:33:32,-1.7339942,-7.3886356,1.6286134,1.2238345,0.4861461,0.13216124,7.762155245079485,1.32347101855469,stand
10/08/2020, 17:33:32,-1.7339942,-7.3886356,1.6286134,0.8890805,0.41284227,0.24944732,7.762155245079485,1.0114973481605447,stand
10/08/2020, 17:33:33,-2.9746144,-9.259146,2.1507277,0.1145037,-0.011098035,-0.035215776,9.96020784639863,0.12030965800082594,stand
10/08/2020, 17:33:33,-2.929109,-9.22801,2.2225783,0.1145037,-0.011098035,-0.035215776,9.93356462604799,0.12030965800082594,stand
10/08/2020, 17:33:33,-2.929109,-9.22801,2.2225783,0.14016002,-0.009876305,-0.048654806,9.93356462604799,0.14869318717924887,stand
10/08/2020, 17:33:33,-2.907554,-9.17053,2.2417383,0.14016002,-0.009876305,-0.048654806,9.878151991889016,0.14869318717924887,stand
10/08/2020, 17:33:33,-2.907554,-9.17053,2.2417383,0.1438252,0.003562725,-0.032772314,9.878151991889016,0.1475547580754958,stand
10/08/2020, 17:33:33,-2.9506643,-9.091495,2.203418,0.1438252,0.003562725,-0.032772314,9.809013405955032,0.1475547580754958,stand
10/08/2020, 17:33:33,-2.9506643,-9.091495,2.203418,0.10106467,0.013336565,-0.021776743,9.809013405955032,0.10424086270863851,stand
10/08/2020, 17:33:33,-2.9865894,-9.017249,2.1411476,0.10106467,0.013336565,-0.021776743,9.737299985161284,0.10424086270863851,stand
10/08/2020, 17:33:33,-2.9865894,-9.017249,2.1411476,0.043643355,0.015780026,-0.015668094,9.737299985161284,0.04898204636357558,stand
10/08/2020, 17:33:33,-3.051255,-9.077125,2.0980372,0.043643355,0.015780026,-0.015668094,9.803372286995298,0.04898204636357558,stand
10/08/2020, 17:33:33,-3.051255,-9.077125,2.0980372,-0.012556226,0.015780026,-0.008337714,9.803372286995298,0.021821675135621995,stand
10/08/2020, 17:33:33,-3.1207106,-9.235196,2.078877,-0.012556226,0.015780026,-0.008337714,9.967417491090165,0.021821675135621995,stand
10/08/2020, 17:33:33,-3.1207106,-9.235196,2.078877,-0.052873317,0.0108931055,-0.016889825,9.967417491090165,0.05656424328969293,stand
10/08/2020, 17:33:33,-3.0249097,-9.21364,2.1603076,-0.052873317,0.0108931055,-0.016889825,9.935198739963715,0.05656424328969293,stand
10/08/2020, 17:33:33,-3.0249097,-9.21364,2.1603076,-0.045542937,0.009671375,-0.033994045,9.935198739963715,0.05764798079784113,stand
10/08/2020, 17:33:33,-2.9482691,-9.237591,2.2465284,-0.045542937,0.009671375,-0.033994045,9.95350512379663,0.05764798079784113,stand
10/08/2020, 17:33:33,-2.9482691,-9.237591,2.2465284,-0.019886605,0.014558295,-0.042546157,9.95350512379663,0.0491690602009891,stand
10/08/2020, 17:33:33,-2.9889846,-9.271121,2.1219873,-0.019886605,0.014558295,-0.042546157,9.969480638085072,0.0491690602009891,stand
10/08/2020, 17:33:33,-2.9889846,-9.271121,2.1219873,0.0045479937,0.0108931055,-0.053541727,9.969480638085072,0.05482755295891305,stand
10/08/2020, 17:33:33,-2.9099488,-9.220825,2.1627028,0.0045479937,0.0108931055,-0.053541727,9.908012053263771,0.05482755295891305,stand
10/08/2020, 17:33:33,-2.9099488,-9.220825,2.1627028,0.044865087,0.017001756,-0.06331556,9.908012053263771,0.0794405198840943,stand
10/08/2020, 17:33:33,-2.9961696,-9.254355,2.064507,0.044865087,0.017001756,-0.06331556,9.943958753696723,0.0794405198840943,stand
10/08/2020, 17:33:33,-2.9961696,-9.254355,2.064507,0.059525847,0.018223485,-0.044989616,9.943958753696723,0.07680812090219291,stand
10/08/2020, 17:33:33,-3.06802,-9.223221,1.9854712,0.059525847,0.018223485,-0.044989616,9.920818808764974,0.07680812090219291,stand
10/08/2020, 17:33:33,-3.06802,-9.223221,1.9854712,0.060747575,0.013336565,-0.030328855,9.920818808764974,0.06919516808321254,stand
10/08/2020, 17:33:33,-3.04407,-9.134604,1.949546,0.060747575,0.013336565,-0.030328855,9.823853126744089,0.06919516808321254,stand
10/08/2020, 17:33:33,-3.04407,-9.134604,1.949546,0.06685623,0.018223485,-0.020555016,9.823853126744089,0.07227972932245982,stand
10/08/2020, 17:33:33,-3.0153298,-9.177715,1.9926564,0.06685623,0.018223485,-0.020555016,9.86373922587657,0.07227972932245982,stand
10/08/2020, 17:33:33,-3.0153298,-9.177715,1.9926564,0.060747575,0.020666946,0.0014361264,9.86373922587657,0.06418296483413798,stand
10/08/2020, 17:33:33,-3.0057497,-9.077125,2.0213966,0.060747575,0.020666946,0.0014361264,9.773165636708274,0.06418296483413798,stand
10/08/2020, 17:33:34,-3.027305,-9.187295,2.1100123,0.0021045338,0.006006185,-0.013224634,9.900662373902035,0.01467631677169064,stand
10/08/2020, 17:33:34,-2.9530592,-9.101074,2.095642,0.0021045338,0.006006185,-0.013224634,9.794989858176958,0.01467631677169064,stand
10/08/2020, 17:33:34,-2.9530592,-9.101074,2.095642,0.008213184,0.0072279153,-0.009559444,9.794989858176958,0.014528665509065645,stand
10/08/2020, 17:33:34,-2.9937747,-9.081915,2.0118165,0.008213184,0.0072279153,-0.009559444,9.771963497084174,0.014528665509065645,stand
10/08/2020, 17:33:34,-2.9937747,-9.081915,2.0118165,0.019208755,0.003562725,-0.013224634,9.771963497084174,0.023591529076711422,stand
10/08/2020, 17:33:34,-3.0249097,-9.110655,2.1339624,0.019208755,0.003562725,-0.013224634,9.834017787534771,0.023591529076711422,stand
10/08/2020, 17:33:34,-3.0249097,-9.110655,2.1339624,0.026539136,0.008449646,-0.0046725236,9.834017787534771,0.028241011213264954,stand
10/08/2020, 17:33:34,-3.0416749,-9.206455,2.1100123,0.026539136,0.008449646,-0.0046725236,9.922840102445303,0.028241011213264954,stand
10/08/2020, 17:33:34,-3.0416749,-9.206455,2.1100123,0.021652214,0.0047844555,0.0075447764,9.922840102445303,0.023422917132018318,stand
10/08/2020, 17:33:34,-3.0249097,-9.1130495,2.1722827,0.021652214,0.0047844555,0.0075447764,9.844620984740228,0.023422917132018318,stand
10/08/2020, 17:33:34,-3.0249097,-9.1130495,2.1722827,0.028982595,-1.0246504E-4,0.006323046,9.844620984740228,0.029664493940264623,stand
10/08/2020, 17:33:34,-2.9746144,-9.11784,2.203418,0.028982595,-1.0246504E-4,0.006323046,9.840649599252266,0.029664493940264623,stand
10/08/2020, 17:33:34,-2.9746144,-9.11784,2.203418,0.022873946,0.0011192651,0.012431697,9.840649599252266,0.026057959027605236,stand
10/08/2020, 17:33:34,-2.9985645,-9.175321,2.1818628,0.022873946,0.0011192651,0.012431697,9.896384336821148,0.026057959027605236,stand
10/08/2020, 17:33:34,-2.9985645,-9.175321,2.1818628,0.010656644,-0.0013241951,0.0051013166,9.896384336821148,0.011888691172029873,stand
10/08/2020, 17:33:34,-2.9506643,-9.148975,2.2177882,0.010656644,-0.0013241951,0.0051013166,9.865533673031198,0.011888691172029873,stand
10/08/2020, 17:33:34,-2.9506643,-9.148975,2.2177882,0.0021045338,-0.002545925,-0.0022290638,9.865533673031198,0.003984911859803063,stand
10/08/2020, 17:33:34,-2.9770093,-9.129815,2.1579127,0.0021045338,-0.002545925,-0.0022290638,9.842392772905184,0.003984911859803063,stand
10/08/2020, 17:33:34,-2.9770093,-9.129815,2.1579127,-0.016221415,-0.002545925,-0.005894254,9.842392772905184,0.017445867048995922,stand
10/08/2020, 17:33:34,-2.938689,-8.981323,2.1363575,-0.016221415,-0.002545925,-0.005894254,9.688347833589923,0.017445867048995922,stand
10/08/2020, 17:33:34,-2.938689,-8.981323,2.1363575,-0.023551796,-0.0013241951,-0.012002904,9.688347833589923,0.02646715462065747,stand
10/08/2020, 17:33:34,-2.9865894,-9.041199,2.1818628,-0.023551796,-0.0013241951,-0.012002904,9.768496114118625,0.02646715462065747,stand
10/08/2020, 17:33:34,-2.9865894,-9.041199,2.1818628,-0.034547366,-1.0246504E-4,-0.012002904,9.768496114118625,0.03657322400662248,stand
10/08/2020, 17:33:34,-2.9794044,-9.1202345,2.191443,-0.034547366,-1.0246504E-4,-0.012002904,9.841643678325237,0.03657322400662248,stand
10/08/2020, 17:33:34,-2.9794044,-9.1202345,2.191443,-0.045542937,0.0047844555,0.006323046,9.841643678325237,0.04622803279225093,stand
10/08/2020, 17:33:34,-3.0177248,-9.127419,2.0381618,-0.045542937,0.0047844555,0.006323046,9.827031710158696,0.04622803279225093,stand
10/08/2020, 17:33:34,-3.0177248,-9.127419,2.0381618,-0.045542937,0.002340995,0.0075447764,9.827031710158696,0.04622297046659813,stand
10/08/2020, 17:33:34,-3.0033545,-9.125025,2.1435425,-0.045542937,0.002340995,0.0075447764,9.842814162551567,0.04622297046659813,stand
10/08/2020, 17:33:34,-3.0033545,-9.125025,2.1435425,-0.028438717,0.008449646,0.0014361264,9.842814162551567,0.02970218179839964,stand
10/08/2020, 17:33:34,-3.0799952,-9.261541,2.0525317,-0.028438717,0.008449646,0.0014361264,9.973735764499555,0.02970218179839964,stand
10/08/2020, 17:33:35,-2.9051588,-9.029224,2.1555176,-0.15061173,0.018223485,-0.065759026,9.726926371088757,0.16534883604647438,stand
10/08/2020, 17:33:35,-2.9913795,-9.108259,2.1100123,-0.15061173,0.018223485,-0.065759026,9.816358227936645,0.16534883604647438,stand
10/08/2020, 17:33:35,-2.9913795,-9.108259,2.1100123,-0.18237671,0.020666946,-0.080419786,9.816358227936645,0.20038894668739834,stand
10/08/2020, 17:33:35,-3.032095,-9.148975,2.0166066,-0.18237671,0.020666946,-0.080419786,9.847032661535739,0.20038894668739834,stand
10/08/2020, 17:33:35,-3.032095,-9.148975,2.0166066,-0.21291995,0.012114836,-0.10241093,9.847032661535739,0.23657910435532778,stand
10/08/2020, 17:33:35,-3.0249097,-9.129815,2.0142114,-0.21291995,0.012114836,-0.10241093,9.826527887428128,0.23657910435532778,stand
10/08/2020, 17:33:35,-3.0249097,-9.129815,2.0142114,-0.20803304,0.0047844555,-0.13173245,9.826527887428128,0.24628048018035134,stand
10/08/2020, 17:33:35,-3.051255,-9.280701,1.9854712,-0.20803304,0.0047844555,-0.13173245,9.969135281339435,0.24628048018035134,stand
10/08/2020, 17:33:35,-3.051255,-9.280701,1.9854712,-0.20436785,0.0047844555,-0.14028455,9.969135281339435,0.24792915006891852,stand
10/08/2020, 17:33:35,-3.051255,-9.381292,1.9782863,-0.20436785,0.0047844555,-0.14028455,10.061432282684912,0.24792915006891852,stand
10/08/2020, 17:33:35,-3.051255,-9.381292,1.9782863,-0.20925477,0.0011192651,-0.12684552,10.061432282684912,0.24470104009646515,stand
10/08/2020, 17:33:35,-2.8404932,-9.352551,1.9208057,-0.20925477,0.0011192651,-0.12684552,9.961330983243554,0.24470104009646515,stand
10/08/2020, 17:33:35,-2.8404932,-9.352551,1.9208057,-0.1701594,-0.002545925,-0.13661937,9.961330983243554,0.21823280315010107,stand
10/08/2020, 17:33:35,-2.9602442,-9.498648,1.9758912,-0.1701594,-0.002545925,-0.13661937,10.14354473031477,0.21823280315010107,stand
10/08/2020, 17:33:35,-2.9602442,-9.498648,1.9758912,-0.13228577,0.002340995,-0.114628226,10.14354473031477,0.17505609469974145,stand
10/08/2020, 17:33:35,-2.9722195,-9.395662,1.8058448,-0.13228577,0.002340995,-0.114628226,10.018664289473499,0.17505609469974145,stand
10/08/2020, 17:33:35,-2.9722195,-9.395662,1.8058448,-0.09929906,-0.012319765,-0.09874573,10.018664289473499,0.14058022434968123,stand
10/08/2020, 17:33:35,-2.8309133,-9.201666,1.9782863,-0.09929906,-0.012319765,-0.09874573,9.828445534740409,0.14058022434968123,stand
10/08/2020, 17:33:35,-2.8309133,-9.201666,1.9782863,-0.06264716,0.0047844555,-0.093858816,9.828445534740409,0.11294704295376379,stand
10/08/2020, 17:33:35,-2.8572583,-9.196876,1.829795,-0.06264716,0.0047844555,-0.093858816,9.802785071078882,0.11294704295376379,stand
10/08/2020, 17:33:35,-2.8572583,-9.196876,1.829795,-0.034547366,0.003562725,-0.07431114,9.802785071078882,0.08202657271996637,stand
10/08/2020, 17:33:35,-2.802173,-9.005274,1.8130299,-0.034547366,0.003562725,-0.07431114,9.603864163806861,0.08202657271996637,stand
10/08/2020, 17:33:35,-2.802173,-9.005274,1.8130299,-0.033325635,-0.006211115,-0.064537294,9.603864163806861,0.07289882190558733,stand
10/08/2020, 17:33:35,-2.7494826,-8.782537,1.8848804,-0.033325635,-0.006211115,-0.064537294,9.393901915340845,0.07289882190558733,stand
10/08/2020, 17:33:35,-2.7494826,-8.782537,1.8848804,-0.055316776,-0.002545925,-0.055985186,9.393901915340845,0.07874495872786451,stand
10/08/2020, 17:33:35,-2.675237,-8.794512,1.8848804,-0.055316776,-0.002545925,-0.055985186,9.383661578052997,0.07874495872786451,stand
10/08/2020, 17:33:35,-2.675237,-8.794512,1.8848804,-0.110294625,-0.008654575,-0.033994045,9.383661578052997,0.11573850313865483,stand
10/08/2020, 17:33:35,-2.663262,-8.933423,1.8753004,-0.110294625,-0.008654575,-0.033994045,9.508720353843515,0.11573850313865483,stand
10/08/2020, 17:33:35,-2.663262,-8.933423,1.8753004,-0.14816827,-0.0013241951,-0.048654806,9.508720353843515,0.1559579386330851,stand
10/08/2020, 17:33:35,-2.6896071,-9.316627,1.8633252,-0.14816827,-0.0013241951,-0.048654806,9.874487215974723,0.1559579386330851,stand
10/08/2020, 17:33:36,-2.9051588,-9.21364,2.0166066,-0.11395982,0.0011192651,-0.014446364,9.869033156306786,0.11487728472307528,stand
10/08/2020, 17:33:36,-2.929109,-9.14658,2.0357666,-0.11395982,0.0011192651,-0.014446364,9.817532619760222,0.11487728472307528,stand
10/08/2020, 17:33:36,-2.929109,-9.14658,2.0357666,-0.15061173,0.0072279153,-0.046211347,9.817532619760222,0.157707400241167,stand
10/08/2020, 17:33:36,-2.8788135,-9.273516,2.0860622,-0.15061173,0.0072279153,-0.046211347,9.931632098121002,0.157707400241167,stand
10/08/2020, 17:33:36,-2.8788135,-9.273516,2.0860622,-0.15916383,0.017001756,-0.058428645,9.931632098121002,0.17039980015227052,stand
10/08/2020, 17:33:36,-2.799778,-9.398057,1.7771046,-0.15916383,0.017001756,-0.058428645,9.9659586921421,0.17039980015227052,stand
10/08/2020, 17:33:36,-2.799778,-9.398057,1.7771046,-0.07364272,0.013336565,-0.07553287,9.9659586921421,0.10633122255116982,stand
10/08/2020, 17:33:36,-2.7590625,-9.378897,1.2478052,-0.07364272,0.013336565,-0.07553287,9.855615024245184,0.10633122255116982,stand
10/08/2020, 17:33:36,-2.7590625,-9.378897,1.2478052,0.07540834,0.008449646,-0.0767546,9.855615024245184,0.10793091665887694,stand
10/08/2020, 17:33:36,-2.8309133,-9.453142,1.4106666,0.07540834,0.008449646,-0.0767546,9.968246945636096,0.10793091665887694,stand
10/08/2020, 17:33:36,-2.8309133,-9.453142,1.4106666,0.14016002,0.013336565,-0.051098265,9.968246945636096,0.1497789338001528,stand
10/08/2020, 17:33:36,-2.7470875,-9.311836,1.7866846,0.14016002,0.013336565,-0.051098265,9.871627312707869,0.1497789338001528,stand
10/08/2020, 17:33:36,-2.7470875,-9.311836,1.7866846,0.12916446,0.024332136,-0.030328855,9.871627312707869,0.1348901379418103,stand
10/08/2020, 17:33:36,-2.7758276,-9.16095,1.9639161,0.12916446,0.024332136,-0.030328855,9.77165211006789,0.1348901379418103,stand
10/08/2020, 17:33:36,-2.7758276,-9.16095,1.9639161,0.091290824,0.030440787,-0.029107124,9.77165211006789,0.10053795659822072,stand
10/08/2020, 17:33:36,-2.8357031,-9.235196,2.0237916,0.091290824,0.030440787,-0.029107124,9.870450433891568,0.10053795659822072,stand
10/08/2020, 17:33:36,-2.8357031,-9.235196,2.0237916,0.027760863,0.040214624,-0.019333284,9.870450433891568,0.052551473995732796,stand
10/08/2020, 17:33:36,-2.8740237,-9.237591,1.9758912,0.027760863,0.040214624,-0.019333284,9.874069163828938,0.052551473995732796,stand
10/08/2020, 17:33:36,-2.8740237,-9.237591,1.9758912,-0.035769098,0.036549434,-0.029107124,9.874069163828938,0.05884313139220399,stand
10/08/2020, 17:33:36,-2.7351124,-9.079519,2.1435425,-0.035769098,0.036549434,-0.029107124,9.721794318712112,0.05884313139220399,stand
10/08/2020, 17:33:36,-2.7351124,-9.079519,2.1435425,-0.117625006,0.041436356,-0.040102694,9.721794318712112,0.13099938767798436,stand
10/08/2020, 17:33:36,-2.8093581,-8.986114,2.0932472,-0.117625006,0.041436356,-0.040102694,9.644916458182703,0.13099938767798436,stand
10/08/2020, 17:33:36,-2.8093581,-8.986114,2.0932472,-0.22880244,0.053653654,-0.037659235,9.644916458182703,0.23800733240170163,stand
10/08/2020, 17:33:36,-2.7710378,-8.907078,2.0333717,-0.22880244,0.053653654,-0.037659235,9.547213506842814,0.23800733240170163,stand
10/08/2020, 17:33:36,-2.7710378,-8.907078,2.0333717,-0.3045497,0.049988464,-0.060872108,9.547213506842814,0.31457078080971396,stand
10/08/2020, 17:33:36,-2.8357031,-9.182506,2.0501368,-0.3045497,0.049988464,-0.060872108,9.82663128535994,0.31457078080971396,stand
10/08/2020, 17:33:36,-2.8357031,-9.182506,2.0501368,-0.3375364,0.037771165,-0.064537294,9.82663128535994,0.34572032187048607,stand
10/08/2020, 17:33:36,-2.8620484,-9.354947,2.0309765,-0.3375364,0.037771165,-0.064537294,9.991557521890435,0.34572032187048607,stand
10/08/2020, 17:33:36,-2.8620484,-9.354947,2.0309765,-0.36074927,0.025553865,-0.052319996,9.991557521890435,0.3654181455114798,stand
10/08/2020, 17:33:36,-2.8093581,-9.357342,1.7675245,-0.36074927,0.025553865,-0.052319996,9.928568918475866,0.3654181455114798,stand
10/08/2020, 17:33:37,-2.543511,-9.649534,-0.7041358,-0.089525215,-0.030645715,0.027092457,10.003937511185232,0.09842725866452537,stand
10/08/2020, 17:33:37,-2.548301,-9.733359,-0.90052736,-0.089525215,-0.030645715,0.027092457,10.101637065116412,0.09842725866452537,stand
10/08/2020, 17:33:37,-2.548301,-9.733359,-0.90052736,-0.011334497,-0.025758795,0.038088027,10.101637065116412,0.047356986653248875,stand
10/08/2020, 17:33:37,-2.4141798,-9.77647,-0.8861573,-0.011334497,-0.025758795,0.038088027,10.109050800931687,0.047356986653248875,stand
10/08/2020, 17:33:37,-2.4141798,-9.77647,-0.8861573,0.09495602,-0.008654575,0.034422837,10.109050800931687,0.10137296852243535,stand
10/08/2020, 17:33:37,-2.435735,-10.018367,-0.81909674,0.09495602,-0.008654575,0.034422837,10.342697811370352,0.10137296852243535,stand
10/08/2020, 17:33:37,-2.435735,-10.018367,-0.81909674,0.18902922,-0.009876305,0.053970516,10.342697811370352,0.19683089890662755,stand
10/08/2020, 17:33:37,-2.4740553,-9.817185,-0.8262818,0.18902922,-0.009876305,0.053970516,10.15779603971729,0.19683089890662755,stand
10/08/2020, 17:33:37,-2.4740553,-9.817185,-0.8262818,0.27577206,-0.009876305,0.057635706,10.15779603971729,0.2819036143691608,stand
10/08/2020, 17:33:37,-2.4620802,-9.627979,-0.7161109,0.27577206,-0.009876305,0.057635706,9.963565571506763,0.2819036143691608,stand
10/08/2020, 17:33:37,-2.4620802,-9.627979,-0.7161109,0.36007145,-0.004989385,0.042974945,9.963565571506763,0.3626612597456508,stand
10/08/2020, 17:33:37,-2.5123756,-9.726174,-0.5963599,0.36007145,-0.004989385,0.042974945,10.063108060483355,0.3626612597456508,stand
10/08/2020, 17:33:37,-2.5123756,-9.726174,-0.5963599,0.40649718,-0.008654575,0.055192247,10.063108060483355,0.4103182222642517,stand
10/08/2020, 17:33:37,-2.5459058,-9.6758795,-0.45744875,0.40649718,-0.008654575,0.055192247,10.01566470727704,0.4103182222642517,stand
10/08/2020, 17:33:37,-2.5459058,-9.6758795,-0.45744875,0.4272666,-0.009876305,0.07107474,10.01566470727704,0.43325039583830965,stand
10/08/2020, 17:33:37,-2.5578809,-9.513018,-0.38320315,0.4272666,-0.009876305,0.07107474,9.858351998934774,0.43325039583830965,stand
10/08/2020, 17:33:37,-2.5578809,-9.513018,-0.38320315,0.42971006,-1.0246504E-4,0.073518194,9.858351998934774,0.4359537491053263,stand
10/08/2020, 17:33:37,-2.6321266,-9.592053,-0.24908204,0.42971006,-1.0246504E-4,0.073518194,9.949754812509111,0.4359537491053263,stand
10/08/2020, 17:33:37,-2.6321266,-9.592053,-0.24908204,0.38817123,0.0011192651,0.08940069,9.949754812509111,0.39833482900428197,stand
10/08/2020, 17:33:37,-2.6153615,-9.457932,-0.22513184,0.38817123,0.0011192651,0.08940069,9.815461605016406,0.39833482900428197,stand
10/08/2020, 17:33:37,-2.6153615,-9.457932,-0.22513184,0.34785414,-1.0246504E-4,0.08451377,9.815461605016406,0.3579735863089708,stand
10/08/2020, 17:33:37,-2.574646,-9.357342,-0.08861572,0.34785414,-1.0246504E-4,0.08451377,9.705488121881007,0.3579735863089708,stand
10/08/2020, 17:33:37,-2.574646,-9.357342,-0.08861572,0.32464126,0.0047844555,0.080848575,9.705488121881007,0.3345912866809125,stand
10/08/2020, 17:33:37,-2.560276,-9.350157,-0.18681154,0.32464126,0.0047844555,0.080848575,9.69615097830528,0.3345912866809125,stand
10/08/2020, 17:33:37,-2.560276,-9.350157,-0.18681154,0.3099805,-1.0246504E-4,0.088178955,9.69615097830528,0.32227853825464625,stand
10/08/2020, 17:33:37,-2.5123756,-9.285491,-0.23710695,0.3099805,-1.0246504E-4,0.088178955,9.622296698089468,0.32227853825464625,stand
10/08/2020, 17:33:37,-2.5123756,-9.285491,-0.23710695,0.30631533,0.0047844555,0.07718339,9.622296698089468,0.31592601893763295,stand
10/08/2020, 17:33:37,-2.5363257,-9.431587,-0.086220704,0.30631533,0.0047844555,0.07718339,9.767047635060162,0.31592601893763295,stand
10/08/2020, 17:33:37,-2.5363257,-9.431587,-0.086220704,0.29531974,0.018223485,0.074739926,9.767047635060162,0.3051751928832979,stand
10/08/2020, 17:33:37,-2.6393116,-9.589659,-0.09101075,0.29531974,0.018223485,0.074739926,9.94664783336029,0.3051751928832979,stand
10/08/2020, 17:33:38,-2.7806177,-9.378897,1.0514137,0.039978165,-0.0037676552,0.013653426,9.838750383227678,0.042413028309338914,stand
10/08/2020, 17:33:38,-2.7973828,-9.465117,1.0777588,0.039978165,-0.0037676552,0.013653426,9.928512634922185,0.042413028309338914,stand
10/08/2020, 17:33:38,-2.7973828,-9.465117,1.0777588,0.030204326,-1.0246504E-4,0.022205535,9.928512634922185,0.03748863297030814,stand
10/08/2020, 17:33:38,-2.8692336,-9.477093,1.0083033,0.030204326,-1.0246504E-4,0.022205535,9.95311327527317,0.03748863297030814,stand
10/08/2020, 17:33:38,-2.8692336,-9.477093,1.0083033,0.021652214,-0.006211115,0.020983808,9.95311327527317,0.030785004767461002,stand
10/08/2020, 17:33:38,-2.7566676,-9.386082,1.0250684,0.021652214,-0.006211115,0.020983808,9.836082104121594,0.030785004767461002,stand
10/08/2020, 17:33:38,-2.7566676,-9.386082,1.0250684,0.031426053,-0.004989385,0.0014361264,9.836082104121594,0.0318520527027406,stand
10/08/2020, 17:33:38,-2.802173,-9.422008,1.0298585,0.031426053,-0.004989385,0.0014361264,9.883673805821271,0.0318520527027406,stand
10/08/2020, 17:33:38,-2.802173,-9.422008,1.0298585,0.025317404,-0.002545925,0.006323046,9.883673805821271,0.026218955212812825,stand
10/08/2020, 17:33:38,-2.7279274,-9.3453665,1.0059083,0.025317404,-0.002545925,0.006323046,9.787201549430504,0.026218955212812825,stand
10/08/2020, 17:33:38,-2.7279274,-9.3453665,1.0059083,0.021652214,-0.0013241951,0.0038795862,9.787201549430504,0.022036856920784206,stand
10/08/2020, 17:33:38,-2.7566676,-9.2256155,0.9867481,0.021652214,-0.0013241951,0.0038795862,9.679094457915546,0.022036856920784206,stand
10/08/2020, 17:33:38,-2.7566676,-9.2256155,0.9867481,0.030204326,0.002340995,-0.008337714,9.679094457915546,0.031421314940888484,stand
10/08/2020, 17:33:38,-2.799778,-9.398057,1.0538087,0.030204326,0.002340995,-0.008337714,9.86269459072654,0.031421314940888484,stand
10/08/2020, 17:33:38,-2.799778,-9.398057,1.0538087,0.015543564,0.0011192651,0.006323046,9.86269459072654,0.016817730360352803,stand
10/08/2020, 17:33:38,-2.823728,-9.419612,1.092129,0.015543564,0.0011192651,0.006323046,9.894204109409618,0.016817730360352803,stand
10/08/2020, 17:33:38,-2.823728,-9.419612,1.092129,-0.0015606564,-0.006211115,0.008766507,9.894204109409618,0.010856575879865906,stand
10/08/2020, 17:33:38,-2.8093581,-9.319021,1.0825489,-0.0015606564,-0.006211115,0.008766507,9.793291666491672,0.010856575879865906,stand
10/08/2020, 17:33:38,-2.8093581,-9.319021,1.0825489,8.8280346E-4,-0.0013241951,2.1439628E-4,9.793291666491672,0.0016058643431735627,stand
10/08/2020, 17:33:38,-2.8883936,-9.467513,1.0609937,8.8280346E-4,-0.0013241951,2.1439628E-4,9.955015288631083,0.0016058643431735627,stand
10/08/2020, 17:33:38,-2.8883936,-9.467513,1.0609937,-0.018664878,-0.0037676552,0.012431697,9.955015288631083,0.022740272240040226,stand
10/08/2020, 17:33:38,-2.7830129,-9.460327,1.0106983,-0.018664878,-0.0037676552,0.012431697,9.912843258328408,0.022740272240040226,stand
10/08/2020, 17:33:38,-2.7830129,-9.460327,1.0106983,-0.011334497,-0.0013241951,0.0038795862,9.912843258328408,0.012053028414961774,stand
10/08/2020, 17:33:38,-2.787803,-9.4435625,1.0442286,-0.011334497,-0.0013241951,0.0038795862,9.901673157120493,0.012053028414961774,stand
10/08/2020, 17:33:38,-2.787803,-9.4435625,1.0442286,0.016765293,-0.0013241951,-0.0010073337,9.901673157120493,0.016847648331541003,stand
10/08/2020, 17:33:38,-2.8261232,-9.517808,1.0083033,0.016765293,-0.0013241951,-0.0010073337,9.979595003863476,0.016847648331541003,stand
10/08/2020, 17:33:38,-2.8261232,-9.517808,1.0083033,0.020430483,-0.006211115,0.0051013166,9.979595003863476,0.02195463535972537,stand
10/08/2020, 17:33:38,-2.7590625,-9.376502,0.9436377,0.020430483,-0.006211115,0.0051013166,9.819453582076859,0.02195463535972537,stand
10/08/2020, 17:33:38,-2.7590625,-9.376502,0.9436377,0.042421624,-1.0246504E-4,-0.005894254,9.819453582076859,0.042829276401957515,stand
10/08/2020, 17:33:38,-2.7183473,-9.319021,1.0466236,0.042421624,-1.0246504E-4,-0.005894254,9.763656570620084,0.042829276401957515,stand
10/08/2020, 17:33:39,-2.802173,-9.386082,1.1663746,0.010656644,0.002340995,0.020983808,9.864640499119979,0.023650887913111412,stand
10/08/2020, 17:33:39,-2.7710378,-9.342972,1.2621753,0.010656644,0.002340995,0.020983808,9.82664028109792,0.023650887913111412,stand
10/08/2020, 17:33:39,-2.7710378,-9.342972,1.2621753,-3.3892598E-4,0.0047844555,0.013653426,9.82664028109792,0.0144714179948093,stand
10/08/2020, 17:33:39,-2.802173,-9.417217,1.2669654,-3.3892598E-4,0.0047844555,0.013653426,9.906631873441953,0.0144714179948093,stand
10/08/2020, 17:33:39,-2.802173,-9.417217,1.2669654,-0.023551796,0.002340995,0.020983808,9.906631873441953,0.0316304840696623,stand
10/08/2020, 17:33:39,-2.8572583,-9.489068,1.1999048,-0.023551796,0.002340995,0.020983808,9.982289754209633,0.0316304840696623,stand
10/08/2020, 17:33:39,-2.8572583,-9.489068,1.1999048,-0.033325635,-0.0037676552,0.008766507,9.982289754209633,0.034664748789818824,stand
10/08/2020, 17:33:39,-2.792593,-9.3309965,1.2166699,-0.033325635,-0.0037676552,0.008766507,9.815618029256063,0.034664748789818824,stand
10/08/2020, 17:33:39,-2.792593,-9.3309965,1.2166699,-0.011334497,-0.0013241951,-0.014446364,9.815618029256063,0.018409827028245746,stand
10/08/2020, 17:33:39,-2.818938,-9.359736,1.1855347,-0.011334497,-0.0013241951,-0.014446364,9.846652750015599,0.018409827028245746,stand
10/08/2020, 17:33:39,-2.818938,-9.359736,1.1855347,-0.008891036,0.0011192651,-0.012002904,9.846652750015599,0.014979084607398522,stand
10/08/2020, 17:33:39,-2.7662477,-9.299861,1.219065,-0.008891036,0.0011192651,-0.012002904,9.778837340620397,0.014979084607398522,stand
10/08/2020, 17:33:39,-2.7662477,-9.299861,1.219065,-0.016221415,-0.002545925,-0.014446364,9.778837340620397,0.02187037891569713,stand
10/08/2020, 17:33:39,-2.7183473,-9.237591,1.2070899,-0.016221415,-0.002545925,-0.014446364,9.704615486048787,0.02187037891569713,stand
10/08/2020, 17:33:39,-2.7183473,-9.237591,1.2070899,-0.006447577,0.0047844555,-0.014446364,9.704615486048787,0.016527543354980415,stand
10/08/2020, 17:33:39,-2.792593,-9.441168,1.2741505,-0.006447577,0.0047844555,-0.014446364,9.927622332198466,0.016527543354980415,stand
10/08/2020, 17:33:39,-2.792593,-9.441168,1.2741505,-0.027216986,0.006006185,0.006323046,9.927622332198466,0.02858005399611445,stand
10/08/2020, 17:33:39,-2.8141482,-9.469908,1.2406201,-0.027216986,0.006006185,0.006323046,9.956792723519548,0.02858005399611445,stand
10/08/2020, 17:33:39,-2.8141482,-9.469908,1.2406201,-0.039434288,-0.0013241951,0.0075447764,9.956792723519548,0.04017138521444226,stand
10/08/2020, 17:33:39,-2.7901978,-9.342972,1.2621753,-0.039434288,-0.0013241951,0.0075447764,9.83206044880401,0.04017138521444226,stand
10/08/2020, 17:33:39,-2.7901978,-9.342972,1.2621753,-0.022330068,-1.0246504E-4,-0.0010073337,9.83206044880401,0.02235301231515303,stand
10/08/2020, 17:33:39,-2.8404932,-9.498648,1.2310401,-0.022330068,-1.0246504E-4,-0.0010073337,9.990403862930936,0.02235301231515303,stand
10/08/2020, 17:33:39,-2.8404932,-9.498648,1.2310401,-0.032103907,-0.0013241951,0.0051013166,9.990403862930936,0.03253364087717853,stand
10/08/2020, 17:33:39,-2.8285182,-9.4507475,1.1807446,-0.032103907,-0.0013241951,0.0051013166,9.935356107340578,0.03253364087717853,stand
10/08/2020, 17:33:39,-2.8285182,-9.4507475,1.1807446,-0.019886605,0.0011192651,-0.0046725236,9.935356107340578,0.020458795346564716,stand
10/08/2020, 17:33:39,-2.7566676,-9.359736,1.1807446,-0.019886605,0.0011192651,-0.0046725236,9.828430217080085,0.020458795346564716,stand
10/08/2020, 17:33:39,-2.7566676,-9.359736,1.1807446,0.008213184,0.0047844555,-0.008337714,9.828430217080085,0.012643768209163828,stand
10/08/2020, 17:33:39,-2.818938,-9.354947,1.1136842,0.008213184,0.0047844555,-0.008337714,9.833704238462234,0.012643768209163828,stand
10/08/2020, 17:33:39,-2.818938,-9.354947,1.1136842,0.013100104,0.006006185,-0.007115984,9.833704238462234,0.016072467754991226,stand
10/08/2020, 17:33:39,-2.7566676,-9.235196,1.1424243,0.013100104,0.006006185,-0.007115984,9.705317973898214,0.016072467754991226,stand
10/08/2020, 17:33:40,-2.7470875,-9.239985,1.2334352,0.025317404,0.0047844555,0.022205535,9.718291172128444,0.034013935087411594,stand
10/08/2020, 17:33:40,-2.794988,-9.328602,1.2502003,0.025317404,0.0047844555,0.022205535,9.818236624324792,0.034013935087411594,stand
10/08/2020, 17:33:40,-2.794988,-9.328602,1.2502003,0.011878374,-0.0013241951,0.033201106,9.818236624324792,0.035286862919892026,stand
10/08/2020, 17:33:40,-2.7782228,-9.371712,1.2645704,0.011878374,-0.0013241951,0.033201106,9.856299552799197,0.035286862919892026,stand
10/08/2020, 17:33:40,-2.7782228,-9.371712,1.2645704,0.015543564,-0.002545925,0.017318618,9.856299552799197,0.023409797889806936,stand
10/08/2020, 17:33:40,-2.8596535,-9.5561285,1.223855,0.015543564,-0.002545925,0.017318618,10.049628402898115,0.023409797889806936,stand
10/08/2020, 17:33:40,-2.8596535,-9.5561285,1.223855,0.021652214,-0.0037676552,0.017318618,10.049628402898115,0.027981210139907755,stand
10/08/2020, 17:33:40,-2.8979738,-9.498648,1.1112891,0.021652214,-0.0037676552,0.017318618,9.992873635821834,0.027981210139907755,stand
10/08/2020, 17:33:40,-2.8979738,-9.498648,1.1112891,0.043643355,-0.013541495,0.0051013166,9.992873635821834,0.04597975638764459,stand
10/08/2020, 17:33:40,-2.7303224,-9.326206,1.223855,0.043643355,-0.013541495,0.0051013166,9.794416956723264,0.04597975638764459,stand
10/08/2020, 17:33:40,-2.7303224,-9.326206,1.223855,0.063191034,-0.0074328454,-0.005894254,9.794416956723264,0.06389910943153798,stand
10/08/2020, 17:33:40,-2.7015822,-9.237591,1.3124708,0.063191034,-0.0074328454,-0.005894254,9.71360950067695,0.06389910943153798,stand
10/08/2020, 17:33:40,-2.7015822,-9.237591,1.3124708,0.049752004,-0.0037676552,0.006323046,9.71360950067695,0.05029351929978823,stand
10/08/2020, 17:33:40,-2.6584718,-9.249566,1.1615845,0.049752004,-0.0037676552,0.006323046,9.69387557221207,0.05029351929978823,stand
10/08/2020, 17:33:40,-2.6584718,-9.249566,1.1615845,0.06685623,-0.0013241951,0.011209967,9.69387557221207,0.0678024486412465,stand
10/08/2020, 17:33:40,-2.7399025,-9.326206,1.1232642,0.06685623,-0.0013241951,0.011209967,9.785035020813064,0.0678024486412465,stand
10/08/2020, 17:33:40,-2.7399025,-9.326206,1.1232642,0.098621204,0.002340995,0.009988236,9.785035020813064,0.09915335141569531,stand
10/08/2020, 17:33:40,-2.8213332,-9.589659,1.2861255,0.098621204,0.002340995,0.009988236,10.07847183148006,0.09915335141569531,stand
10/08/2020, 17:33:40,-2.8213332,-9.589659,1.2861255,0.08151699,-0.0013241951,0.022205535,10.07847183148006,0.08449768468981035,stand
10/08/2020, 17:33:40,-2.8285182,-9.472302,1.3915064,0.08151699,-0.0013241951,0.022205535,9.983051564863255,0.08449768468981035,stand
10/08/2020, 17:33:40,-2.8285182,-9.472302,1.3915064,0.059525847,-0.011098035,0.022205535,9.983051564863255,0.06449479580219032,stand
10/08/2020, 17:33:40,-2.802173,-9.304651,1.4298267,0.059525847,-0.011098035,0.022205535,9.822072720701778,0.06449479580219032,stand
10/08/2020, 17:33:40,-2.802173,-9.304651,1.4298267,0.033869516,-0.009876305,0.013653426,9.822072720701778,0.03782990324601414,stand
10/08/2020, 17:33:40,-2.8596535,-9.333391,1.4897022,0.033869516,-0.009876305,0.013653426,9.874665655154152,0.03782990324601414,stand
10/08/2020, 17:33:40,-2.8596535,-9.333391,1.4897022,-0.051651586,-0.012319765,0.018540345,9.874665655154152,0.05624417595741984,stand
10/08/2020, 17:33:40,-2.7566676,-9.19448,1.5016773,-0.051651586,-0.012319765,0.018540345,9.715591200802113,0.05624417595741984,stand
10/08/2020, 17:33:40,-2.7566676,-9.19448,1.5016773,-0.1090729,-0.008654575,2.1439628E-4,9.715591200802113,0.10941592860134856,stand
10/08/2020, 17:33:40,-2.7494826,-9.153765,1.4346168,-0.1090729,-0.008654575,2.1439628E-4,9.664842924348953,0.10941592860134856,stand
10/08/2020, 17:33:40,-2.7494826,-9.153765,1.4346168,-0.12006847,-0.014763225,-0.005894254,9.664842924348953,0.12111619248906877,stand
10/08/2020, 17:33:40,-2.8572583,-9.319021,1.21188,-0.12006847,-0.014763225,-0.005894254,9.822257111088225,0.12111619248906877,stand
10/08/2020, 17:33:41,-2.7830129,-9.237591,1.331631,8.8280346E-4,0.002340995,-0.008337714,9.739172715979295,0.008705002620651164,stand
10/08/2020, 17:33:41,-2.7830129,-9.237591,1.331631,0.011878374,0.009671375,-0.005894254,9.739172715979295,0.016412601768857418,stand
10/08/2020, 17:33:41,-2.7782228,-9.280701,1.3028907,0.011878374,0.009671375,-0.005894254,9.774837654340066,0.016412601768857418,stand
10/08/2020, 17:33:41,-2.7782228,-9.280701,1.3028907,-0.0027823867,0.006006185,0.012431697,9.774837654340066,0.014084140859767601,stand
10/08/2020, 17:33:41,-2.818938,-9.340576,1.3531861,-0.0027823867,0.006006185,0.012431697,9.850070429672915,0.014084140859767601,stand
10/08/2020, 17:33:41,-2.818938,-9.340576,1.3531861,-0.027216986,0.002340995,0.012431697,9.850070429672915,0.03001319151415604,stand
10/08/2020, 17:33:41,-2.804568,-9.316627,1.3244458,-0.027216986,0.002340995,0.012431697,9.81933241121886,0.03001319151415604,stand
10/08/2020, 17:33:41,-2.804568,-9.316627,1.3244458,-0.033325635,0.002340995,0.0038795862,9.81933241121886,0.03363226706976927,stand
10/08/2020, 17:33:41,-2.8452833,-9.431587,1.3507911,-0.033325635,0.002340995,0.0038795862,9.943596479486693,0.03363226706976927,stand
10/08/2020, 17:33:41,-2.8452833,-9.431587,1.3507911,-0.045542937,0.0011192651,0.011209967,9.943596479486693,0.046915617822833426,stand
10/08/2020, 17:33:41,-2.8692336,-9.342972,1.2669654,-0.045542937,0.0011192651,0.011209967,9.855395724408577,0.046915617822833426,stand
10/08/2020, 17:33:41,-2.8692336,-9.342972,1.2669654,-0.045542937,-0.0013241951,2.1439628E-4,9.855395724408577,0.0455626881138899,stand
10/08/2020, 17:33:41,-2.8093581,-9.362132,1.2789404,-0.045542937,-0.0013241951,2.1439628E-4,9.85787495534749,0.0455626881138899,stand
10/08/2020, 17:33:41,-2.8093581,-9.362132,1.2789404,-0.028438717,0.003562725,-0.009559444,9.85787495534749,0.030213186080608825,stand
10/08/2020, 17:33:41,-2.8548634,-9.431587,1.2454102,-0.028438717,0.003562725,-0.009559444,9.932579177266557,0.030213186080608825,stand
10/08/2020, 17:33:41,-2.8548634,-9.431587,1.2454102,-0.033325635,0.006006185,2.1439628E-4,9.932579177266557,0.03386322732513651,stand
10/08/2020, 17:33:41,-2.7518775,-9.239985,1.2310401,-0.033325635,0.006006185,2.1439628E-4,9.719342633079606,0.03386322732513651,stand
10/08/2020, 17:33:41,-2.7518775,-9.239985,1.2310401,-0.019886605,-1.0246504E-4,-0.005894254,9.719342633079606,0.020741981699896144,stand
10/08/2020, 17:33:41,-2.7446926,-9.311836,1.2334352,-0.019886605,-1.0246504E-4,-0.005894254,9.785959010764998,0.020741981699896144,stand
10/08/2020, 17:33:41,-2.7446926,-9.311836,1.2334352,-0.011334497,-1.0246504E-4,-0.010781174,9.785959010764998,0.015643369688237534,stand
10/08/2020, 17:33:41,-2.8572583,-9.386082,1.3100758,-0.011334497,-1.0246504E-4,-0.010781174,9.898421752920404,0.015643369688237534,stand
10/08/2020, 17:33:41,-2.8572583,-9.386082,1.3100758,-0.029660445,-0.0013241951,0.0038795862,9.898421752920404,0.029942389051675577,stand
10/08/2020, 17:33:41,-2.7854078,-9.350157,1.2669654,-0.029660445,-0.0013241951,0.0038795862,9.838146659499621,0.029942389051675577,stand
10/08/2020, 17:33:41,-2.7854078,-9.350157,1.2669654,-0.030882176,-0.0013241951,0.0014361264,9.838146659499621,0.03094389676309517,stand
10/08/2020, 17:33:41,-2.7782228,-9.366921,1.3220508,-0.030882176,-0.0013241951,0.0014361264,9.859287867083367,0.03094389676309517,stand
10/08/2020, 17:33:41,-2.7782228,-9.366921,1.3220508,-0.030882176,0.002340995,0.0014361264,9.859287867083367,0.03100405637882845,stand
10/08/2020, 17:33:41,-2.919529,-9.568104,1.2502003,-0.030882176,0.002340995,0.0014361264,10.081431456689817,0.03100405637882845,stand
10/08/2020, 17:33:41,-2.919529,-9.568104,1.2502003,-0.043099478,-0.0037676552,0.0075447764,10.081431456689817,0.04391678348177455,stand
10/08/2020, 17:33:41,-2.7446926,-9.371712,1.2454102,-0.043099478,-0.0037676552,0.0075447764,9.84445857399761,0.04391678348177455,stand
10/08/2020, 17:33:41,-2.7446926,-9.371712,1.2454102,-0.027216986,-0.0013241951,-0.0010073337,9.84445857399761,0.02726779292626339,stand
10/08/2020, 17:33:42,-2.794988,-9.381292,1.0538087,0.006991454,-0.002545925,-0.012002904,9.845360137475238,0.014122034780773089,stand
10/08/2020, 17:33:42,-2.7422974,-9.299861,1.1472144,0.006991454,-0.002545925,-0.012002904,9.763386183486523,0.014122034780773089,stand
10/08/2020, 17:33:42,-2.7422974,-9.299861,1.1472144,0.016765293,-0.002545925,-0.015668094,9.763386183486523,0.023087787888130984,stand
10/08/2020, 17:33:42,-2.7494826,-9.2256155,1.1879297,0.016765293,-0.002545925,-0.015668094,9.699629539904668,0.023087787888130984,stand
10/08/2020, 17:33:42,-2.7494826,-9.2256155,1.1879297,0.026539136,0.0047844555,-0.0034507937,9.699629539904668,0.02718684822969136,stand
10/08/2020, 17:33:42,-2.818938,-9.357342,1.2286451,0.026539136,0.0047844555,-0.0034507937,9.849661173033002,0.02718684822969136,stand
10/08/2020, 17:33:42,-2.818938,-9.357342,1.2286451,0.008213184,0.002340995,0.016096886,9.849661173033002,0.01822214019598213,stand
10/08/2020, 17:33:42,-2.8357031,-9.359736,1.2693604,0.008213184,0.002340995,0.016096886,9.861904198744801,0.01822214019598213,stand
10/08/2020, 17:33:42,-2.8357031,-9.359736,1.2693604,-0.008891036,-0.0013241951,0.013653426,9.861904198744801,0.016346867085952708,stand
10/08/2020, 17:33:42,-2.802173,-9.357342,1.2525953,-0.008891036,-0.0013241951,0.013653426,9.847893830099121,0.016346867085952708,stand
10/08/2020, 17:33:42,-2.802173,-9.357342,1.2525953,-0.011334497,0.002340995,0.0075447764,9.847893830099121,0.013815741781593545,stand
10/08/2020, 17:33:42,-2.8955786,-9.465117,1.22625,-0.011334497,0.002340995,0.0075447764,9.973791314243806,0.013815741781593545,stand
10/08/2020, 17:33:42,-2.8955786,-9.465117,1.22625,-0.032103907,-0.004989385,0.012431697,9.973791314243806,0.03478651921503858,stand
10/08/2020, 17:33:42,-2.806963,-9.429193,1.1088941,-0.032103907,-0.004989385,0.012431697,9.900422175734114,0.03478651921503858,stand
10/08/2020, 17:33:42,-2.806963,-9.429193,1.1088941,-0.019886605,-0.0074328454,-0.005894254,9.900422175734114,0.022033304264424274,stand
10/08/2020, 17:33:42,-2.7231374,-9.402847,1.1759547,-0.019886605,-0.0074328454,-0.005894254,9.859608704119163,0.022033304264424274,stand
10/08/2020, 17:33:42,-2.7231374,-9.402847,1.1759547,8.8280346E-4,-1.0246504E-4,-0.010781174,9.859608704119163,0.010817742144656363,stand
10/08/2020, 17:33:42,-2.7566676,-9.431587,1.1256592,8.8280346E-4,-1.0246504E-4,-0.010781174,9.890458154415722,0.010817742144656363,stand
10/08/2020, 17:33:42,-2.7566676,-9.431587,1.1256592,-3.3892598E-4,0.0011192651,-0.005894254,9.890458154415722,0.006009147605900562,stand
10/08/2020, 17:33:42,-2.7255323,-9.206455,1.1448194,-3.3892598E-4,0.0011192651,-0.005894254,9.669434089296349,0.006009147605900562,stand
10/08/2020, 17:33:42,-2.7255323,-9.206455,1.1448194,0.015543564,0.002340995,-0.016889825,9.669434089296349,0.02307268624489759,stand
10/08/2020, 17:33:42,-2.7399025,-9.335787,1.22146,0.015543564,0.002340995,-0.016889825,9.805913813725963,0.02307268624489759,stand
10/08/2020, 17:33:42,-2.7399025,-9.335787,1.22146,0.015543564,0.0047844555,-0.0046725236,9.805913813725963,0.016921166628731107,stand
10/08/2020, 17:33:42,-2.8668385,-9.455538,1.2166699,0.015543564,0.0047844555,-0.0046725236,9.955211872550944,0.016921166628731107,stand
10/08/2020, 17:33:42,-2.8668385,-9.455538,1.2166699,-0.004004116,-1.0246504E-4,0.012431697,9.955211872550944,0.01306103117696923,stand
10/08/2020, 17:33:42,-2.806963,-9.316627,1.2070899,-0.004004116,-1.0246504E-4,0.012431697,9.804878243806552,0.01306103117696923,stand
10/08/2020, 17:33:42,-2.806963,-9.316627,1.2070899,-0.008891036,-1.0246504E-4,0.011209967,9.804878243806552,0.014308192346859509,stand
10/08/2020, 17:33:42,-2.8548634,-9.328602,1.22146,-0.008891036,-1.0246504E-4,0.011209967,9.831837152493764,0.014308192346859509,stand
10/08/2020, 17:33:42,-2.8548634,-9.328602,1.22146,-0.021108337,-1.0246504E-4,0.0038795862,9.831837152493764,0.02146214268540738,stand
10/08/2020, 17:33:42,-2.907554,-9.498648,1.1424243,-0.021108337,-1.0246504E-4,0.0038795862,9.999165518481226,0.02146214268540738,stand
10/08/2020, 17:33:43,-2.7446926,-9.326206,1.1711646,0.0021045338,-1.0246504E-4,-0.018111553,9.791990915357228,0.01823370273385334,stand
10/08/2020, 17:33:43,-2.7614577,-9.400452,1.1208692,0.0021045338,-1.0246504E-4,-0.018111553,9.861566184723088,0.01823370273385334,stand
10/08/2020, 17:33:43,-2.7614577,-9.400452,1.1208692,0.008213184,-0.002545925,-0.008337714,9.861566184723088,0.01197729495507436,stand
10/08/2020, 17:33:43,-2.7255323,-9.371712,1.0514137,0.008213184,-0.002545925,-0.008337714,9.816464624527391,0.01197729495507436,stand
10/08/2020, 17:33:43,-2.7255323,-9.371712,1.0514137,0.022873946,-0.002545925,-0.010781174,9.816464624527391,0.02541520849683471,stand
10/08/2020, 17:33:43,-2.682422,-9.297466,1.1208692,0.022873946,-0.002545925,-0.010781174,9.741386669074428,0.02541520849683471,stand
10/08/2020, 17:33:43,-2.682422,-9.297466,1.1208692,0.036312975,0.0072279153,-0.008337714,9.741386669074428,0.03795250168007671,stand
10/08/2020, 17:33:43,-2.7758276,-9.383687,1.214275,0.036312975,0.0072279153,-0.008337714,9.860692925978675,0.03795250168007671,stand
10/08/2020, 17:33:43,-2.7758276,-9.383687,1.214275,0.006991454,0.002340995,0.012431697,9.860692925978675,0.014453642300927985,stand
10/08/2020, 17:33:43,-2.806963,-9.386082,1.2358302,0.006991454,0.002340995,0.012431697,9.87445426068649,0.014453642300927985,stand
10/08/2020, 17:33:43,-2.806963,-9.386082,1.2358302,-0.014999687,-0.002545925,0.012431697,9.87445426068649,0.019647377099502584,stand
10/08/2020, 17:33:43,-2.8309133,-9.378897,1.2597803,-0.014999687,-0.002545925,0.012431697,9.877490575715614,0.019647377099502584,stand
10/08/2020, 17:33:43,-2.8309133,-9.378897,1.2597803,-0.022330068,-0.002545925,0.006323046,9.877490575715614,0.023347260762789097,stand
10/08/2020, 17:33:43,-2.8788135,-9.520203,1.1999048,-0.022330068,-0.002545925,0.006323046,10.018063533913226,0.023347260762789097,stand
10/08/2020, 17:33:43,-2.8788135,-9.520203,1.1999048,-0.045542937,-0.0074328454,0.012431697,10.018063533913226,0.047790724737130155,stand
10/08/2020, 17:33:43,-2.7830129,-9.376502,1.1136842,-0.045542937,-0.0074328454,0.012431697,9.843995302492885,0.047790724737130155,stand
10/08/2020, 17:33:43,-2.7830129,-9.376502,1.1136842,-0.033325635,-0.0074328454,-0.007115984,9.843995302492885,0.034878107155674624,stand
10/08/2020, 17:33:43,-2.7279274,-9.378897,1.099314,-0.033325635,-0.0074328454,-0.007115984,9.8292310444328,0.034878107155674624,stand
10/08/2020, 17:33:43,-2.7279274,-9.378897,1.099314,-0.006447577,-1.0246504E-4,-0.013224634,9.8292310444328,0.01471301127136207,stand
10/08/2020, 17:33:43,-2.794988,-9.422008,1.0777588,-0.006447577,-1.0246504E-4,-0.013224634,9.886746074302243,0.01471301127136207,stand
10/08/2020, 17:33:43,-2.794988,-9.422008,1.0777588,0.0045479937,0.002340995,-0.0010073337,9.886746074302243,0.005213369847759233,stand
10/08/2020, 17:33:43,-2.7063723,-9.268726,1.0562036,0.0045479937,0.002340995,-0.0010073337,9.71335704060627,0.005213369847759233,stand
10/08/2020, 17:33:43,-2.7063723,-9.268726,1.0562036,0.022873946,0.002340995,-0.0022290638,9.71335704060627,0.023101220037675667,stand
10/08/2020, 17:33:43,-2.7446926,-9.3309965,1.1304493,0.022873946,0.002340995,-0.0022290638,9.791769442346059,0.023101220037675667,stand
10/08/2020, 17:33:43,-2.7446926,-9.3309965,1.1304493,0.022873946,0.003562725,0.0014361264,9.791769442346059,0.023194241790184023,stand
10/08/2020, 17:33:43,-2.8309133,-9.503438,1.2310401,0.022873946,0.003562725,0.0014361264,9.99224017232878,0.023194241790184023,stand
10/08/2020, 17:33:43,-2.8309133,-9.503438,1.2310401,0.0021045338,0.002340995,0.024648998,9.99224017232878,0.024849193535824578,stand
10/08/2020, 17:33:43,-2.799778,-9.400452,1.1711646,0.0021045338,0.002340995,0.024648998,9.878202001020918,0.024849193535824578,stand
10/08/2020, 17:33:43,-2.799778,-9.400452,1.1711646,0.010656644,-0.0037676552,0.020983808,9.878202001020918,0.023834417706136903,stand
10/08/2020, 17:33:43,-2.8261232,-9.321417,1.2430152,0.010656644,-0.0037676552,0.020983808,9.819412989038034,0.023834417706136903,stand
10/08/2020, 17:33:44,-2.818938,-9.491463,1.1496094,-0.028438717,-0.002545925,0.0014361264,9.967741858156787,0.028588543605346337,stand
10/08/2020, 17:33:44,-2.7279274,-9.350157,1.1400293,-0.028438717,-0.002545925,0.0014361264,9.806461485645162,0.028588543605346337,stand
10/08/2020, 17:33:44,-2.7279274,-9.350157,1.1400293,0.009434914,0.0011192651,-0.010781174,9.806461485645162,0.014370249291686147,stand
10/08/2020, 17:33:44,-2.8285182,-9.441168,1.0490186,0.009434914,0.0011192651,-0.010781174,9.9114380907479,0.014370249291686147,stand
10/08/2020, 17:33:44,-2.8285182,-9.441168,1.0490186,0.009434914,0.0011192651,-0.0034507937,9.9114380907479,0.010108330112112183,stand
10/08/2020, 17:33:44,-2.7494826,-9.299861,1.0801538,0.009434914,0.0011192651,-0.0034507937,9.757755930134755,0.010108330112112183,stand
10/08/2020, 17:33:44,-2.7494826,-9.299861,1.0801538,0.016765293,0.002340995,-0.010781174,9.757755930134755,0.020069603936102815,stand
10/08/2020, 17:33:44,-2.7255323,-9.275911,1.1831397,0.016765293,0.002340995,-0.010781174,9.740168212739954,0.020069603936102815,stand
10/08/2020, 17:33:44,-2.7255323,-9.275911,1.1831397,0.027760863,0.0072279153,-0.0010073337,9.740168212739954,0.028704059169729835,stand
10/08/2020, 17:33:44,-2.802173,-9.426797,1.1831397,0.027760863,0.0072279153,-0.0010073337,9.90537694919659,0.028704059169729835,stand
10/08/2020, 17:33:44,-2.802173,-9.426797,1.1831397,0.005769724,0.003562725,0.017318618,9.90537694919659,0.018598850451017307,stand
10/08/2020, 17:33:44,-2.8309133,-9.3453665,1.1352394,0.005769724,0.003562725,0.017318618,9.8304991307758,0.018598850451017307,stand
10/08/2020, 17:33:44,-2.8309133,-9.3453665,1.1352394,-0.008891036,-0.0013241951,0.011209967,9.8304991307758,0.014368972187379809,stand
10/08/2020, 17:33:44,-2.811753,-9.335787,1.2358302,-0.008891036,-0.0013241951,0.011209967,9.828028638489668,0.014368972187379809,stand
10/08/2020, 17:33:44,-2.811753,-9.335787,1.2358302,-0.017443147,-0.0013241951,0.0075447764,9.828028638489668,0.019050997497949185,stand
10/08/2020, 17:33:44,-2.8979738,-9.496253,1.1400293,-0.017443147,-0.0013241951,0.0075447764,9.99383510642717,0.019050997497949185,stand
10/08/2020, 17:33:44,-2.8979738,-9.496253,1.1400293,-0.033325635,-0.002545925,0.014875156,9.99383510642717,0.03658346536483352,stand
10/08/2020, 17:33:44,-2.792593,-9.378897,1.0849439,-0.033325635,-0.002545925,0.014875156,9.845779932551379,0.03658346536483352,stand
10/08/2020, 17:33:44,-2.792593,-9.378897,1.0849439,-0.021108337,-0.004989385,-0.0034507937,9.845779932551379,0.02196278264017538,stand
10/08/2020, 17:33:44,-2.7590625,-9.369317,1.1663746,-0.021108337,-0.004989385,-0.0034507937,9.836511461546088,0.02196278264017538,stand
10/08/2020, 17:33:44,-2.7590625,-9.369317,1.1663746,-0.016221415,-1.0246504E-4,-0.007115984,9.836511461546088,0.01771389393336221,stand
10/08/2020, 17:33:44,-2.8285182,-9.352551,1.1424243,-0.016221415,-1.0246504E-4,-0.007115984,9.83747259912555,0.01771389393336221,stand
10/08/2020, 17:33:44,-2.8285182,-9.352551,1.1424243,-0.022330068,-0.0013241951,-0.0046725236,9.83747259912555,0.02285208761689301,stand
10/08/2020, 17:33:44,-2.703977,-9.271121,1.092129,-0.022330068,-0.0013241951,-0.0046725236,9.718946599180486,0.02285208761689301,stand
10/08/2020, 17:33:44,-2.703977,-9.271121,1.092129,0.0033262637,-0.002545925,-0.008337714,9.718946599180486,0.009330768248419729,stand
10/08/2020, 17:33:44,-2.7518775,-9.424402,1.1448194,0.0033262637,-0.002545925,-0.008337714,9.884472619401373,0.009330768248419729,stand
10/08/2020, 17:33:44,-2.7518775,-9.424402,1.1448194,0.016765293,0.006006185,0.0014361264,9.884472619401373,0.01786649818463428,stand
10/08/2020, 17:33:44,-2.8309133,-9.532178,1.1136842,0.016765293,0.006006185,0.0014361264,10.00583722558817,0.01786649818463428,stand
10/08/2020, 17:33:44,-2.8309133,-9.532178,1.1136842,0.006991454,0.002340995,0.022205535,10.00583722558817,0.023397574333707014,stand
10/08/2020, 17:33:44,-2.8333082,-9.328602,1.1256592,0.006991454,0.002340995,0.022205535,9.814150824264168,0.023397574333707014,stand
10/08/2020, 17:33:45,-2.8931837,-9.503438,1.2334352,-0.029660445,-0.0037676552,0.013653426,10.010355038183548,0.0328687276822216,stand
10/08/2020, 17:33:45,-2.8548634,-9.412427,1.1304493,-0.029660445,-0.0037676552,0.013653426,9.900603099453793,0.0328687276822216,stand
10/08/2020, 17:33:45,-2.8548634,-9.412427,1.1304493,-0.017443147,-0.0013241951,0.0038795862,9.900603099453793,0.017918371681588538,stand
10/08/2020, 17:33:45,-2.823728,-9.383687,1.1304493,-0.017443147,-0.0013241951,0.0038795862,9.864326534604624,0.017918371681588538,stand
10/08/2020, 17:33:45,-2.823728,-9.383687,1.1304493,0.006991454,-0.002545925,2.1439628E-4,9.864326534604624,0.007443663644054362,stand
10/08/2020, 17:33:45,-2.8644435,-9.410032,1.1304493,0.006991454,-0.002545925,2.1439628E-4,9.90109386746007,0.007443663644054362,stand
10/08/2020, 17:33:45,-2.8644435,-9.410032,1.1304493,0.010656644,-0.0037676552,0.0014361264,9.90109386746007,0.011393934311819351,stand
10/08/2020, 17:33:45,-2.787803,-9.266331,1.1831397,0.010656644,-0.0037676552,0.0014361264,9.748669124700386,0.011393934311819351,stand
10/08/2020, 17:33:45,-2.787803,-9.266331,1.1831397,0.006991454,-0.0013241951,-0.0046725236,9.748669124700386,0.00851271973984536,stand
10/08/2020, 17:33:45,-2.7710378,-9.302257,1.2022998,0.006991454,-0.0013241951,-0.0046725236,9.780396363649407,0.00851271973984536,stand
10/08/2020, 17:33:45,-2.7710378,-9.302257,1.2022998,0.014321834,0.0047844555,-0.0010073337,9.780396363649407,0.015133428584615295,stand
10/08/2020, 17:33:45,-2.8596535,-9.441168,1.2885206,0.014321834,0.0047844555,-0.0010073337,9.948545284473377,0.015133428584615295,stand
10/08/2020, 17:33:45,-2.8596535,-9.441168,1.2885206,-0.0015606564,-0.0037676552,0.014875156,9.948545284473377,0.01542404410194274,stand
10/08/2020, 17:33:45,-2.818938,-9.333391,1.1400293,-0.0015606564,-0.0037676552,0.014875156,9.816224807484074,0.01542404410194274,stand
10/08/2020, 17:33:45,-2.818938,-9.333391,1.1400293,0.0045479937,-0.0037676552,0.0051013166,9.816224807484074,0.007804031223896402,stand
10/08/2020, 17:33:45,-2.8620484,-9.383687,1.2430152,0.0045479937,-0.0037676552,0.0051013166,9.888882129074226,0.007804031223896402,stand
10/08/2020, 17:33:45,-2.8620484,-9.383687,1.2430152,-3.3892598E-4,-0.002545925,0.0051013166,9.888882129074226,0.005711395322014442,stand
10/08/2020, 17:33:45,-2.8740237,-9.503438,1.1328443,-3.3892598E-4,-0.002545925,0.0051013166,9.992931607157878,0.005711395322014442,stand
10/08/2020, 17:33:45,-2.8740237,-9.503438,1.1328443,-0.011334497,-0.009876305,0.0038795862,9.992931607157878,0.015526216749189988,stand
10/08/2020, 17:33:45,-2.816543,-9.371712,1.1376343,-0.011334497,-0.009876305,0.0038795862,9.851705820011997,0.015526216749189988,stand
10/08/2020, 17:33:45,-2.816543,-9.371712,1.1376343,0.0045479937,-0.011098035,-0.007115984,9.851705820011997,0.01394588994850519,stand
10/08/2020, 17:33:45,-2.694397,-9.371712,1.2046949,0.0045479937,-0.011098035,-0.007115984,9.825479404961166,0.01394588994850519,stand
10/08/2020, 17:33:45,-2.694397,-9.371712,1.2046949,0.011878374,-0.004989385,-0.005894254,9.825479404961166,0.014167990806494338,stand
10/08/2020, 17:33:45,-2.7422974,-9.278306,1.1879297,0.011878374,-0.004989385,-0.005894254,9.747734841827974,0.014167990806494338,stand
10/08/2020, 17:33:45,-2.7422974,-9.278306,1.1879297,-0.0015606564,-0.0013241951,-0.0010073337,9.747734841827974,0.002281197515431761,stand
10/08/2020, 17:33:45,-2.7159522,-9.204061,1.1496094,-0.0015606564,-0.0013241951,-0.0010073337,9.665026057643587,0.002281197515431761,stand
10/08/2020, 17:33:45,-2.7159522,-9.204061,1.1496094,0.0033262637,-1.0246504E-4,-0.009559444,9.665026057643587,0.010122129325076269,stand
10/08/2020, 17:33:45,-2.7159522,-9.204061,1.1496094,8.8280346E-4,0.0047844555,0.0051013166,9.665026057643587,0.007049382082417332,stand
10/08/2020, 17:33:45,-2.802173,-9.321417,1.3028907,8.8280346E-4,0.0047844555,0.0051013166,9.82031105449305,0.007049382082417332,stand
10/08/2020, 17:33:45,-2.8404932,-9.515413,1.1615845,8.8280346E-4,0.0047844555,0.0051013166,9.998038314858038,0.007049382082417332,stand
10/08/2020, 17:33:46,-2.7662477,-9.3309965,1.1879297,-0.011334497,-1.0246504E-4,-0.0010073337,9.80463153988194,0.011379632349535427,stand
10/08/2020, 17:33:46,-2.8357031,-9.493857,1.2430152,-0.011334497,-1.0246504E-4,-0.0010073337,9.985971510217764,0.011379632349535427,stand
10/08/2020, 17:33:46,-2.8357031,-9.493857,1.2430152,-0.033325635,-0.006211115,0.0038795862,9.985971510217764,0.034120771983579955,stand
10/08/2020, 17:33:46,-2.8261232,-9.438772,1.1615845,-0.033325635,-0.006211115,0.0038795862,9.921021709944563,0.034120771983579955,stand
10/08/2020, 17:33:46,-2.8261232,-9.438772,1.1615845,-0.019886605,-0.006211115,-0.005894254,9.921021709944563,0.021651726395034696,stand
10/08/2020, 17:33:46,-2.7470875,-9.350157,1.1975098,-0.019886605,-0.006211115,-0.005894254,9.818653224374204,0.021651726395034696,stand
10/08/2020, 17:33:46,-2.7470875,-9.350157,1.1975098,0.010656644,-0.002545925,-0.018111553,9.818653224374204,0.021167761862573544,stand
10/08/2020, 17:33:46,-2.792593,-9.433982,1.1136842,0.010656644,-0.002545925,-0.018111553,9.901458606044297,0.021167761862573544,stand
10/08/2020, 17:33:46,-2.792593,-9.433982,1.1136842,0.011878374,-0.002545925,-0.009559444,9.901458606044297,0.01545834650653961,stand
10/08/2020, 17:33:46,-2.7638526,-9.280701,1.1232642,0.011878374,-0.002545925,-0.009559444,9.74843622335988,0.01545834650653961,stand
10/08/2020, 17:33:46,-2.7638526,-9.280701,1.1232642,0.025317404,0.002340995,-0.015668094,9.74843622335988,0.0298653712299368,stand
10/08/2020, 17:33:46,-2.6896071,-9.2256155,1.3076807,0.025317404,0.002340995,-0.015668094,9.698247101763698,0.0298653712299368,stand
10/08/2020, 17:33:46,-2.6896071,-9.2256155,1.3076807,0.026539136,0.006006185,-0.005894254,9.698247101763698,0.02784137591062828,stand
10/08/2020, 17:33:46,-2.823728,-9.395662,1.2645704,0.026539136,0.006006185,-0.005894254,9.891968898072019,0.02784137591062828,stand
10/08/2020, 17:33:46,-2.823728,-9.395662,1.2645704,-0.004004116,0.002340995,0.013653426,9.891968898072019,0.014419752329418986,stand
10/08/2020, 17:33:46,-2.7782228,-9.350157,1.214275,-0.004004116,0.002340995,0.013653426,9.82946680093392,0.014419752329418986,stand
10/08/2020, 17:33:46,-2.7782228,-9.350157,1.214275,-0.010112767,-0.0013241951,0.011209967,9.82946680093392,0.015155358875782633,stand
10/08/2020, 17:33:46,-2.823728,-9.417217,1.2310401,-0.010112767,-0.0013241951,0.011209967,9.90822289282886,0.015155358875782633,stand
10/08/2020, 17:33:46,-2.823728,-9.417217,1.2310401,-0.013777957,0.0011192651,0.009988236,9.90822289282886,0.017054316898446092,stand
10/08/2020, 17:33:46,-2.8380983,-9.477093,1.1903248,-0.013777957,0.0011192651,0.009988236,9.964284311363349,0.017054316898446092,stand
10/08/2020, 17:33:46,-2.8380983,-9.477093,1.1903248,-0.038212556,-0.006211115,0.014875156,9.964284311363349,0.041473457516866534,stand
10/08/2020, 17:33:46,-2.7901978,-9.311836,1.1424243,-0.038212556,-0.006211115,0.014875156,9.787779709034528,0.041473457516866534,stand
10/08/2020, 17:33:46,-2.7901978,-9.311836,1.1424243,-0.022330068,-0.004989385,-0.009559444,9.787779709034528,0.024797356225163866,stand
10/08/2020, 17:33:46,-2.684817,-9.357342,1.2310401,-0.022330068,-0.004989385,-0.009559444,9.812418022072947,0.024797356225163866,stand
10/08/2020, 17:33:46,-2.684817,-9.357342,1.2310401,-0.008891036,0.0072279153,-0.010781174,9.812418022072947,0.0157329902391378,stand
10/08/2020, 17:33:46,-2.818938,-9.4435625,1.1232642,-0.008891036,0.0072279153,-0.010781174,9.919123289235655,0.0157329902391378,stand
10/08/2020, 17:33:46,-2.818938,-9.4435625,1.1232642,-0.014999687,0.006006185,0.0038795862,9.919123289235655,0.01661674003825491,stand
10/08/2020, 17:33:46,-2.7087672,-9.249566,1.1400293,-0.014999687,0.006006185,0.0038795862,9.705233592093025,0.01661674003825491,stand
10/08/2020, 17:33:46,-2.7087672,-9.249566,1.1400293,-0.004004116,0.006006185,-0.005894254,9.705233592093025,0.009319304368218422,stand
10/08/2020, 17:33:46,-2.787803,-9.371712,1.214275,-0.004004116,0.006006185,-0.005894254,9.852679318450823,0.009319304368218422,stand
10/08/2020, 17:33:47,-2.8333082,-9.386082,1.22146,-0.023551796,0.0011192651,0.018540345,9.880188741066048,0.029994736696054028,stand
10/08/2020, 17:33:47,-2.8093581,-9.335787,1.1520045,-0.023551796,0.0011192651,0.018540345,9.817154521924918,0.029994736696054028,stand
10/08/2020, 17:33:47,-2.8093581,-9.335787,1.1520045,-0.022330068,0.002340995,0.0038795862,9.817154521924918,0.022785157146246484,stand
10/08/2020, 17:33:47,-2.8764186,-9.541759,1.1855347,-0.022330068,0.002340995,0.0038795862,10.036156258949328,0.022785157146246484,stand
10/08/2020, 17:33:47,-2.8764186,-9.541759,1.1855347,-0.036990825,0.0011192651,0.008766507,10.036156258949328,0.0380319015619512,stand
10/08/2020, 17:33:47,-2.8931837,-9.517808,1.099314,-0.036990825,0.0011192651,0.008766507,10.008380066562317,0.0380319015619512,stand
10/08/2020, 17:33:47,-2.8931837,-9.517808,1.099314,-0.023551796,-1.0246504E-4,2.1439628E-4,10.008380066562317,0.023552994338794302,stand
10/08/2020, 17:33:47,-2.818938,-9.383687,1.096919,-0.023551796,-1.0246504E-4,2.1439628E-4,9.859169578736507,0.023552994338794302,stand
10/08/2020, 17:33:47,-2.818938,-9.383687,1.096919,0.0033262637,-0.0013241951,-0.010781174,9.859169578736507,0.011360071616813756,stand
10/08/2020, 17:33:47,-2.8500733,-9.455538,1.1448194,0.0033262637,-0.0013241951,-0.010781174,9.941867251759644,0.011360071616813756,stand
10/08/2020, 17:33:47,-2.8500733,-9.455538,1.1448194,-0.004004116,-0.002545925,-0.005894254,9.941867251759644,0.007566829628951626,stand
10/08/2020, 17:33:47,-2.7686427,-9.268726,1.1591895,-0.004004116,-0.002545925,-0.005894254,9.742606968434453,0.007566829628951626,stand
10/08/2020, 17:33:47,-2.7686427,-9.268726,1.1591895,0.011878374,-1.0246504E-4,-0.007115984,9.742606968434453,0.013847147546739678,stand
10/08/2020, 17:33:47,-2.7614577,-9.304651,1.1687696,0.011878374,-1.0246504E-4,-0.007115984,9.775899241400683,0.013847147546739678,stand
10/08/2020, 17:33:47,-2.7614577,-9.304651,1.1687696,0.028982595,0.002340995,-0.0034507937,9.775899241400683,0.029281035243539155,stand
10/08/2020, 17:33:47,-2.8644435,-9.474698,1.1927198,0.028982595,0.002340995,-0.0034507937,9.969830530893,0.029281035243539155,stand
10/08/2020, 17:33:47,-2.8644435,-9.474698,1.1927198,0.010656644,-1.0246504E-4,0.016096886,9.969830530893,0.019305033022984343,stand
10/08/2020, 17:33:47,-2.8716285,-9.378897,1.1615845,0.010656644,-1.0246504E-4,0.016096886,9.877207726570399,0.019305033022984343,stand
10/08/2020, 17:33:47,-2.8716285,-9.378897,1.1615845,0.005769724,0.0011192651,0.013653426,9.877207726570399,0.014864673659854168,stand
10/08/2020, 17:33:47,-2.816543,-9.381292,1.2310401,0.005769724,0.0011192651,0.013653426,9.872032255403175,0.014864673659854168,stand
10/08/2020, 17:33:47,-2.816543,-9.381292,1.2310401,0.0021045338,-0.0013241951,0.0051013166,9.872032255403175,0.005675031839517063,stand
10/08/2020, 17:33:47,-2.907554,-9.5489435,1.21188,0.0021045338,-0.0013241951,0.0051013166,10.055090509058061,0.005675031839517063,stand
10/08/2020, 17:33:47,-2.907554,-9.5489435,1.21188,-0.019886605,-0.009876305,0.009988236,10.055090509058061,0.02434714242653767,stand
10/08/2020, 17:33:47,-2.7782228,-9.319021,1.2046949,-0.019886605,-0.009876305,0.009988236,9.798671758815141,0.02434714242653767,stand
10/08/2020, 17:33:47,-2.7782228,-9.319021,1.2046949,-0.0027823867,-0.006211115,-0.007115984,9.798671758815141,0.009846667074179732,stand
10/08/2020, 17:33:47,-2.7422974,-9.342972,1.1951149,-0.0027823867,-0.006211115,-0.007115984,9.810179238204702,0.009846667074179732,stand
10/08/2020, 17:33:47,-2.7422974,-9.342972,1.1951149,0.006991454,-1.0246504E-4,-0.007115984,9.810179238204702,0.00997637978621055,stand
10/08/2020, 17:33:47,-2.8285182,-9.419612,1.1759547,0.006991454,-1.0246504E-4,-0.007115984,9.905174068162893,0.00997637978621055,stand
10/08/2020, 17:33:47,-2.8285182,-9.419612,1.1759547,-3.3892598E-4,-0.002545925,-0.0046725236,9.905174068162893,0.00533189291566914,stand
10/08/2020, 17:33:47,-2.7135572,-9.297466,1.1424243,-3.3892598E-4,-0.002545925,-0.0046725236,9.752507651315726,0.00533189291566914,stand
10/08/2020, 17:33:48,-2.8141482,-9.496253,0.9987232,-0.09441214,-1.0246504E-4,2.1439628E-4,9.954682283654233,0.09441243958158793,stand
10/08/2020, 17:33:48,-2.823728,-9.491463,1.0226734,-0.09441214,-1.0246504E-4,2.1439628E-4,9.955258180596607,0.09441243958158793,stand
10/08/2020, 17:33:48,-2.823728,-9.491463,1.0226734,-0.102964245,-0.004989385,0.0014361264,9.955258180596607,0.10309506354270764,stand
10/08/2020, 17:33:48,-2.7901978,-9.383687,0.8933423,-0.102964245,-0.004989385,0.0014361264,9.830404193572091,0.10309506354270764,stand
10/08/2020, 17:33:48,-2.7901978,-9.383687,0.8933423,-0.07730792,-1.0246504E-4,-0.0034507937,9.830404193572091,0.0773849632322442,stand
10/08/2020, 17:33:48,-2.8740237,-9.496253,0.8861573,-0.07730792,-1.0246504E-4,-0.0034507937,9.961129860761428,0.0773849632322442,stand
10/08/2020, 17:33:48,-2.8740237,-9.496253,0.8861573,-0.082194835,-0.006211115,0.0051013166,9.961129860761428,0.082586877125438,stand
10/08/2020, 17:33:48,-2.8404932,-9.376502,0.9053174,-0.082194835,-0.006211115,0.0051013166,9.839044248497736,0.082586877125438,stand
10/08/2020, 17:33:48,-2.8404932,-9.376502,0.9053174,-0.07730792,-0.006211115,-0.0022290638,9.839044248497736,0.0775890503471977,stand
10/08/2020, 17:33:48,-2.7470875,-9.395662,0.9029224,-0.07730792,-0.006211115,-0.0022290638,9.830576212111843,0.0775890503471977,stand
10/08/2020, 17:33:48,-2.7470875,-9.395662,0.9029224,-0.05042986,-1.0246504E-4,-0.013224634,9.830576212111843,0.052135132659485654,stand
10/08/2020, 17:33:48,-2.7782228,-9.441168,0.9148975,-0.05042986,-1.0246504E-4,-0.013224634,9.883886350105767,0.052135132659485654,stand
10/08/2020, 17:33:48,-2.7782228,-9.441168,0.9148975,-0.051651586,-0.0013241951,-0.0046725236,9.883886350105767,0.05187940140147987,stand
10/08/2020, 17:33:48,-2.7446926,-9.3453665,0.9388477,-0.051651586,-0.0013241951,-0.0046725236,9.785225951451025,0.05187940140147987,stand
10/08/2020, 17:33:48,-2.7446926,-9.3453665,0.9388477,-0.052873317,0.003562725,-0.012002904,9.785225951451025,0.05433553514211446,stand
10/08/2020, 17:33:48,-2.7542725,-9.273516,0.98195803,-0.052873317,0.003562725,-0.012002904,9.723597679210846,0.05433553514211446,stand
10/08/2020, 17:33:48,-2.7542725,-9.273516,0.98195803,-0.068755805,0.009671375,-0.0034507937,9.723597679210846,0.06951837356646733,stand
10/08/2020, 17:33:48,-2.8357031,-9.3309965,0.9963282,-0.068755805,0.009671375,-0.0034507937,9.80313103207935,0.06951837356646733,stand
10/08/2020, 17:33:48,-2.8357031,-9.3309965,0.9963282,-0.12617713,0.0072279153,0.011209967,9.80313103207935,0.12688015914288614,stand
10/08/2020, 17:33:48,-2.7901978,-9.371712,1.0514137,-0.12617713,0.0072279153,0.011209967,9.834615166886836,0.12688015914288614,stand
10/08/2020, 17:33:48,-2.7901978,-9.371712,1.0514137,-0.16038556,0.0072279153,0.0038795862,9.834615166886836,0.1605952149951958,stand
10/08/2020, 17:33:48,-2.787803,-9.405242,1.0657837,-0.16038556,0.0072279153,0.0038795862,9.867437186250392,0.1605952149951958,stand
10/08/2020, 17:33:48,-2.787803,-9.405242,1.0657837,-0.18237671,0.0047844555,-0.0010073337,9.867437186250392,0.1824422402305999,stand
10/08/2020, 17:33:48,-2.907554,-9.5561285,0.96758795,-0.18237671,0.0047844555,-0.0010073337,10.035421671662707,0.1824422402305999,stand
10/08/2020, 17:33:48,-2.907554,-9.5561285,0.96758795,-0.21291995,-0.002545925,-0.0010073337,10.035421671662707,0.2129375536876363,stand
10/08/2020, 17:33:48,-2.7973828,-9.453142,0.86220706,-0.21291995,-0.002545925,-0.0010073337,9.895991538266529,0.2129375536876363,stand
10/08/2020, 17:33:48,-2.7973828,-9.453142,0.86220706,-0.19459401,-0.0013241951,-0.021776743,9.895991538266529,0.19581319935821187,stand
10/08/2020, 17:33:48,-2.7255323,-9.424402,0.87178713,-0.19459401,-0.0013241951,-0.021776743,9.84925868312052,0.19581319935821187,stand
10/08/2020, 17:33:48,-2.7255323,-9.424402,0.87178713,-0.1579421,0.003562725,-0.013224634,9.84925868312052,0.15853482691231757,stand
10/08/2020, 17:33:48,-2.7830129,-9.419612,0.69695073,-0.1579421,0.003562725,-0.013224634,9.846826385727129,0.15853482691231757,stand
10/08/2020, 17:33:49,-2.802173,-9.304651,0.82388675,0.017987024,-0.0013241951,0.0014361264,9.752307286730623,0.018092788216355564,stand
10/08/2020, 17:33:49,-2.802173,-9.304651,0.82388675,0.020430483,-0.0013241951,-0.0034507937,9.752307286730623,0.020762131444034947,stand
10/08/2020, 17:33:49,-2.8261232,-9.429193,0.87418216,0.020430483,-0.0013241951,-0.0034507937,9.882349873623804,0.020762131444034947,stand
10/08/2020, 17:33:49,-2.8261232,-9.429193,0.87418216,-0.004004116,-1.0246504E-4,0.014875156,9.882349873623804,0.015404989699838938,stand
10/08/2020, 17:33:49,-2.802173,-9.400452,0.8262818,-0.004004116,-1.0246504E-4,0.014875156,9.843952761062083,0.015404989699838938,stand
10/08/2020, 17:33:49,-2.802173,-9.400452,0.8262818,-0.0076693064,-1.0246504E-4,0.013653426,9.843952761062083,0.015660294136477473,stand
10/08/2020, 17:33:49,-2.7973828,-9.388477,0.8286768,-0.0076693064,-1.0246504E-4,0.013653426,9.831356084912645,0.015660294136477473,stand
10/08/2020, 17:33:49,-2.7973828,-9.388477,0.8286768,-3.3892598E-4,-1.0246504E-4,0.0051013166,9.831356084912645,0.005113589839301244,stand
10/08/2020, 17:33:49,-2.8380983,-9.589659,0.85741705,-3.3892598E-4,-1.0246504E-4,0.0051013166,10.037505695048347,0.005113589839301244,stand
10/08/2020, 17:33:49,-2.8380983,-9.589659,0.85741705,-0.017443147,-0.004989385,0.012431697,10.037505695048347,0.021993281153121186,stand
10/08/2020, 17:33:49,-2.7518775,-9.433982,0.852627,-0.017443147,-0.004989385,0.012431697,9.864066970546293,0.021993281153121186,stand
10/08/2020, 17:33:49,-2.7518775,-9.433982,0.852627,-3.3892598E-4,-0.0013241951,-0.005894254,9.864066970546293,0.00605066881898518,stand
10/08/2020, 17:33:49,-2.7854078,-9.429193,0.8765772,-3.3892598E-4,-0.0013241951,-0.005894254,9.870995699941886,0.00605066881898518,stand
10/08/2020, 17:33:49,-2.7854078,-9.429193,0.8765772,0.009434914,-0.0037676552,-0.015668094,9.870995699941886,0.01867356438284607,stand
10/08/2020, 17:33:49,-2.7854078,-9.426797,0.79993653,0.009434914,-0.0037676552,-0.015668094,9.862195242860855,0.01867356438284607,stand
10/08/2020, 17:33:49,-2.7854078,-9.426797,0.79993653,0.009434914,0.0011192651,-0.007115984,9.862195242860855,0.011870450162957593,stand
10/08/2020, 17:33:49,-2.7111623,-9.273516,0.7664063,0.009434914,0.0011192651,-0.007115984,9.692052065891183,0.011870450162957593,stand
10/08/2020, 17:33:49,-2.7111623,-9.273516,0.7664063,0.028982595,0.006006185,-0.0046725236,9.692052065891183,0.029964938257952017,stand
10/08/2020, 17:33:49,-2.7710378,-9.3309965,0.85741705,0.028982595,0.006006185,-0.0046725236,9.771453858471626,0.029964938257952017,stand
10/08/2020, 17:33:49,-2.7710378,-9.3309965,0.85741705,0.030204326,0.0072279153,0.009988236,9.771453858471626,0.032623747903933076,stand
10/08/2020, 17:33:49,-2.9171338,-9.491463,0.8262818,0.030204326,0.0072279153,0.009988236,9.96394879415894,0.032623747903933076,stand
10/08/2020, 17:33:49,-2.9171338,-9.491463,0.8262818,0.0045479937,0.002340995,0.022205535,9.96394879415894,0.0227870643753653,stand
10/08/2020, 17:33:49,-2.8644435,-9.342972,0.847837,0.0045479937,0.002340995,0.022205535,9.808923815355431,0.0227870643753653,stand
10/08/2020, 17:33:49,-2.8644435,-9.342972,0.847837,0.008213184,0.002340995,0.009988236,9.808923815355431,0.013141594639437149,stand
10/08/2020, 17:33:49,-2.8668385,-9.455538,0.9364527,0.008213184,0.002340995,0.009988236,9.924862788712847,0.013141594639437149,stand
10/08/2020, 17:33:49,-2.8668385,-9.455538,0.9364527,-0.012556226,-0.002545925,0.008766507,9.924862788712847,0.015523923060695052,stand
10/08/2020, 17:33:49,-2.931504,-9.508228,0.859812,-0.012556226,-0.002545925,0.008766507,9.986961395855069,0.015523923060695052,stand
10/08/2020, 17:33:49,-2.931504,-9.508228,0.859812,-0.041877747,-0.006211115,0.0038795862,9.986961395855069,0.04251323086137368,stand
10/08/2020, 17:33:49,-2.7446926,-9.335787,0.80712163,-0.041877747,-0.006211115,0.0038795862,9.764307355985478,0.04251323086137368,stand
10/08/2020, 17:33:49,-2.7446926,-9.335787,0.80712163,-0.022330068,0.0011192651,-0.015668094,9.764307355985478,0.027301536002798502,stand
10/08/2020, 17:33:50,-2.8380983,-9.594449,0.87178713,0.0045479937,0.0011192651,0.016096886,10.043319527698177,0.01676444891695092,stand
10/08/2020, 17:33:50,-2.7638526,-9.376502,0.7783814,0.0045479937,0.0011192651,0.016096886,9.806301506680343,0.01676444891695092,stand
10/08/2020, 17:33:50,-2.7638526,-9.376502,0.7783814,0.013100104,-0.002545925,0.006323046,9.806301506680343,0.014767375575489147,stand
10/08/2020, 17:33:50,-2.7542725,-9.402847,0.8933423,0.013100104,-0.002545925,0.006323046,9.838577866881934,0.014767375575489147,stand
10/08/2020, 17:33:50,-2.7542725,-9.402847,0.8933423,0.009434914,0.0011192651,0.0014361264,9.838577866881934,0.009608996811557462,stand
10/08/2020, 17:33:50,-2.8955786,-9.534574,0.9029224,0.009434914,0.0011192651,0.0014361264,10.005385413979075,0.009608996811557462,stand
10/08/2020, 17:33:50,-2.8955786,-9.534574,0.9029224,-0.021108337,-1.0246504E-4,0.008766507,10.005385413979075,0.022856596875862605,stand
10/08/2020, 17:33:50,-2.7854078,-9.388477,0.847837,-0.021108337,-1.0246504E-4,0.008766507,9.829589540258949,0.022856596875862605,stand
10/08/2020, 17:33:50,-2.7854078,-9.388477,0.847837,-0.025995255,0.0011192651,-0.0022290638,9.829589540258949,0.02611464602565184,stand
10/08/2020, 17:33:50,-2.816543,-9.417217,0.85741705,-0.025995255,0.0011192651,-0.0022290638,9.866714745066083,0.02611464602565184,stand
10/08/2020, 17:33:50,-2.816543,-9.417217,0.85741705,-0.028438717,0.002340995,-0.0022290638,9.866714745066083,0.028621838074222312,stand
10/08/2020, 17:33:50,-2.9051588,-9.503438,0.7783814,-0.028438717,0.002340995,-0.0022290638,9.968006760000787,0.028621838074222312,stand
10/08/2020, 17:33:50,-2.9051588,-9.503438,0.7783814,-0.032103907,-0.0013241951,-0.007115984,9.968006760000787,0.032909749072601246,stand
10/08/2020, 17:33:50,-2.7806177,-9.371712,0.81909674,-0.032103907,-0.0013241951,-0.007115984,9.809777526289757,0.032909749072601246,stand
10/08/2020, 17:33:50,-2.7806177,-9.371712,0.81909674,-0.008891036,-0.0037676552,-0.019333284,9.809777526289757,0.02161068317463874,stand
10/08/2020, 17:33:50,-2.7854078,-9.422008,0.7711963,-0.008891036,-0.0037676552,-0.019333284,9.85532681986048,0.02161068317463874,stand
10/08/2020, 17:33:50,-2.7854078,-9.422008,0.7711963,0.0021045338,-0.0013241951,-0.015668094,9.85532681986048,0.015864164957187434,stand
10/08/2020, 17:33:50,-2.799778,-9.369317,0.732876,0.0021045338,-0.0013241951,-0.015668094,9.806118807715063,0.015864164957187434,stand
10/08/2020, 17:33:50,-2.799778,-9.369317,0.732876,0.008213184,0.0011192651,-0.009559444,9.806118807715063,0.01265275130902869,stand
10/08/2020, 17:33:50,-2.7231374,-9.354947,0.7424561,0.008213184,0.0011192651,-0.009559444,9.77147651438942,0.01265275130902869,stand
10/08/2020, 17:33:50,-2.7231374,-9.354947,0.7424561,0.028982595,0.0072279153,-0.008337714,9.77147651438942,0.03101211088396181,stand
10/08/2020, 17:33:50,-2.787803,-9.498648,0.93405765,0.028982595,0.0072279153,-0.008337714,9.943269926778083,0.03101211088396181,stand
10/08/2020, 17:33:50,-2.787803,-9.498648,0.93405765,0.024095673,0.003562725,0.012431697,9.943269926778083,0.027346691969342224,stand
10/08/2020, 17:33:50,-2.8428884,-9.486672,0.8430469,0.024095673,0.003562725,0.012431697,9.939300555579951,0.027346691969342224,stand
10/08/2020, 17:33:50,-2.8428884,-9.486672,0.8430469,0.008213184,-0.002545925,0.019762076,9.939300555579951,0.021551746762553142,stand
10/08/2020, 17:33:50,-2.7973828,-9.362132,0.91010743,0.008213184,-0.002545925,0.019762076,9.81341750815718,0.021551746762553142,stand
10/08/2020, 17:33:50,-2.7973828,-9.362132,0.91010743,-0.0015606564,-0.0013241951,0.011209967,9.81341750815718,0.01139528377585325,stand
10/08/2020, 17:33:50,-2.8572583,-9.448353,0.974773,-0.0015606564,-0.0013241951,0.011209967,9.918945426831877,0.01139528377585325,stand
10/08/2020, 17:33:50,-2.8572583,-9.448353,0.974773,-0.028438717,-0.002545925,0.018540345,9.918945426831877,0.03404389466573731,stand
10/08/2020, 17:33:50,-2.8668385,-9.436378,0.8167017,-0.028438717,-0.002545925,0.018540345,9.896008549523545,0.03404389466573731,stand
10/08/2020, 17:33:51,-2.8309133,-9.426797,0.9196875,0.028982595,0.003562725,-0.0046725236,9.88556499644513,0.02957222135372292,stand
10/08/2020, 17:33:51,-2.823728,-9.496253,0.9316626,0.028982595,0.003562725,-0.0046725236,9.950892263004551,0.02957222135372292,stand
10/08/2020, 17:33:51,-2.823728,-9.496253,0.9316626,0.0033262637,-1.0246504E-4,0.013653426,9.950892263004551,0.014053134272887959,stand
10/08/2020, 17:33:51,-2.8141482,-9.208851,0.7951465,0.0033262637,-1.0246504E-4,0.013653426,9.662019571018629,0.014053134272887959,stand
10/08/2020, 17:33:51,-2.8141482,-9.208851,0.7951465,0.0033262637,-1.0246504E-4,-0.0022290638,9.662019571018629,0.004005403210661446,stand
10/08/2020, 17:33:51,-2.7854078,-9.307046,0.847837,0.0033262637,-1.0246504E-4,-0.0022290638,9.751842292888607,0.004005403210661446,stand
10/08/2020, 17:33:51,-2.7854078,-9.307046,0.847837,-0.0052258465,0.0011192651,-0.009559444,9.751842292888607,0.010951949550480405,stand
10/08/2020, 17:33:51,-2.8716285,-9.496253,0.83586186,-0.0052258465,0.0011192651,-0.009559444,9.956090433686535,0.010951949550480405,stand
10/08/2020, 17:33:51,-2.8716285,-9.496253,0.83586186,-0.022330068,0.0011192651,0.006323046,9.956090433686535,0.02323500817571137,stand
10/08/2020, 17:33:51,-2.7758276,-9.371712,0.7951465,-0.022330068,0.0011192651,0.006323046,9.806449810504528,0.02323500817571137,stand
10/08/2020, 17:33:51,-2.7758276,-9.371712,0.7951465,-0.010112767,-1.0246504E-4,0.008766507,9.806449810504528,0.013383953044979262,stand
10/08/2020, 17:33:51,-2.823728,-9.460327,0.80233157,-0.010112767,-1.0246504E-4,0.008766507,9.905299894204164,0.013383953044979262,stand
10/08/2020, 17:33:51,-2.823728,-9.460327,0.80233157,-0.010112767,-1.0246504E-4,0.0026578563,9.905299894204164,0.010456708751490578,stand
10/08/2020, 17:33:51,-2.8859987,-9.558523,0.8765772,-0.010112767,-1.0246504E-4,0.0026578563,10.023110374383334,0.010456708751490578,stand
10/08/2020, 17:33:51,-2.8859987,-9.558523,0.8765772,-0.027216986,-0.002545925,0.0075447764,10.023110374383334,0.0283578860827807,stand
10/08/2020, 17:33:51,-2.7494826,-9.472302,0.8334668,-0.027216986,-0.002545925,0.0075447764,9.898425892526365,0.0283578860827807,stand
10/08/2020, 17:33:51,-2.7494826,-9.472302,0.8334668,0.005769724,-0.0013241951,-0.007115984,9.898425892526365,0.009256372634456165,stand
10/08/2020, 17:33:51,-2.7422974,-9.448353,0.7783814,0.005769724,-0.0013241951,-0.007115984,9.869014317443183,0.009256372634456165,stand
10/08/2020, 17:33:51,-2.7422974,-9.448353,0.7783814,0.027760863,-0.002545925,-0.013224634,9.869014317443183,0.030855116584324178,stand
10/08/2020, 17:33:51,-2.8093581,-9.465117,0.8143067,0.027760863,-0.002545925,-0.013224634,9.90676722434956,0.030855116584324178,stand
10/08/2020, 17:33:51,-2.8093581,-9.465117,0.8143067,0.024095673,-0.0013241951,-0.010781174,9.90676722434956,0.02643082782399433,stand
10/08/2020, 17:33:51,-2.7279274,-9.256751,0.79993653,0.024095673,-0.0013241951,-0.010781174,9.683435692213068,0.02643082782399433,stand
10/08/2020, 17:33:51,-2.7279274,-9.256751,0.79993653,0.038756434,0.0047844555,-0.014446364,9.683435692213068,0.04163711815074752,stand
10/08/2020, 17:33:51,-2.7638526,-9.3381815,0.847837,0.038756434,0.0047844555,-0.014446364,9.77544589007901,0.04163711815074752,stand
10/08/2020, 17:33:51,-2.7638526,-9.3381815,0.847837,0.024095673,0.0011192651,0.0026578563,9.77544589007901,0.024267641365331164,stand
10/08/2020, 17:33:51,-2.802173,-9.398057,0.8885523,0.024095673,0.0011192651,0.0026578563,9.847089581952526,0.024267641365331164,stand
10/08/2020, 17:33:51,-2.802173,-9.398057,0.8885523,-0.0052258465,-0.002545925,0.014875156,9.847089581952526,0.0159706439735103,stand
10/08/2020, 17:33:51,-2.799778,-9.390872,0.9244776,-0.0052258465,-0.002545925,0.014875156,9.842859975904181,0.0159706439735103,stand
10/08/2020, 17:33:51,-2.799778,-9.390872,0.9244776,-0.010112767,-0.0013241951,0.009988236,9.842859975904181,0.014275377905847502,stand
10/08/2020, 17:33:51,-2.8404932,-9.481883,0.8909473,-0.010112767,-0.0013241951,0.009988236,9.938223928186966,0.014275377905847502,stand
10/08/2020, 17:33:52,-2.8692336,-9.469908,0.8262818,-0.0027823867,-1.0246504E-4,0.0051013166,9.929471087784991,0.00581167842595943,stand
10/08/2020, 17:33:52,-2.7590625,-9.426797,0.852627,-0.0027823867,-1.0246504E-4,0.0051013166,9.859203763206015,0.00581167842595943,stand
10/08/2020, 17:33:52,-2.7590625,-9.426797,0.852627,0.017987024,0.006006185,-0.0046725236,9.859203763206015,0.019530483053390744,stand
10/08/2020, 17:33:52,-2.7758276,-9.417217,0.8861573,0.017987024,0.006006185,-0.0046725236,9.857711431031044,0.019530483053390744,stand
10/08/2020, 17:33:52,-2.7758276,-9.417217,0.8861573,0.009434914,0.002340995,0.008766507,9.857711431031044,0.013090053680110526,stand
10/08/2020, 17:33:52,-2.7614577,-9.261541,0.8669971,0.009434914,0.002340995,0.008766507,9.703271665952576,0.013090053680110526,stand
10/08/2020, 17:33:52,-2.7614577,-9.261541,0.8669971,0.006991454,-0.0013241951,2.1439628E-4,9.703271665952576,0.0071189807172838005,stand
10/08/2020, 17:33:52,-2.7566676,-9.309442,0.91010743,0.006991454,-0.0013241951,2.1439628E-4,9.751574957641614,0.0071189807172838005,stand
10/08/2020, 17:33:52,-2.7566676,-9.309442,0.91010743,-0.0015606564,0.0011192651,-0.005894254,9.751574957641614,0.006199244501091575,stand
10/08/2020, 17:33:52,-2.8692336,-9.496253,1.0059083,-0.0015606564,0.0011192651,-0.005894254,9.97111699892472,0.006199244501091575,stand
10/08/2020, 17:33:52,-2.8692336,-9.496253,1.0059083,-0.029660445,-0.0013241951,0.012431697,9.97111699892472,0.03218761505279524,stand
10/08/2020, 17:33:52,-2.818938,-9.433982,0.9196875,-0.029660445,-0.0013241951,0.012431697,9.888996463842604,0.03218761505279524,stand
10/08/2020, 17:33:52,-2.818938,-9.433982,0.9196875,-0.036990825,-0.002545925,0.008766507,9.888996463842604,0.03810058420310958,stand
10/08/2020, 17:33:52,-2.8380983,-9.400452,0.89573735,-0.036990825,-0.002545925,0.008766507,9.86030621761182,0.03810058420310958,stand
10/08/2020, 17:33:52,-2.8380983,-9.400452,0.89573735,-0.028438717,0.0011192651,0.0051013166,9.86030621761182,0.028914301259495668,stand
10/08/2020, 17:33:52,-2.8452833,-9.558523,0.7951465,-0.028438717,0.0011192651,0.0051013166,10.00466192473429,0.028914301259495668,stand
10/08/2020, 17:33:52,-2.8452833,-9.558523,0.7951465,-0.030882176,-1.0246504E-4,0.008766507,10.00466192473429,0.032102506689630314,stand
10/08/2020, 17:33:52,-2.794988,-9.422008,0.8262818,-0.030882176,-1.0246504E-4,0.008766507,9.86250097694022,0.032102506689630314,stand
10/08/2020, 17:33:52,-2.794988,-9.422008,0.8262818,-0.006447577,-0.0013241951,-0.0034507937,9.86250097694022,0.007431871749560897,stand
10/08/2020, 17:33:52,-2.7758276,-9.398057,0.852627,-0.006447577,-0.0013241951,-0.0034507937,9.836445850060008,0.007431871749560897,stand
10/08/2020, 17:33:52,-2.7758276,-9.398057,0.852627,0.014321834,-0.002545925,-0.009559444,9.836445850060008,0.017406310115964028,stand
10/08/2020, 17:33:52,-2.8333082,-9.371712,0.76880133,0.014321834,-0.002545925,-0.009559444,9.820777551931027,0.017406310115964028,stand
10/08/2020, 17:33:52,-2.8333082,-9.371712,0.76880133,0.025317404,-0.002545925,-0.0022290638,9.820777551931027,0.025542541502109783,stand
10/08/2020, 17:33:52,-2.7854078,-9.299861,0.87897223,0.025317404,-0.002545925,-0.0022290638,9.747743454977646,0.025542541502109783,stand
10/08/2020, 17:33:52,-2.7854078,-9.299861,0.87897223,0.039978165,0.002340995,-0.009559444,9.747743454977646,0.04117179764399998,stand
10/08/2020, 17:33:52,-2.7638526,-9.309442,0.95561284,0.039978165,0.002340995,-0.009559444,9.75795979445048,0.04117179764399998,stand
10/08/2020, 17:33:52,-2.7638526,-9.309442,0.95561284,0.021652214,0.003562725,0.0051013166,9.75795979445048,0.022528533485163916,stand
10/08/2020, 17:33:52,-2.8740237,-9.426797,0.8909473,0.021652214,0.003562725,0.0051013166,9.895367562214204,0.022528533485163916,stand
10/08/2020, 17:33:52,-2.8740237,-9.426797,0.8909473,-0.0052258465,-1.0246504E-4,0.018540345,9.895367562214204,0.019263031142885804,stand
10/08/2020, 17:33:52,-2.8452833,-9.381292,0.94603276,-0.0052258465,-1.0246504E-4,0.018540345,9.848820279662814,0.019263031142885804,stand
10/08/2020, 17:33:53,-2.8644435,-9.453142,0.90052736,-3.3892598E-4,-0.0037676552,0.009988236,9.918562553764898,0.010680587997247184,stand
10/08/2020, 17:33:53,-2.8668385,-9.407638,0.8669971,-3.3892598E-4,-0.0037676552,0.009988236,9.872896833210724,0.010680587997247184,stand
10/08/2020, 17:33:53,-2.8668385,-9.407638,0.8669971,0.014321834,-0.004989385,0.0014361264,9.872896833210724,0.01523388814301602,stand
10/08/2020, 17:33:53,-2.7686427,-9.414823,0.91250247,0.014321834,-0.004989385,0.0014361264,9.855806772529041,0.01523388814301602,stand
10/08/2020, 17:33:53,-2.7686427,-9.414823,0.91250247,0.026539136,-1.0246504E-4,-0.0010073337,9.855806772529041,0.026558443955846382,stand
10/08/2020, 17:33:53,-2.8692336,-9.503438,0.9388477,0.026539136,-1.0246504E-4,-0.0010073337,9.971422681008194,0.026558443955846382,stand
10/08/2020, 17:33:53,-2.8692336,-9.503438,0.9388477,0.013100104,-0.004989385,0.013653426,9.971422681008194,0.019568412118457758,stand
10/08/2020, 17:33:53,-2.7662477,-9.244776,0.88376224,0.013100104,-0.004989385,0.013653426,9.690151773039961,0.019568412118457758,stand
10/08/2020, 17:33:53,-2.7662477,-9.244776,0.88376224,0.016765293,-0.004989385,2.1439628E-4,9.690151773039961,0.01749328357640842,stand
10/08/2020, 17:33:53,-2.811753,-9.359736,0.9196875,0.016765293,-0.004989385,2.1439628E-4,9.816131952914544,0.01749328357640842,stand
10/08/2020, 17:33:53,-2.811753,-9.359736,0.9196875,0.014321834,-0.002545925,-0.0022290638,9.816131952914544,0.01471616066300989,stand
10/08/2020, 17:33:53,-2.8836036,-9.433982,1.0011182,0.014321834,-0.002545925,-0.0022290638,9.915514186644591,0.01471616066300989,stand
10/08/2020, 17:33:53,-2.8836036,-9.433982,1.0011182,-0.011334497,-1.0246504E-4,0.013653426,9.915514186644591,0.017745347684464088,stand
10/08/2020, 17:33:53,-2.8572583,-9.374106,0.97956306,-0.011334497,-1.0246504E-4,0.013653426,9.848722750829575,0.017745347684464088,stand
10/08/2020, 17:33:53,-2.8572583,-9.374106,0.97956306,-0.027216986,-0.0013241951,0.012431697,9.848722750829575,0.02995104171492081,stand
10/08/2020, 17:33:53,-2.823728,-9.407638,0.9627979,-0.027216986,-0.0013241951,0.012431697,9.869349785763365,0.02995104171492081,stand
10/08/2020, 17:33:53,-2.823728,-9.407638,0.9627979,-0.033325635,0.002340995,0.0026578563,9.869349785763365,0.033513316743534693,stand
10/08/2020, 17:33:53,-2.931504,-9.575289,0.8382569,-0.033325635,0.002340995,0.0026578563,10.049007188209748,0.033513316743534693,stand
10/08/2020, 17:33:53,-2.931504,-9.575289,0.8382569,-0.036990825,-0.004989385,0.006323046,10.049007188209748,0.037857575411461286,stand
10/08/2020, 17:33:53,-2.799778,-9.453142,0.81909674,-0.036990825,-0.004989385,0.006323046,9.893006269708872,0.037857575411461286,stand
10/08/2020, 17:33:53,-2.799778,-9.453142,0.81909674,-0.0027823867,-0.0037676552,-0.010781174,9.893006269708872,0.011754599351426902,stand
10/08/2020, 17:33:53,-2.8093581,-9.503438,0.87178713,-0.0027823867,-0.0037676552,-0.010781174,9.948258118375026,0.011754599351426902,stand
10/08/2020, 17:33:53,-2.8093581,-9.503438,0.87178713,0.022873946,-0.0037676552,-0.010781174,9.948258118375026,0.025566507667519934,stand
10/08/2020, 17:33:53,-2.8357031,-9.481883,0.852627,0.022873946,-0.0037676552,-0.010781174,9.933493403041314,0.025566507667519934,stand
10/08/2020, 17:33:53,-2.8357031,-9.481883,0.852627,0.031426053,-0.002545925,-0.0034507937,9.933493403041314,0.03171729102250353,stand
10/08/2020, 17:33:53,-2.7614577,-9.2256155,0.8669971,0.031426053,-0.002545925,-0.0034507937,9.668987222982592,0.03171729102250353,stand
10/08/2020, 17:33:53,-2.7614577,-9.2256155,0.8669971,0.055860657,0.003562725,-0.0046725236,9.668987222982592,0.056168839344812545,stand
10/08/2020, 17:33:53,-2.811753,-9.350157,0.9196875,0.055860657,0.003562725,-0.0046725236,9.806998120178879,0.056168839344812545,stand
10/08/2020, 17:33:53,-2.811753,-9.350157,0.9196875,0.054638926,0.002340995,0.0075447764,9.806998120178879,0.055207029776854856,stand
10/08/2020, 17:33:53,-2.8955786,-9.433982,0.91010743,0.054638926,0.002340995,0.0075447764,9.910231354796352,0.055207029776854856,stand
10/08/2020, 17:33:54,-2.818938,-9.410032,1.1256592,-0.0027823867,-0.002545925,0.0026578563,9.887478323905494,0.00461384988041741,stand
10/08/2020, 17:33:54,-2.8788135,-9.426797,0.95561284,-0.0027823867,-0.002545925,0.0026578563,9.902790674145614,0.00461384988041741,stand
10/08/2020, 17:33:54,-2.8788135,-9.426797,0.95561284,-0.008891036,-0.006211115,0.0075447764,9.902790674145614,0.013211817402430362,stand
10/08/2020, 17:33:54,-2.8213332,-9.383687,0.9532178,-0.008891036,-0.006211115,0.0075447764,9.844903611288247,0.013211817402430362,stand
10/08/2020, 17:33:54,-2.8213332,-9.383687,0.9532178,0.008213184,-0.002545925,-0.005894254,9.844903611288247,0.010424986962207339,stand
10/08/2020, 17:33:54,-2.806963,-9.539363,0.99393314,0.008213184,-0.002545925,-0.005894254,9.99331721032392,0.010424986962207339,stand
10/08/2020, 17:33:54,-2.806963,-9.539363,0.99393314,0.021652214,0.003562725,-0.0022290638,9.99331721032392,0.022056294229771702,stand
10/08/2020, 17:33:54,-2.806963,-9.453142,1.0106983,0.021652214,0.003562725,-0.0022290638,9.9127417499825,0.022056294229771702,stand
10/08/2020, 17:33:54,-2.806963,-9.453142,1.0106983,0.008213184,0.0011192651,0.0051013166,9.9127417499825,0.009733066029593486,stand
10/08/2020, 17:33:54,-2.7782228,-9.14179,0.98195803,0.008213184,0.0011192651,0.0051013166,9.604951589334085,0.009733066029593486,stand
10/08/2020, 17:33:54,-2.7782228,-9.14179,0.98195803,-0.0052258465,-0.002545925,-0.005894254,9.604951589334085,0.008278492400813915,stand
10/08/2020, 17:33:54,-2.7901978,-9.299861,1.0753639,-0.0052258465,-0.002545925,-0.005894254,9.768778084774,0.008278492400813915,stand
10/08/2020, 17:33:54,-2.7901978,-9.299861,1.0753639,-0.022330068,-1.0246504E-4,-0.007115984,9.768778084774,0.02343671616758014,stand
10/08/2020, 17:33:54,-2.8764186,-9.462723,1.0490186,-0.022330068,-1.0246504E-4,-0.007115984,9.945720001865952,0.02343671616758014,stand
10/08/2020, 17:33:54,-2.8764186,-9.462723,1.0490186,-0.045542937,-0.0037676552,0.006323046,9.945720001865952,0.04613388372043905,stand
10/08/2020, 17:33:54,-2.8404932,-9.417217,0.98914313,-0.045542937,-0.0037676552,0.006323046,9.885888255020232,0.04613388372043905,stand
10/08/2020, 17:33:54,-2.8404932,-9.417217,0.98914313,-0.033325635,-0.006211115,-0.0034507937,9.885888255020232,0.034074680753070026,stand
10/08/2020, 17:33:54,-2.8213332,-9.457932,0.974773,-0.033325635,-0.006211115,-0.0034507937,9.917791583138724,0.034074680753070026,stand
10/08/2020, 17:33:54,-2.8213332,-9.457932,0.974773,-0.027216986,-0.004989385,-0.0010073337,9.917791583138724,0.027688860622373614,stand
10/08/2020, 17:33:54,-2.9027638,-9.551338,0.9029224,-0.027216986,-0.004989385,-0.0010073337,10.023440931520673,0.027688860622373614,stand
10/08/2020, 17:33:54,-2.9027638,-9.551338,0.9029224,-0.024773527,-0.0037676552,-0.0022290638,10.023440931520673,0.025157336665973137,stand
10/08/2020, 17:33:54,-2.7901978,-9.433982,0.92926764,-0.024773527,-0.0037676552,-0.0022290638,9.881738551365036,0.025157336665973137,stand
10/08/2020, 17:33:54,-2.7901978,-9.433982,0.92926764,0.015543564,-0.0013241951,-0.014446364,9.881738551365036,0.021261545285065138,stand
10/08/2020, 17:33:54,-2.8309133,-9.496253,0.8933423,0.015543564,-0.0013241951,-0.014446364,9.949419678270909,0.021261545285065138,stand
10/08/2020, 17:33:54,-2.8309133,-9.496253,0.8933423,0.032647785,-0.004989385,-0.012002904,9.949419678270909,0.035140311894438496,stand
10/08/2020, 17:33:54,-2.7662477,-9.378897,0.92926764,0.032647785,-0.004989385,-0.012002904,9.8223911816029,0.035140311894438496,stand
10/08/2020, 17:33:54,-2.7662477,-9.378897,0.92926764,0.033869516,-0.002545925,-0.007115984,9.8223911816029,0.034702493889503166,stand
10/08/2020, 17:33:54,-2.7686427,-9.266331,0.9508228,0.033869516,-0.002545925,-0.007115984,9.71773281869455,0.034702493889503166,stand
10/08/2020, 17:33:54,-2.7686427,-9.266331,0.9508228,0.043643355,0.003562725,-0.005894254,9.71773281869455,0.044183455121899085,stand
10/08/2020, 17:33:54,-2.8309133,-9.400452,1.0562036,0.043643355,0.003562725,-0.005894254,9.874114016433236,0.044183455121899085,stand
10/08/2020, 17:33:55,-2.8141482,-9.4507475,0.98195803,0.013100104,-0.006211115,0.006323046,9.909606435995126,0.015816813742168347,stand
10/08/2020, 17:33:55,-2.7901978,-9.412427,1.0346485,0.013100104,-0.006211115,0.006323046,9.87165045452198,0.015816813742168347,stand
10/08/2020, 17:33:55,-2.7901978,-9.412427,1.0346485,0.017987024,-1.0246504E-4,0.006323046,9.87165045452198,0.01906631700743233,stand
10/08/2020, 17:33:55,-2.8716285,-9.524993,0.93405765,0.017987024,-1.0246504E-4,0.006323046,9.992207195259402,0.01906631700743233,stand
10/08/2020, 17:33:55,-2.8716285,-9.524993,0.93405765,0.011878374,-0.004989385,0.018540345,9.992207195259402,0.022577292383146527,stand
10/08/2020, 17:33:55,-2.802173,-9.366921,0.977168,0.011878374,-0.004989385,0.018540345,9.82579499497104,0.022577292383146527,stand
10/08/2020, 17:33:55,-2.802173,-9.366921,0.977168,0.022873946,-1.0246504E-4,0.0038795862,9.82579499497104,0.02320084206962966,stand
10/08/2020, 17:33:55,-2.7686427,-9.307046,0.99393314,0.022873946,-1.0246504E-4,0.0038795862,9.76086007253498,0.02320084206962966,stand
10/08/2020, 17:33:55,-2.7686427,-9.307046,0.99393314,0.016765293,0.003562725,0.0051013166,9.76086007253498,0.01788271457085391,stand
10/08/2020, 17:33:55,-2.811753,-9.369317,0.977168,0.016765293,0.003562725,0.0051013166,9.830814541341768,0.01788271457085391,stand
10/08/2020, 17:33:55,-2.811753,-9.369317,0.977168,-0.0052258465,-0.0013241951,0.013653426,9.830814541341768,0.014679203588139796,stand
10/08/2020, 17:33:55,-2.7758276,-9.251961,0.9268726,-0.0052258465,-0.0013241951,0.013653426,9.703766782012018,0.014679203588139796,stand
10/08/2020, 17:33:55,-2.7758276,-9.251961,0.9268726,8.8280346E-4,-0.002545925,0.0014361264,9.703766782012018,0.003053446512928172,stand
10/08/2020, 17:33:55,-2.7542725,-9.402847,1.0633887,8.8280346E-4,-0.002545925,0.0014361264,9.855473072731444,0.003053446512928172,stand
10/08/2020, 17:33:55,-2.7542725,-9.402847,1.0633887,-0.0052258465,0.002340995,2.1439628E-4,9.855473072731444,0.005730243929566005,stand
10/08/2020, 17:33:55,-2.8716285,-9.508228,0.9436377,-0.0052258465,0.002340995,2.1439628E-4,9.977129245398077,0.005730243929566005,stand
10/08/2020, 17:33:55,-2.8716285,-9.508228,0.9436377,-0.027216986,-1.0246504E-4,0.014875156,9.977129245398077,0.031016851525716514,stand
10/08/2020, 17:33:55,-2.802173,-9.321417,0.9532178,-0.027216986,-1.0246504E-4,0.014875156,9.780061826082399,0.031016851525716514,stand
10/08/2020, 17:33:55,-2.802173,-9.321417,0.9532178,-0.016221415,0.0011192651,0.0051013166,9.780061826082399,0.017041434747857218,stand
10/08/2020, 17:33:55,-2.7566676,-9.4507475,1.0035132,-0.016221415,0.0011192651,0.0051013166,9.895599184942004,0.017041434747857218,stand
10/08/2020, 17:33:55,-2.7566676,-9.4507475,1.0035132,-0.011334497,0.003562725,0.008766507,9.895599184942004,0.01476534667138449,stand
10/08/2020, 17:33:55,-2.8572583,-9.5561285,0.8885523,-0.011334497,0.003562725,0.008766507,10.01364280645422,0.01476534667138449,stand
10/08/2020, 17:33:55,-2.8572583,-9.5561285,0.8885523,-0.016221415,-1.0246504E-4,0.011209967,10.01364280645422,0.019718219071505654,stand
10/08/2020, 17:33:55,-2.7303224,-9.371712,0.97237796,-0.016221415,-1.0246504E-4,0.011209967,9.809646265398133,0.019718219071505654,stand
10/08/2020, 17:33:55,-2.7303224,-9.371712,0.97237796,0.009434914,0.002340995,-0.0046725236,9.809646265398133,0.01078565438806369,stand
10/08/2020, 17:33:55,-2.816543,-9.472302,0.9029224,0.009434914,0.002340995,-0.0046725236,9.923341037545848,0.01078565438806369,stand
10/08/2020, 17:33:55,-2.816543,-9.472302,0.9029224,0.011878374,-0.002545925,2.1439628E-4,9.923341037545848,0.012150039917147798,stand
10/08/2020, 17:33:55,-2.787803,-9.350157,0.9508228,0.011878374,-0.002545925,2.1439628E-4,9.803129144817277,0.012150039917147798,stand
10/08/2020, 17:33:55,-2.787803,-9.350157,0.9508228,0.013100104,-0.0013241951,0.0014361264,9.803129144817277,0.013244949494876203,stand
10/08/2020, 17:33:55,-2.8285182,-9.278306,0.98195803,0.013100104,-0.0013241951,0.0014361264,9.749447106382272,0.013244949494876203,stand
10/08/2020, 17:33:56,-2.9027638,-9.484278,0.90771246,0.008213184,-0.004989385,0.012431697,9.959995171167968,0.015712970531283784,stand
10/08/2020, 17:33:56,-2.8524685,-9.441168,0.9580079,0.008213184,-0.004989385,0.012431697,9.90908702121141,0.015712970531283784,stand
10/08/2020, 17:33:56,-2.8524685,-9.441168,0.9580079,0.011878374,-0.004989385,0.0038795862,9.90908702121141,0.01345514485539952,stand
10/08/2020, 17:33:56,-2.816543,-9.405242,1.0418335,0.011878374,-0.004989385,0.0038795862,9.873039480010139,0.01345514485539952,stand
10/08/2020, 17:33:56,-2.816543,-9.405242,1.0418335,0.017987024,-1.0246504E-4,0.0026578563,9.873039480010139,0.018182621733893393,stand
10/08/2020, 17:33:56,-2.8836036,-9.426797,0.9627979,0.017987024,-1.0246504E-4,0.0026578563,9.904880078280074,0.018182621733893393,stand
10/08/2020, 17:33:56,-2.8836036,-9.426797,0.9627979,0.014321834,-1.0246504E-4,0.0038795862,9.904880078280074,0.0148383494107004,stand
10/08/2020, 17:33:56,-2.8500733,-9.311836,0.977168,0.014321834,-1.0246504E-4,0.0038795862,9.78713796705509,0.0148383494107004,stand
10/08/2020, 17:33:56,-2.8500733,-9.311836,0.977168,0.021652214,0.003562725,-0.005894254,9.78713796705509,0.02272121518796081,stand
10/08/2020, 17:33:56,-2.8428884,-9.381292,1.0609937,0.021652214,0.003562725,-0.005894254,9.859836093905578,0.02272121518796081,stand
10/08/2020, 17:33:56,-2.8428884,-9.381292,1.0609937,0.016765293,0.0072279153,0.0038795862,9.859836093905578,0.018664645454876474,stand
10/08/2020, 17:33:56,-2.8524685,-9.390872,1.0274634,0.016765293,0.0072279153,0.0038795862,9.868167740456272,0.018664645454876474,stand
10/08/2020, 17:33:56,-2.8524685,-9.390872,1.0274634,-0.0052258465,0.002340995,0.013653426,9.868167740456272,0.014805599718975852,stand
10/08/2020, 17:33:56,-2.8452833,-9.237591,0.9196875,-0.0052258465,0.002340995,0.013653426,9.70950799993354,0.014805599718975852,stand
10/08/2020, 17:33:56,-2.8452833,-9.237591,0.9196875,-0.0052258465,-1.0246504E-4,-0.0046725236,9.70950799993354,0.007010880676846195,stand
10/08/2020, 17:33:56,-2.8764186,-9.390872,1.0466236,-0.0052258465,-1.0246504E-4,-0.0046725236,9.877129228349204,0.007010880676846195,stand
10/08/2020, 17:33:56,-2.8764186,-9.390872,1.0466236,-0.017443147,-1.0246504E-4,-0.0010073337,9.877129228349204,0.01747250932631805,stand
10/08/2020, 17:33:56,-2.8572583,-9.532178,1.0130934,-0.017443147,-1.0246504E-4,-0.0010073337,10.00263461508224,0.01747250932631805,stand
10/08/2020, 17:33:56,-2.8572583,-9.532178,1.0130934,-0.028438717,-0.0013241951,0.012431697,10.00263461508224,0.03106543439918049,stand
10/08/2020, 17:33:56,-2.804568,-9.321417,1.0106983,-0.028438717,-0.0013241951,0.012431697,9.7865175232539,0.03106543439918049,stand
10/08/2020, 17:33:56,-2.804568,-9.321417,1.0106983,-0.011334497,-1.0246504E-4,-0.0022290638,9.7865175232539,0.011552057670851277,stand
10/08/2020, 17:33:56,-2.8309133,-9.436378,1.0250684,-0.011334497,-1.0246504E-4,-0.0022290638,9.905052052964965,0.011552057670851277,stand
10/08/2020, 17:33:56,-2.8309133,-9.436378,1.0250684,-0.013777957,0.0011192651,-0.0022290638,9.905052052964965,0.014001913689346062,stand
10/08/2020, 17:33:56,-2.8428884,-9.491463,0.9627979,-0.013777957,0.0011192651,-0.0022290638,9.954740493189378,0.014001913689346062,stand
10/08/2020, 17:33:56,-2.8428884,-9.491463,0.9627979,-0.0076693064,-1.0246504E-4,0.0026578563,9.954740493189378,0.008117447836825494,stand
10/08/2020, 17:33:56,-2.804568,-9.371712,0.94603276,-0.0076693064,-1.0246504E-4,0.0026578563,9.827998815418589,0.008117447836825494,stand
10/08/2020, 17:33:56,-2.804568,-9.371712,0.94603276,0.024095673,-0.0037676552,-0.005894254,9.827998815418589,0.025090614152015748,stand
10/08/2020, 17:33:56,-2.806963,-9.419612,0.92926764,0.024095673,-0.0037676552,-0.005894254,9.87277409754916,0.025090614152015748,stand
10/08/2020, 17:33:56,-2.806963,-9.419612,0.92926764,0.025317404,-0.0037676552,-0.0034507937,9.87277409754916,0.025827779027341853,stand
10/08/2020, 17:33:56,-2.7758276,-9.366921,1.0202783,0.025317404,-0.0037676552,-0.0034507937,9.822698406314576,0.025827779027341853,stand
10/08/2020, 17:33:57,-2.7303224,-9.328602,0.9388477,0.021652214,0.003562725,0.0038795862,9.765188552899822,0.0222836841479253,stand
10/08/2020, 17:33:57,-2.8883936,-9.453142,0.90052736,0.021652214,0.003562725,0.0038795862,9.925505738167809,0.0222836841479253,stand
10/08/2020, 17:33:57,-2.8883936,-9.453142,0.90052736,0.0033262637,-0.002545925,0.0038795862,9.925505738167809,0.005709374257651816,stand
10/08/2020, 17:33:57,-2.8333082,-9.366921,0.97956306,0.0033262637,-0.002545925,0.0038795862,9.834957866309514,0.005709374257651816,stand
10/08/2020, 17:33:57,-2.8333082,-9.366921,0.97956306,-0.0076693064,0.0011192651,-0.0034507937,9.834957866309514,0.008484043342121647,stand
10/08/2020, 17:33:57,-2.799778,-9.422008,1.0873389,-0.0076693064,0.0011192651,-0.0034507937,9.889150073395772,0.008484043342121647,stand
10/08/2020, 17:33:57,-2.799778,-9.422008,1.0873389,-0.0027823867,0.0011192651,0.0026578563,9.889150073395772,0.004007322113173659,stand
10/08/2020, 17:33:57,-2.9051588,-9.491463,0.9436377,-0.0027823867,0.0011192651,0.0026578563,9.970870769465279,0.004007322113173659,stand
10/08/2020, 17:33:57,-2.9051588,-9.491463,0.9436377,-0.013777957,-1.0246504E-4,0.0075447764,9.970870769465279,0.015708795551728945,stand
10/08/2020, 17:33:57,-2.8213332,-9.342972,0.95561284,-0.013777957,-1.0246504E-4,0.0075447764,9.806336667731344,0.015708795551728945,stand
10/08/2020, 17:33:57,-2.8213332,-9.342972,0.95561284,-0.004004116,0.0011192651,-0.005894254,9.806336667731344,0.007213038918048554,stand
10/08/2020, 17:33:57,-2.7399025,-9.388477,1.0106983,-0.004004116,0.0011192651,-0.005894254,9.832196258756767,0.007213038918048554,stand
10/08/2020, 17:33:57,-2.7399025,-9.388477,1.0106983,-0.004004116,0.0011192651,0.0038795862,9.832196258756767,0.0056865534394885614,stand
10/08/2020, 17:33:57,-2.8644435,-9.460327,0.8646021,-0.004004116,0.0011192651,0.0038795862,9.922215645951953,0.0056865534394885614,stand
10/08/2020, 17:33:57,-2.8644435,-9.460327,0.8646021,-0.0076693064,-0.002545925,0.011209967,9.922215645951953,0.01381894880649772,stand
10/08/2020, 17:33:57,-2.7662477,-9.223221,0.9316626,-0.0076693064,-0.002545925,0.011209967,9.674085188628242,0.01381894880649772,stand
10/08/2020, 17:33:57,-2.7662477,-9.223221,0.9316626,0.005769724,-0.0013241951,-0.009559444,9.674085188628242,0.011243939718944251,stand
10/08/2020, 17:33:57,-2.7854078,-9.393267,1.0322535,0.005769724,-0.0013241951,-0.009559444,9.851776625930858,0.011243939718944251,stand
10/08/2020, 17:33:57,-2.7854078,-9.393267,1.0322535,-0.006447577,0.003562725,-0.0010073337,9.851776625930858,0.007434983403935779,stand
10/08/2020, 17:33:57,-2.806963,-9.467513,0.99393314,-0.006447577,0.003562725,-0.0010073337,9.924754313855736,0.007434983403935779,stand
10/08/2020, 17:33:57,-2.806963,-9.467513,0.99393314,-0.019886605,0.003562725,0.013653426,9.924754313855736,0.024384137018308747,stand
10/08/2020, 17:33:57,-2.8261232,-9.342972,0.9436377,-0.019886605,0.003562725,0.013653426,9.806556317362858,0.024384137018308747,stand
10/08/2020, 17:33:57,-2.8261232,-9.342972,0.9436377,-0.010112767,0.003562725,0.0051013166,9.806556317362858,0.011873689340104262,stand
10/08/2020, 17:33:57,-2.8093581,-9.553733,0.9412427,-0.010112767,0.003562725,0.0051013166,10.002611791254276,0.011873689340104262,stand
10/08/2020, 17:33:57,-2.8093581,-9.553733,0.9412427,-0.012556226,0.002340995,0.0051013166,10.002611791254276,0.013753635881062546,stand
10/08/2020, 17:33:57,-2.8548634,-9.534574,0.9508228,-0.012556226,0.002340995,0.0051013166,9.998119917222274,0.013753635881062546,stand
10/08/2020, 17:33:57,-2.8548634,-9.534574,0.9508228,-0.014999687,-1.0246504E-4,0.009988236,9.998119917222274,0.01802126423422608,stand
10/08/2020, 17:33:57,-2.7662477,-9.3453665,0.91010743,-0.014999687,-1.0246504E-4,0.009988236,9.788579915350981,0.01802126423422608,stand
10/08/2020, 17:33:57,-2.7662477,-9.3453665,0.91010743,0.010656644,-1.0246504E-4,-0.009559444,9.788579915350981,0.014316337717748772,stand
10/08/2020, 17:33:57,-2.8213332,-9.445957,0.9532178,0.010656644,-1.0246504E-4,-0.009559444,9.904274438714436,0.014316337717748772,stand
10/08/2020, 17:33:58,-2.7159522,-9.266331,0.977168,0.009434914,0.006006185,-0.009559444,9.705469512831355,0.01471308385760154,stand
10/08/2020, 17:33:58,-2.7566676,-9.400452,0.9388477,0.009434914,0.006006185,-0.009559444,9.84119620734375,0.01471308385760154,stand
10/08/2020, 17:33:58,-2.7566676,-9.400452,0.9388477,0.020430483,0.0047844555,0.008766507,9.84119620734375,0.022740872643921904,stand
10/08/2020, 17:33:58,-2.8404932,-9.477093,0.8933423,0.020430483,0.0047844555,0.008766507,9.933868782278589,0.022740872643921904,stand
10/08/2020, 17:33:58,-2.8404932,-9.477093,0.8933423,0.0033262637,-0.004989385,0.012431697,9.933868782278589,0.01380235793557973,stand
10/08/2020, 17:33:58,-2.8357031,-9.364527,1.0059083,0.0033262637,-0.004989385,0.012431697,9.83602688602381,0.01380235793557973,stand
10/08/2020, 17:33:58,-2.8357031,-9.364527,1.0059083,-0.004004116,-0.0013241951,2.1439628E-4,9.83602688602381,0.004222843193760927,stand
10/08/2020, 17:33:58,-2.802173,-9.431587,0.98914313,-0.004004116,-0.0013241951,2.1439628E-4,9.888650796203356,0.004222843193760927,stand
10/08/2020, 17:33:58,-2.802173,-9.431587,0.98914313,-0.0076693064,-0.0013241951,2.1439628E-4,9.888650796203356,0.007785738139813489,stand
10/08/2020, 17:33:58,-2.823728,-9.489068,0.9436377,-0.0076693064,-0.0013241951,2.1439628E-4,9.945164883571064,0.007785738139813489,stand
10/08/2020, 17:33:58,-2.823728,-9.489068,0.9436377,-0.006447577,-0.0074328454,0.006323046,9.945164883571064,0.011696125449348081,stand
10/08/2020, 17:33:58,-2.7758276,-9.340576,0.9268726,-0.006447577,-0.0074328454,0.006323046,9.78829276132576,0.011696125449348081,stand
10/08/2020, 17:33:58,-2.7758276,-9.340576,0.9268726,0.017987024,0.003562725,-0.010781174,9.78829276132576,0.021271101209856577,stand
10/08/2020, 17:33:58,-2.7782228,-9.376502,0.9867481,0.017987024,0.003562725,-0.010781174,9.829088675195376,0.021271101209856577,stand
10/08/2020, 17:33:58,-2.7782228,-9.376502,0.9867481,0.0045479937,0.0072279153,0.0014361264,9.829088675195376,0.00865964580703402,stand
10/08/2020, 17:33:58,-2.8572583,-9.333391,0.9268726,0.0045479937,0.0072279153,0.0014361264,9.804856400841672,0.00865964580703402,stand
10/08/2020, 17:33:58,-2.8572583,-9.333391,0.9268726,-0.0076693064,0.0011192651,0.0014361264,9.804856400841672,0.007882478893094876,stand
10/08/2020, 17:33:58,-2.7710378,-9.2328005,0.9268726,-0.0076693064,0.0011192651,0.0014361264,9.68412867491114,0.007882478893094876,stand
10/08/2020, 17:33:58,-2.7710378,-9.2328005,0.9268726,8.8280346E-4,0.003562725,-0.009559444,9.68412867491114,0.010239888831135776,stand
10/08/2020, 17:33:58,-2.8357031,-9.491463,0.9508228,8.8280346E-4,0.003562725,-0.009559444,9.951539606339237,0.010239888831135776,stand
10/08/2020, 17:33:58,-2.8357031,-9.491463,0.9508228,-0.014999687,0.002340995,0.006323046,9.951539606339237,0.016445417942363157,stand
10/08/2020, 17:33:58,-2.8500733,-9.448353,0.9699829,-0.014999687,0.002340995,0.006323046,9.916408411875079,0.016445417942363157,stand
10/08/2020, 17:33:58,-2.8500733,-9.448353,0.9699829,-0.025995255,-1.0246504E-4,0.012431697,9.916408411875079,0.028815114896264656,stand
10/08/2020, 17:33:58,-2.8452833,-9.364527,0.9196875,-0.025995255,-1.0246504E-4,0.012431697,9.830352141575913,0.028815114896264656,stand
10/08/2020, 17:33:58,-2.8452833,-9.364527,0.9196875,-0.013777957,-1.0246504E-4,-0.0022290638,9.830352141575913,0.01395748299961244,stand
10/08/2020, 17:33:58,-2.8428884,-9.520203,0.9412427,-0.013777957,-1.0246504E-4,-0.0022290638,9.980090693738672,0.01395748299961244,stand
10/08/2020, 17:33:58,-2.8428884,-9.520203,0.9412427,-0.016221415,0.0011192651,-0.0010073337,9.980090693738672,0.01629115675461701,stand
10/08/2020, 17:33:58,-2.818938,-9.508228,0.91729254,-0.016221415,0.0011192651,-0.0010073337,9.959630644827815,0.01629115675461701,stand
10/08/2020, 17:33:58,-2.818938,-9.508228,0.91729254,-0.006447577,0.002340995,-0.0034507937,9.959630644827815,0.00767850784712778,stand
10/08/2020, 17:33:58,-2.7422974,-9.364527,0.93405765,-0.006447577,0.002340995,-0.0034507937,9.802398686828486,0.00767850784712778,stand
10/08/2020, 17:33:59,-2.8500733,-9.498648,0.9244776,0.009434914,0.002340995,-0.0034507937,9.960014294945305,0.010315320689123268,stand
10/08/2020, 17:33:59,-2.8500733,-9.498648,0.9244776,-0.0015606564,0.002340995,-0.0010073337,9.960014294945305,0.002988415493349876,stand
10/08/2020, 17:33:59,-2.7806177,-9.314231,0.96040285,-0.0015606564,0.002340995,-0.0010073337,9.767758499705153,0.002988415493349876,stand
10/08/2020, 17:33:59,-2.7806177,-9.314231,0.96040285,0.0045479937,0.0011192651,2.1439628E-4,9.767758499705153,0.0046885996194190585,stand
10/08/2020, 17:33:59,-2.7710378,-9.359736,0.9364527,0.0045479937,0.0011192651,2.1439628E-4,9.806133819815942,0.0046885996194190585,stand
10/08/2020, 17:33:59,-2.7710378,-9.359736,0.9364527,0.016765293,-1.0246504E-4,0.0038795862,9.806133819815942,0.01720862367798855,stand
10/08/2020, 17:33:59,-2.8788135,-9.505833,0.9651929,0.016765293,-1.0246504E-4,0.0038795862,9.978978873068426,0.01720862367798855,stand
10/08/2020, 17:33:59,-2.8788135,-9.505833,0.9651929,-3.3892598E-4,-0.006211115,0.0075447764,9.978978873068426,0.00977836756574828,stand
10/08/2020, 17:33:59,-2.811753,-9.395662,1.0106983,-3.3892598E-4,-0.006211115,0.0075447764,9.85930709632218,0.00977836756574828,stand
10/08/2020, 17:33:59,-2.811753,-9.395662,1.0106983,-3.3892598E-4,-0.004989385,-0.005894254,9.85930709632218,0.0077298812832210856,stand
10/08/2020, 17:33:59,-2.7518775,-9.424402,1.0154883,-3.3892598E-4,-0.004989385,-0.005894254,9.870329476456254,0.0077298812832210856,stand
10/08/2020, 17:33:59,-2.7518775,-9.424402,1.0154883,0.005769724,-0.0037676552,-0.0034507937,9.870329476456254,0.007706680108880692,stand
10/08/2020, 17:33:59,-2.8620484,-9.462723,0.90771246,0.005769724,-0.0037676552,-0.0034507937,9.927657591856136,0.007706680108880692,stand
10/08/2020, 17:33:59,-2.8620484,-9.462723,0.90771246,0.0033262637,-0.004989385,2.1439628E-4,9.927657591856136,0.006000330018276163,stand
10/08/2020, 17:33:59,-2.7231374,-9.302257,0.98435307,0.0033262637,-0.004989385,2.1439628E-4,9.742505103845785,0.006000330018276163,stand
10/08/2020, 17:33:59,-2.7231374,-9.302257,0.98435307,0.020430483,0.006006185,-0.010781174,9.742505103845785,0.023868652966094042,stand
10/08/2020, 17:33:59,-2.8261232,-9.433982,1.0059083,0.020430483,0.006006185,-0.010781174,9.899436265102224,0.023868652966094042,stand
10/08/2020, 17:33:59,-2.8261232,-9.433982,1.0059083,0.008213184,0.0011192651,0.011209967,9.899436265102224,0.013941753645157663,stand
10/08/2020, 17:33:59,-2.818938,-9.364527,0.90771246,0.008213184,0.0011192651,0.011209967,9.821645212419396,0.013941753645157663,stand
10/08/2020, 17:33:59,-2.818938,-9.364527,0.90771246,0.0021045338,-1.0246504E-4,0.014875156,9.821645212419396,0.015023642168805912,stand
10/08/2020, 17:33:59,-2.8333082,-9.216036,0.8981324,0.0021045338,-1.0246504E-4,0.014875156,9.683470137580573,0.015023642168805912,stand
10/08/2020, 17:33:59,-2.8333082,-9.216036,0.8981324,0.0033262637,-0.0037676552,-0.0010073337,9.683470137580573,0.0051258148342869575,stand
10/08/2020, 17:33:59,-2.8093581,-9.412427,0.98195803,0.0033262637,-0.0037676552,-0.0010073337,9.871702775300832,0.0051258148342869575,stand
10/08/2020, 17:33:59,-2.8093581,-9.412427,0.98195803,-0.012556226,-0.0013241951,0.0026578563,9.871702775300832,0.01290257741712529,stand
