DATE,TIME,ax,ay,az,gx,gy,gz,ma,mg,label
20/08/2020, 09:12:07,0.0071850587,2.4956105,9.884246,0.121432066,0.21321948,0.01416616,10.194431800678196,0.24578236883292143,stand
20/08/2020, 09:12:07,-0.026345216,2.4093897,9.817185,0.121432066,0.21321948,0.01416616,10.10855984686205,0.24578236883292143,stand
20/08/2020, 09:12:07,-0.026345216,2.4093897,9.817185,0.07134114,0.2669756,0.02882692,10.10855984686205,0.2778426299063256,stand
20/08/2020, 09:12:07,-0.08861572,2.3327491,9.807606,0.07134114,0.2669756,0.02882692,10.081602137570552,0.2778426299063256,stand
20/08/2020, 09:12:07,-0.08861572,2.3327491,9.807606,0.072562866,0.27797118,0.045931138,10.081602137570552,0.2909347262157283,stand
20/08/2020, 09:12:07,-0.23231691,2.3758595,9.72378,0.072562866,0.27797118,0.045931138,10.012520698560943,0.2909347262157283,stand
20/08/2020, 09:12:07,-0.23231691,2.3758595,9.72378,0.1226538,0.2547583,0.06425709,10.012520698560943,0.28995640803126854,stand
20/08/2020, 09:12:07,-0.39996827,2.4261549,9.589659,0.1226538,0.2547583,0.06425709,9.899886700123533,0.28995640803126854,stand
20/08/2020, 09:12:07,-0.39996827,2.4261549,9.589659,0.17396647,0.22788024,0.10090899,9.899886700123533,0.3039347940331379,stand
20/08/2020, 09:12:07,-0.5364844,2.4045997,9.4435625,0.17396647,0.22788024,0.10090899,9.75965101452499,0.3039347940331379,stand
20/08/2020, 09:12:07,-0.5364844,2.4045997,9.4435625,0.19717932,0.19122833,0.15710858,9.75965101452499,0.316434925154829,stand
20/08/2020, 09:12:07,-0.5484595,2.42376,9.271121,0.19717932,0.19122833,0.15710858,9.598390755012376,0.316434925154829,stand
20/08/2020, 09:12:07,-0.5484595,2.42376,9.271121,0.18984896,0.13747221,0.2035343,9.598390755012376,0.31043107111267326,stand
20/08/2020, 09:12:07,-0.5029541,2.3064039,9.139395,0.18984896,0.13747221,0.2035343,9.439332511889832,0.31043107111267326,stand
20/08/2020, 09:12:07,-0.5029541,2.3064039,9.139395,0.16419262,0.07516399,0.24996006,9.439332511889832,0.3083648406157066,stand
20/08/2020, 09:12:07,-0.36883304,2.2417383,9.108259,0.16419262,0.07516399,0.24996006,9.387321991603283,0.3083648406157066,stand
20/08/2020, 09:12:07,-0.36883304,2.2417383,9.108259,0.14586666,0.037290357,0.3208204,9.387321991603283,0.35439155927427524,stand
20/08/2020, 09:12:07,-0.100590825,2.0142114,9.096285,0.14586666,0.037290357,0.3208204,9.317165046992516,0.35439155927427524,stand
20/08/2020, 09:12:07,-0.100590825,2.0142114,9.096285,0.14464495,0.0837161,0.47842357,9.317165046992516,0.5067737702703473,stand
20/08/2020, 09:12:07,0.38080812,1.9327809,9.302257,0.14464495,0.0837161,0.47842357,9.50855584398033,0.5067737702703473,stand
20/08/2020, 09:12:07,0.38080812,1.9327809,9.302257,0.2118401,0.19245006,0.6311399,9.50855584398033,0.6930012931730313,stand
20/08/2020, 09:12:07,0.4023633,1.5328126,9.623189,0.2118401,0.19245006,0.6311399,9.752803529134225,0.6930012931730313,stand
20/08/2020, 09:12:07,0.4023633,1.5328126,9.623189,0.171523,0.29629713,0.8021821,9.752803529134225,0.8721858855859859,stand
20/08/2020, 09:12:07,0.9532178,1.2046949,11.797867,0.171523,0.29629713,0.8021821,11.897460881989003,0.8721858855859859,stand
20/08/2020, 09:12:07,0.9532178,1.2046949,11.797867,0.023693666,0.73856336,1.0734061,11.897460881989003,1.303164563991613,stand
20/08/2020, 09:12:07,-1.4202466,0.82388675,9.465117,0.023693666,0.73856336,1.0734061,9.606473765972012,1.303164563991613,stand
20/08/2020, 09:12:07,-1.4202466,0.82388675,9.465117,-0.3904728,0.8876144,1.3568475,9.606473765972012,1.6677420624526123,stand
20/08/2020, 09:12:07,1.9447559,1.0825489,14.695841,-0.3904728,0.8876144,1.3568475,14.863435856094975,1.6677420624526123,stand
20/08/2020, 09:12:07,1.9447559,1.0825489,14.695841,-0.6726925,1.1453996,1.571872,14.863435856094975,2.0579691244418656,stand
20/08/2020, 09:12:07,3.7506008,1.6429834,16.55677,-0.6726925,1.1453996,1.571872,17.055586903713216,2.0579691244418656,stand
20/08/2020, 09:12:08,0.46702883,2.0453467,7.9347,-2.2206242,0.09837686,2.7789412,8.207376163102131,3.558562044187758,stand
20/08/2020, 09:12:08,-4.7780643,1.0777588,16.266973,-2.2206242,0.09837686,2.7789412,16.988404536516352,3.558562044187758,stand
20/08/2020, 09:12:08,-4.7780643,1.0777588,16.266973,-1.331205,0.70068973,2.2988014,16.988404536516352,2.7472824499967374,stand
20/08/2020, 09:12:08,-8.260423,-0.6490503,3.8368216,-1.331205,0.70068973,2.2988014,9.131103396138041,2.7472824499967374,stand
20/08/2020, 09:12:08,-8.260423,-0.6490503,3.8368216,-0.6458144,0.8973883,1.4570293,9.131103396138041,1.8290206376474782,stand
20/08/2020, 09:12:08,-1.3268409,-0.119750984,3.5709743,-0.6458144,0.8973883,1.4570293,3.8113914546590584,1.8290206376474782,stand
20/08/2020, 09:12:08,-1.3268409,-0.119750984,3.5709743,-0.094814144,0.5027695,0.45276722,3.8113914546590584,0.6832020348537687,stand
20/08/2020, 09:12:08,0.06945557,-0.17244141,19.828367,-0.094814144,0.5027695,0.45276722,19.82923869575639,0.6832020348537687,stand
20/08/2020, 09:12:08,0.06945557,-0.17244141,19.828367,0.9216652,0.29751885,-0.44276088,19.82923869575639,1.0649044052435717,stand
20/08/2020, 09:12:08,-6.586304,-2.8428884,17.866846,0.9216652,0.29751885,-0.44276088,19.253197294603854,1.0649044052435717,stand
20/08/2020, 09:12:08,-6.586304,-2.8428884,17.866846,1.1684546,1.1588386,-0.709098,19.253197294603854,1.7919300151746786,stand
20/08/2020, 09:12:08,-6.5072684,-3.3554225,6.2917166,1.1684546,1.1588386,-0.709098,9.65345016066565,1.7919300151746786,stand
20/08/2020, 09:12:08,-6.5072684,-3.3554225,6.2917166,1.4030268,1.8149076,-0.4561999,9.65345016066565,2.3389082998701256,stand
20/08/2020, 09:12:08,1.0154883,-0.026345216,9.352551,1.4030268,1.8149076,-0.4561999,9.40755703185587,2.3389082998701256,stand
20/08/2020, 09:12:08,-0.43110353,1.6070582,18.920654,1.4030268,1.8149076,-0.4561999,18.99367382122029,2.3389082998701256,stand
20/08/2020, 09:12:08,-5.49178,0.8262818,11.429033,1.4030268,1.8149076,-0.4561999,12.706895321439806,2.3389082998701256,stand
20/08/2020, 09:12:08,-5.49178,0.8262818,11.429033,1.6925769,1.9920584,-0.17031507,12.706895321439806,2.6195649239041483,stand
20/08/2020, 09:12:08,-5.49178,0.8262818,11.429033,1.5569649,2.8020654,-0.123889334,12.706895321439806,3.2079679765366618,stand
20/08/2020, 09:12:08,-5.49178,0.8262818,11.429033,1.8843884,3.3041964,-0.17642373,12.706895321439806,3.807854871295059,stand
20/08/2020, 09:12:08,-3.0871804,0.99393314,-0.34488282,1.8843884,3.3041964,-0.17642373,3.2615226383315123,3.807854871295059,stand
20/08/2020, 09:12:08,-3.0871804,0.99393314,-0.34488282,1.7451112,3.084285,-0.30837056,3.2615226383315123,3.5571505010270577,stand
20/08/2020, 09:12:08,2.1411476,2.936294,4.878655,1.7451112,3.084285,-0.30837056,6.083388053374584,3.5571505010270577,stand
20/08/2020, 09:12:08,2.1411476,2.936294,4.878655,1.4299049,2.5064068,-0.50384736,6.083388053374584,2.929260190039416,stand
20/08/2020, 09:12:08,-3.8823268,2.9410841,14.6671,1.4299049,2.5064068,-0.50384736,15.454651684276762,2.929260190039416,stand
20/08/2020, 09:12:08,-3.8823268,2.9410841,14.6671,1.1611243,1.9554065,-0.6797765,15.454651684276762,2.3735881259096514,stand
20/08/2020, 09:12:08,-9.798025,1.0562036,5.1852174,1.1611243,1.9554065,-0.6797765,11.135678776256789,2.3735881259096514,stand
20/08/2020, 09:12:08,-9.798025,1.0562036,5.1852174,-0.010514775,1.6585262,-0.53316885,11.135678776256789,1.7421505912384394,stand
20/08/2020, 09:12:08,-4.631968,0.45984375,-5.7073317,-0.010514775,1.6585262,-0.53316885,7.364795901970115,1.7421505912384394,stand
20/08/2020, 09:12:08,-4.631968,0.45984375,-5.7073317,-0.63359714,0.5601908,-0.0737984,7.364795901970115,0.848943616121665,stand
20/08/2020, 09:12:08,0.31135255,1.8130299,5.6977515,-0.63359714,0.5601908,-0.0737984,5.987352518697309,0.848943616121665,stand
20/08/2020, 09:12:09,-0.48618898,0.9388477,10.521321,0.6052371,2.7153225,-0.5759294,10.57430927262051,2.840947536629115,stand
20/08/2020, 09:12:09,-1.4346168,1.4298267,9.105865,0.6052371,2.7153225,-0.5759294,9.328413510115379,2.840947536629115,stand
20/08/2020, 09:12:09,-1.4346168,1.4298267,9.105865,0.9070045,2.1325574,-0.69077206,9.328413510115379,2.418186135016317,stand
20/08/2020, 09:12:09,-2.929109,1.7172291,7.8700347,0.9070045,2.1325574,-0.69077206,8.571231070992424,2.418186135016317,stand
20/08/2020, 09:12:09,-2.929109,1.7172291,7.8700347,0.9375477,1.2235903,-0.7249805,8.571231070992424,1.703456913991455,stand
20/08/2020, 09:12:09,-3.647615,1.3939015,6.631809,0.9375477,1.2235903,-0.7249805,7.6960346862203295,1.703456913991455,stand
20/08/2020, 09:12:09,-3.647615,1.3939015,6.631809,0.569807,0.20466736,-0.80927986,7.6960346862203295,1.010694131600699,stand
20/08/2020, 09:12:09,-2.4141798,1.5376027,6.7731156,0.569807,0.20466736,-0.80927986,7.353066127096997,1.010694131600699,stand
20/08/2020, 09:12:09,-2.4141798,1.5376027,6.7731156,0.013919826,-0.56990945,-0.87769675,7.353066127096997,1.0465859429812014,stand
20/08/2020, 09:12:09,-0.98195803,1.5184424,7.683223,0.013919826,-0.56990945,-0.87769675,7.893150259489377,1.0465859429812014,stand
20/08/2020, 09:12:09,-0.98195803,1.5184424,7.683223,-0.7301138,-1.0451624,-1.0511824,7.893150259489377,1.6523967766240846,stand
20/08/2020, 09:12:09,-0.17962648,1.4729371,8.320298,-0.7301138,-1.0451624,-1.0511824,8.451578044688919,1.6523967766240846,stand
20/08/2020, 09:12:09,-0.17962648,1.4729371,8.320298,-1.4839212,-1.2418609,-1.2637634,8.451578044688919,2.311133586058917,stand
20/08/2020, 09:12:09,0.7232959,1.5256275,8.698711,-1.4839212,-1.2418609,-1.2637634,8.861053898165295,2.311133586058917,stand
20/08/2020, 09:12:09,0.7232959,1.5256275,8.698711,-1.9457351,-1.1526747,-1.5704176,8.861053898165295,2.753317189493002,stand
20/08/2020, 09:12:09,1.2310401,1.5998731,9.201666,-1.9457351,-1.1526747,-1.5704176,9.42049407092321,2.753317189493002,stand
20/08/2020, 09:12:09,1.2310401,1.5998731,9.201666,-2.0947862,-0.8900027,-1.9051716,9.42049407092321,2.968149742067063,stand
20/08/2020, 09:12:09,1.3507911,1.341211,9.613608,-2.0947862,-0.8900027,-1.9051716,9.800252503622609,2.968149742067063,stand
20/08/2020, 09:12:09,1.3507911,1.341211,9.613608,-2.0703516,-0.57357466,-2.161735,9.800252503622609,3.047694555509774,stand
20/08/2020, 09:12:09,1.1472144,0.91010743,10.013577,-2.0703516,-0.57357466,-2.161735,10.120085475036253,3.047694555509774,stand
20/08/2020, 09:12:09,1.1472144,0.91010743,10.013577,-1.896866,-0.4171932,-2.2851298,10.120085475036253,2.998994630120401,stand
20/08/2020, 09:12:09,0.62510014,0.4263135,10.942844,-1.896866,-0.4171932,-2.2851298,10.968971544043532,2.998994630120401,stand
20/08/2020, 09:12:09,0.62510014,0.4263135,10.942844,-1.4961385,-0.5112664,-2.2631385,10.968971544043532,2.7607280982122457,stand
20/08/2020, 09:12:09,0.18681154,-0.07903565,11.630216,-1.4961385,-0.5112664,-2.2631385,11.631984402032044,2.7607280982122457,stand
20/08/2020, 09:12:09,0.18681154,-0.07903565,11.630216,-0.9830119,-0.81059027,-2.1470742,11.631984402032044,2.496657104350343,stand
20/08/2020, 09:12:09,0.06227051,-0.5029541,11.59429,-0.9830119,-0.81059027,-2.1470742,11.605360656334385,2.496657104350343,stand
20/08/2020, 09:12:09,0.06227051,-0.5029541,11.59429,-0.5590716,-1.1343486,-2.03101,11.605360656334385,2.3925528490480272,stand
20/08/2020, 09:12:09,0.045505375,-0.7209009,11.441009,-0.5590716,-1.1343486,-2.03101,11.46378846130981,2.3925528490480272,stand
20/08/2020, 09:12:09,0.045505375,-0.7209009,11.441009,-0.26585636,-1.3505949,-1.9638147,11.46378846130981,2.3981981656561833,stand
20/08/2020, 09:12:09,-0.028740235,-0.7041358,11.457774,-0.26585636,-1.3505949,-1.9638147,11.479426028579056,2.3981981656561833,stand
20/08/2020, 09:12:10,-1.1520045,4.2799,8.1071415,0.4280863,0.17290239,0.30005097,9.239610499482982,0.5506212063394795,stand
20/08/2020, 09:12:10,-1.089734,4.423601,8.056846,0.4280863,0.17290239,0.30005097,9.255729539471393,0.5506212063394795,stand
20/08/2020, 09:12:10,-1.089734,4.423601,8.056846,0.38654748,0.121589735,0.3648027,9.255729539471393,0.5452375779161752,stand
20/08/2020, 09:12:10,-1.0178833,4.634363,8.020921,0.38654748,0.121589735,0.3648027,9.319258456561391,0.5452375779161752,stand
20/08/2020, 09:12:10,-1.0178833,4.634363,8.020921,0.30346984,0.06783361,0.39168075,9.319258456561391,0.5001091362948682,stand
20/08/2020, 09:12:10,-0.8214917,4.756509,8.006551,0.30346984,0.06783361,0.39168075,9.349014942840215,0.5001091362948682,stand
20/08/2020, 09:12:10,-0.8214917,4.756509,8.006551,0.18007511,0.033625167,0.37946343,9.349014942840215,0.421367054525247,stand
20/08/2020, 09:12:10,-0.41912845,4.912185,8.231683,0.18007511,0.033625167,0.37946343,9.595094234301202,0.421367054525247,stand
20/08/2020, 09:12:10,-0.41912845,4.912185,8.231683,0.045684807,0.02873825,0.33059424,9.595094234301202,0.33497095567156643,stand
20/08/2020, 09:12:10,-0.098195806,5.024751,8.52627,0.045684807,0.02873825,0.33059424,9.897224132342842,0.33497095567156643,stand
20/08/2020, 09:12:10,-0.098195806,5.024751,8.52627,-0.08748376,0.048285928,0.2646208,9.897224132342842,0.2828588220245945,stand
20/08/2020, 09:12:10,-0.028740235,5.1540823,8.849598,-0.08748376,0.048285928,0.2646208,10.241131474463883,0.2828588220245945,stand
20/08/2020, 09:12:10,-0.028740235,5.1540823,8.849598,-0.1864439,0.08493783,0.20597777,10.241131474463883,0.2905212596814236,stand
20/08/2020, 09:12:10,0.0047900393,5.2187476,9.13221,-0.1864439,0.08493783,0.20597777,10.518203508602296,0.2905212596814236,stand
20/08/2020, 09:12:10,0.0047900393,5.2187476,9.13221,-0.24875212,0.11914627,0.14366955,10.518203508602296,0.31098937023264167,stand
20/08/2020, 09:12:10,-0.0047900393,5.3001785,9.263936,-0.24875212,0.11914627,0.14366955,10.672976453463713,0.31098937023264167,stand
20/08/2020, 09:12:10,-0.0047900393,5.3001785,9.263936,-0.28296056,0.13991567,0.08136131,10.672976453463713,0.32597966096611203,stand
20/08/2020, 09:12:10,-0.18920656,5.2762284,9.481883,-0.28296056,0.13991567,0.08136131,10.852672099488117,0.32597966096611203,stand
20/08/2020, 09:12:10,-0.18920656,5.2762284,9.481883,-0.271965,0.16679373,0.06792228,10.852672099488117,0.3261878987421089,stand
20/08/2020, 09:12:10,-0.34967285,5.101392,9.740545,-0.271965,0.16679373,0.06792228,11.001122285262602,0.3261878987421089,stand
20/08/2020, 09:12:10,-0.34967285,5.101392,9.740545,-0.20843503,0.19245006,0.1094611,11.001122285262602,0.3040788048354764,stand
20/08/2020, 09:12:10,-0.43589357,4.9361353,9.896221,-0.20843503,0.19245006,0.1094611,11.067548422620316,0.3040788048354764,stand
20/08/2020, 09:12:10,-0.43589357,4.9361353,9.896221,-0.11558356,0.21321948,0.17787798,11.067548422620316,0.30077014586107204,stand
20/08/2020, 09:12:10,-0.45026368,4.806804,9.8866415,-0.11558356,0.21321948,0.17787798,11.002444455824506,0.30077014586107204,stand
20/08/2020, 09:12:10,-0.45026368,4.806804,9.8866415,-0.020288616,0.24009754,0.25729042,11.002444455824506,0.35250080462309724,stand
20/08/2020, 09:12:10,-0.3424878,4.7062135,9.862691,-0.020288616,0.24009754,0.25729042,10.933362495623596,0.35250080462309724,stand
20/08/2020, 09:12:10,-0.3424878,4.7062135,9.862691,0.060345568,0.2669756,0.3293725,10.933362495623596,0.4282567050161393,stand
20/08/2020, 09:12:10,-0.20357667,4.5409575,9.721385,0.060345568,0.2669756,0.3293725,10.731591885202382,0.4282567050161393,stand
20/08/2020, 09:12:10,-0.20357667,4.5409575,9.721385,0.121432066,0.28530154,0.38557208,10.731591885202382,0.4947813041559038,stand
20/08/2020, 09:12:10,-0.05748047,4.4188113,9.690249,0.121432066,0.28530154,0.38557208,10.650358292839314,0.4947813041559038,stand
20/08/2020, 09:12:11,-1.0202783,3.891907,8.490345,-0.20354813,0.20588909,0.03737903,9.395417289036622,0.29192353835148943,stand
20/08/2020, 09:12:11,-0.97237796,3.923042,8.571775,-0.20354813,0.20588909,0.03737903,9.47687248080766,0.29192353835148943,stand
20/08/2020, 09:12:11,-0.97237796,3.923042,8.571775,-0.194996,0.22665851,0.08013958,9.47687248080766,0.3095478492128241,stand
20/08/2020, 09:12:11,-0.8981324,4.021238,8.598121,-0.194996,0.22665851,0.08013958,9.534394318257396,0.3095478492128241,stand
20/08/2020, 09:12:11,-0.8981324,4.021238,8.598121,-0.1864439,0.2303237,0.11190456,9.534394318257396,0.31675379185919045,stand
20/08/2020, 09:12:11,-0.83586186,4.143384,8.590936,-0.1864439,0.2303237,0.11190456,9.5744698119159,0.31675379185919045,stand
20/08/2020, 09:12:11,-0.83586186,4.143384,8.590936,-0.17178315,0.21932812,0.12534359,9.5744698119159,0.30549188293427454,stand
20/08/2020, 09:12:11,-0.69216067,4.3301954,8.566985,-0.17178315,0.21932812,0.12534359,9.624079854510555,0.30549188293427454,stand
20/08/2020, 09:12:11,-0.69216067,4.3301954,8.566985,-0.15223545,0.20222391,0.11679148,9.624079854510555,0.27876583705464597,stand
20/08/2020, 09:12:11,-0.58677983,4.373306,8.677156,-0.15223545,0.20222391,0.11679148,9.734637034873817,0.27876583705464597,stand
20/08/2020, 09:12:11,-0.58677983,4.373306,8.677156,-0.14368334,0.19733699,0.08991342,9.734637034873817,0.26013691173661757,stand
20/08/2020, 09:12:11,-0.48139894,4.358936,8.770562,-0.14368334,0.19733699,0.08991342,9.805856788028525,0.26013691173661757,stand
20/08/2020, 09:12:11,-0.48139894,4.358936,8.770562,-0.1461268,0.20100218,0.05448325,9.805856788028525,0.25440783154271884,stand
20/08/2020, 09:12:11,-0.44547364,4.3349857,8.851993,-0.1461268,0.20100218,0.05448325,9.866525284364677,0.25440783154271884,stand
20/08/2020, 09:12:11,-0.44547364,4.3349857,8.851993,-0.15223545,0.20222391,0.01660962,9.866525284364677,0.2536651764841744,stand
20/08/2020, 09:12:11,-0.39996827,4.3230104,8.962164,-0.15223545,0.20222391,0.01660962,9.958352079551492,0.2536651764841744,stand
20/08/2020, 09:12:11,-0.39996827,4.3230104,8.962164,-0.16689622,0.19489352,-0.01882055,9.958352079551492,0.2572781538005102,stand
20/08/2020, 09:12:11,-0.38559815,4.253555,9.048384,-0.16689622,0.19489352,-0.01882055,10.00573147572787,0.2572781538005102,stand
20/08/2020, 09:12:11,-0.38559815,4.253555,9.048384,-0.17544833,0.18023276,-0.04081169,10.00573147572787,0.2548167165022174,stand
20/08/2020, 09:12:11,-0.46463382,4.2343946,9.189691,-0.17544833,0.18023276,-0.04081169,10.128987853430866,0.2548167165022174,stand
20/08/2020, 09:12:11,-0.46463382,4.2343946,9.189691,-0.16567448,0.15457644,-0.050585534,10.128987853430866,0.23216546547996522,stand
20/08/2020, 09:12:11,-0.43589357,4.2008643,9.307046,-0.16567448,0.15457644,-0.050585534,10.220487672287572,0.23216546547996522,stand
20/08/2020, 09:12:11,-0.43589357,4.2008643,9.307046,-0.14734852,0.11059416,-0.057915915,10.220487672287572,0.1931240763712824,stand
20/08/2020, 09:12:11,-0.40954837,4.181704,9.422008,-0.14734852,0.11059416,-0.057915915,10.316424044112965,0.1931240763712824,stand
20/08/2020, 09:12:11,-0.40954837,4.181704,9.422008,-0.13146606,0.06416842,-0.068911485,10.316424044112965,0.16170870274165833,stand
20/08/2020, 09:12:11,-0.366438,4.2367897,9.587264,-0.13146606,0.06416842,-0.068911485,10.488102591712506,0.16170870274165833,stand
20/08/2020, 09:12:11,-0.366438,4.2367897,9.587264,-0.118027024,0.02751652,-0.082350515,10.488102591712506,0.14652352894259466,stand
20/08/2020, 09:12:11,-0.3305127,4.263135,9.639954,-0.118027024,0.02751652,-0.082350515,10.545722543706637,0.14652352894259466,stand
20/08/2020, 09:12:11,-0.3305127,4.263135,9.639954,-0.11191837,0.009190568,-0.09945473,10.545722543706637,0.15000476984402727,stand
20/08/2020, 09:12:11,-0.31853762,4.258345,9.77647,-0.11191837,0.009190568,-0.09945473,10.66838032241224,0.15000476984402727,stand
20/08/2020, 09:12:12,1.094524,3.2668068,8.576566,-0.15223545,-0.13863876,0.2194168,9.242699265600795,0.30089876980348945,stand
20/08/2020, 09:12:12,1.094524,3.2668068,8.576566,-0.2194306,-0.14108223,0.17543451,9.242699265600795,0.3143743789699998,stand
20/08/2020, 09:12:12,0.9627979,3.166216,8.6077,-0.2194306,-0.14108223,0.17543451,9.221952512414763,0.3143743789699998,stand
20/08/2020, 09:12:12,0.9627979,3.166216,8.6077,-0.28173885,-0.15818645,0.15099992,9.221952512414763,0.35665208081844274,stand
20/08/2020, 09:12:12,0.8430469,3.0536501,8.686736,-0.28173885,-0.15818645,0.15099992,9.24634476181307,0.35665208081844274,stand
20/08/2020, 09:12:12,0.8430469,3.0536501,8.686736,-0.33060804,-0.17895587,0.16566068,9.24634476181307,0.4108166738407542,stand
20/08/2020, 09:12:12,0.8143067,3.0416749,8.801697,-0.33060804,-0.17895587,0.16566068,9.34798092804326,0.4108166738407542,stand
20/08/2020, 09:12:12,0.8143067,3.0416749,8.801697,-0.35992956,-0.20827737,0.20231259,9.34798092804326,0.4624490648694317,stand
20/08/2020, 09:12:12,0.8909473,3.1087356,8.995694,-0.35992956,-0.20827737,0.20231259,9.559316778878852,0.4624490648694317,stand
20/08/2020, 09:12:12,0.8909473,3.1087356,8.995694,-0.38680762,-0.24004236,0.25118178,9.559316778878852,0.519935338758041,stand
20/08/2020, 09:12:12,0.9436377,3.1949563,9.21364,-0.38680762,-0.24004236,0.25118178,9.797416185589496,0.519935338758041,stand
20/08/2020, 09:12:12,0.9436377,3.1949563,9.21364,-0.41124222,-0.2742508,0.30738136,9.797416185589496,0.5820798628063437,stand
20/08/2020, 09:12:12,1.0035132,3.3673975,9.433982,-0.41124222,-0.2742508,0.30738136,10.067095878069116,0.5820798628063437,stand
20/08/2020, 09:12:12,1.0035132,3.3673975,9.433982,-0.42101607,-0.31701136,0.35258538,10.067095878069116,0.6340876720419283,stand
20/08/2020, 09:12:12,1.0562036,3.5039136,9.594449,-0.42101607,-0.31701136,0.35258538,10.268711180082931,0.6340876720419283,stand
20/08/2020, 09:12:12,1.0562036,3.5039136,9.594449,-0.40879875,-0.3634371,0.38557208,10.268711180082931,0.6692299775476915,stand
20/08/2020, 09:12:12,1.089734,3.68354,9.833951,-0.40879875,-0.3634371,0.38557208,10.557584004425847,0.6692299775476915,stand
20/08/2020, 09:12:12,1.089734,3.68354,9.833951,-0.3733686,-0.40619764,0.4185588,10.557584004425847,0.6925258836991942,stand
20/08/2020, 09:12:12,1.104104,3.8080812,10.061478,-0.3733686,-0.40619764,0.4185588,10.814520817241815,0.6925258836991942,stand
20/08/2020, 09:12:12,1.104104,3.8080812,10.061478,-0.30372998,-0.42696705,0.44421512,10.814520817241815,0.6869351054026641,stand
20/08/2020, 09:12:12,1.0585986,3.8727467,10.2315235,-0.30372998,-0.42696705,0.44421512,10.991035962897644,0.6869351054026641,stand
20/08/2020, 09:12:12,1.0585986,3.8727467,10.2315235,-0.20476985,-0.4330757,0.46254107,10.991035962897644,0.6659050193334836,stand
20/08/2020, 09:12:12,1.0011182,3.8559816,10.212363,-0.20476985,-0.4330757,0.46254107,10.961897401247958,0.6659050193334836,stand
20/08/2020, 09:12:12,1.0011182,3.8559816,10.212363,-0.103366256,-0.4208584,0.46620628,10.961897401247958,0.6365176229569809,stand
20/08/2020, 09:12:12,1.0083033,3.8535867,10.205178,-0.103366256,-0.4208584,0.46620628,10.955020269291921,0.6365176229569809,stand
20/08/2020, 09:12:12,1.0083033,3.8535867,10.205178,-0.015401695,-0.3927586,0.44421512,10.955020269291921,0.5931472060999167,stand
20/08/2020, 09:12:12,1.1208692,3.8631666,10.150093,-0.015401695,-0.3927586,0.44421512,10.918094757345168,0.5931472060999167,stand
20/08/2020, 09:12:12,1.1208692,3.8631666,10.150093,0.039576158,-0.35732844,0.40389803,10.918094757345168,0.540724984386099,stand
20/08/2020, 09:12:12,1.1879297,3.755391,10.145303,0.039576158,-0.35732844,0.40389803,10.883074295260837,0.540724984386099,stand
20/08/2020, 09:12:12,1.1879297,3.755391,10.145303,0.053015187,-0.31334618,0.3489202,10.883074295260837,0.47195523127615047,stand
20/08/2020, 09:12:13,1.9399658,2.7135572,9.019644,0.14953187,-0.060448047,0.0019488598,9.616695605658338,0.16129955016050512,stand
20/08/2020, 09:12:13,1.9399658,2.7135572,9.019644,0.12876245,-0.07755226,-0.0029380603,9.616695605658338,0.15034212509050895,stand
20/08/2020, 09:12:13,1.8824854,2.936294,9.09868,0.12876245,-0.07755226,-0.0029380603,9.74430826573579,0.15034212509050895,stand
20/08/2020, 09:12:13,1.8824854,2.936294,9.09868,0.10188439,-0.076330535,-0.03103785,9.74430826573579,0.13103483180074302,stand
20/08/2020, 09:12:13,1.9208057,3.06323,9.230406,0.10188439,-0.076330535,-0.03103785,9.913287252160353,0.13103483180074302,stand
20/08/2020, 09:12:13,1.9208057,3.06323,9.230406,0.08355844,-0.056782857,-0.07868532,9.913287252160353,0.12805344766606694,stand
20/08/2020, 09:12:13,1.9639161,3.06802,9.395662,0.08355844,-0.056782857,-0.07868532,10.077111881471758,0.12805344766606694,stand
20/08/2020, 09:12:13,1.9639161,3.06802,9.395662,0.078671515,-0.025017872,-0.10678511,10.077111881471758,0.13497466862879648,stand
20/08/2020, 09:12:13,1.8489552,3.0368848,9.498648,0.078671515,-0.025017872,-0.10678511,10.142268597010029,0.13497466862879648,stand
20/08/2020, 09:12:13,1.8489552,3.0368848,9.498648,0.092110544,-0.007913653,-0.10189819,10.142268597010029,0.13758713642005832,stand
20/08/2020, 09:12:13,1.8034497,2.9913795,9.541759,0.092110544,-0.007913653,-0.10189819,10.161000851009653,0.13758713642005832,stand
20/08/2020, 09:12:13,1.8034497,2.9913795,9.541759,0.11654515,-0.012800573,-0.09090263,10.161000851009653,0.14835738523370315,stand
20/08/2020, 09:12:13,1.7747096,3.0057497,9.465117,0.11654515,-0.012800573,-0.09090263,10.088239380755967,0.14835738523370315,stand
20/08/2020, 09:12:13,1.7747096,3.0057497,9.465117,0.13242763,-0.017687492,-0.07990705,10.088239380755967,0.1556761455761476,stand
20/08/2020, 09:12:13,1.8226099,2.9985645,9.407638,0.13242763,-0.017687492,-0.07990705,10.0407639621711,0.1556761455761476,stand
20/08/2020, 09:12:13,1.8226099,2.9985645,9.407638,0.13975802,-0.007913653,-0.075020134,10.0407639621711,0.15881735045816775,stand
20/08/2020, 09:12:13,1.84177,3.03928,9.352551,0.13975802,-0.007913653,-0.075020134,10.004976675869633,0.15881735045816775,stand
20/08/2020, 09:12:13,1.84177,3.03928,9.352551,0.13120592,0.0018601877,-0.075020134,10.004976675869633,0.15115049907549633,stand
20/08/2020, 09:12:13,1.8489552,3.1015503,9.208851,0.13120592,0.0018601877,-0.075020134,9.891470257315039,0.15115049907549633,stand
20/08/2020, 09:12:13,1.8489552,3.1015503,9.208851,0.11532342,0.012855758,-0.08723743,9.891470257315039,0.14517276136407328,stand
20/08/2020, 09:12:13,1.8920655,3.168611,9.15616,0.11532342,0.012855758,-0.08723743,9.871944103087733,0.14517276136407328,stand
20/08/2020, 09:12:13,1.8920655,3.168611,9.15616,0.093332276,0.03118171,-0.09945473,9.871944103087733,0.139908742376349,stand
20/08/2020, 09:12:13,1.9184108,3.1614258,9.08431,0.093332276,0.03118171,-0.09945473,9.808139155469696,0.139908742376349,stand
20/08/2020, 09:12:13,1.9184108,3.1614258,9.08431,0.065232486,0.058059767,-0.10556339,9.808139155469696,0.13700307453798155,stand
20/08/2020, 09:12:13,1.9567311,3.1901662,8.995694,0.065232486,0.058059767,-0.10556339,9.74312427092508,0.13700307453798155,stand
20/08/2020, 09:12:13,1.9567311,3.1901662,8.995694,0.042019617,0.07027707,-0.104341656,9.74312427092508,0.1326336921193481,stand
20/08/2020, 09:12:13,1.9375709,3.271597,8.919053,0.042019617,0.07027707,-0.104341656,9.695722522942756,0.1326336921193481,stand
20/08/2020, 09:12:13,1.9375709,3.271597,8.919053,0.027358856,0.060503226,-0.09945473,9.695722522942756,0.1195842414445681,stand
20/08/2020, 09:12:13,1.9399658,3.3171022,8.914263,0.027358856,0.060503226,-0.09945473,9.707250651037185,0.1195842414445681,stand
20/08/2020, 09:12:13,1.9399658,3.3171022,8.914263,0.031024046,0.03118171,-0.0860157,9.707250651037185,0.09660999608183089,stand
20/08/2020, 09:12:14,2.179468,3.415298,8.58854,0.18007511,-0.076330535,0.04104422,9.496176145360144,0.19984499867716177,stand
20/08/2020, 09:12:14,2.1531227,3.4536183,8.595725,0.18007511,-0.076330535,0.04104422,9.510515537142538,0.19984499867716177,stand
20/08/2020, 09:12:14,2.1531227,3.4536183,8.595725,0.13731456,-0.0995434,7.2712987E-4,9.510515537142538,0.16960160691990808,stand
20/08/2020, 09:12:14,2.0429518,3.4727786,8.672366,0.13731456,-0.0995434,7.2712987E-4,9.562623989877741,0.16960160691990808,stand
20/08/2020, 09:12:14,2.0429518,3.4727786,8.672366,0.106771305,-0.119091086,-0.02615093,9.562623989877741,0.16206995272383712,stand
20/08/2020, 09:12:14,1.9663111,3.4871485,8.789722,0.106771305,-0.119091086,-0.02615093,9.658457680858948,0.16206995272383712,stand
20/08/2020, 09:12:14,1.9663111,3.4871485,8.789722,0.09455401,-0.13863876,-0.04814207,9.658457680858948,0.17458186155395086,stand
20/08/2020, 09:12:14,1.8848804,3.4871485,8.907078,0.09455401,-0.13863876,-0.04814207,9.749308374422947,0.17458186155395086,stand
20/08/2020, 09:12:14,1.8848804,3.4871485,8.907078,0.09577574,-0.15329953,-0.060359374,9.749308374422947,0.1905701721990663,stand
20/08/2020, 09:12:14,1.7818946,3.439248,9.067544,0.09577574,-0.15329953,-0.060359374,9.86021954734033,0.1905701721990663,stand
20/08/2020, 09:12:14,1.7818946,3.439248,9.067544,0.105549574,-0.15940818,-0.059137642,9.86021954734033,0.2001223169846361,stand
20/08/2020, 09:12:14,1.7387843,3.4440382,9.079519,0.105549574,-0.15940818,-0.059137642,9.865213626321529,0.2001223169846361,stand
20/08/2020, 09:12:14,1.7387843,3.4440382,9.079519,0.10921477,-0.16062991,-0.057915915,9.865213626321529,0.20269210076932526,stand
20/08/2020, 09:12:14,1.6789087,3.432063,9.096285,0.10921477,-0.16062991,-0.057915915,9.866113214060501,0.20269210076932526,stand
20/08/2020, 09:12:14,1.6789087,3.432063,9.096285,0.10432785,-0.15452126,-0.061581105,9.866113214060501,0.19635007398676246,stand
20/08/2020, 09:12:14,1.6836988,3.4584084,9.153765,0.10432785,-0.15452126,-0.061581105,9.929090519785666,0.19635007398676246,stand
20/08/2020, 09:12:14,1.6836988,3.4584084,9.153765,0.09699747,-0.14352569,-0.0774636,9.929090519785666,0.18975969444179003,stand
20/08/2020, 09:12:14,1.7148341,3.537444,9.211246,0.09699747,-0.14352569,-0.0774636,10.015049234722868,0.18975969444179003,stand
20/08/2020, 09:12:14,1.7148341,3.537444,9.211246,0.08966709,-0.13130839,-0.10189819,10.015049234722868,0.1888526474232091,stand
20/08/2020, 09:12:14,1.698069,3.5494192,9.340576,0.08966709,-0.13130839,-0.10189819,10.135491003284328,0.1888526474232091,stand
20/08/2020, 09:12:14,1.698069,3.5494192,9.340576,0.07989325,-0.11664762,-0.12633279,10.135491003284328,0.1896037252001667,stand
20/08/2020, 09:12:14,1.6142433,3.530259,9.378897,0.07989325,-0.11664762,-0.12633279,10.150478449204988,0.1896037252001667,stand
20/08/2020, 09:12:14,1.6142433,3.530259,9.378897,0.078671515,-0.103208594,-0.14832394,10.150478449204988,0.19708173890317016,stand
20/08/2020, 09:12:14,1.5783179,3.5709743,9.491463,0.078671515,-0.103208594,-0.14832394,10.263079921190105,0.19708173890317016,stand
20/08/2020, 09:12:14,1.5783179,3.5709743,9.491463,0.09699747,-0.0873261,-0.15809777,10.263079921190105,0.20501039798488968,stand
20/08/2020, 09:12:14,1.4346168,3.4967287,9.462723,0.09699747,-0.0873261,-0.15809777,10.189620163010055,0.20501039798488968,stand
20/08/2020, 09:12:14,1.4346168,3.4967287,9.462723,0.10921477,-0.06533496,-0.15198913,10.189620163010055,0.19823526152092688,stand
20/08/2020, 09:12:14,1.4178516,3.412903,9.460327,0.10921477,-0.06533496,-0.15198913,10.156574234974844,0.19823526152092688,stand
20/08/2020, 09:12:14,1.4178516,3.412903,9.460327,0.121432066,-0.051895935,-0.13610664,10.156574234974844,0.18964164153045004,stand
20/08/2020, 09:12:14,1.4154567,3.4057178,9.457932,0.121432066,-0.051895935,-0.13610664,10.151596832849979,0.18964164153045004,stand
20/08/2020, 09:12:15,1.951941,4.385281,8.933423,0.016363285,-0.060448047,-0.06402456,10.141341685158931,0.08955929752606549,stand
20/08/2020, 09:12:15,1.951941,4.385281,8.933423,0.0102546355,-0.058004584,-0.08112878,10.141341685158931,0.1002575126800931,stand
20/08/2020, 09:12:15,1.9447559,4.366121,8.986114,0.0102546355,-0.058004584,-0.08112878,10.178178777794303,0.1002575126800931,stand
20/08/2020, 09:12:15,1.9447559,4.366121,8.986114,0.0102546355,-0.061669774,-0.095789544,10.178178777794303,0.11438511883873403,stand
20/08/2020, 09:12:15,1.8896705,4.4259963,8.993299,0.0102546355,-0.061669774,-0.095789544,10.199986093353354,0.11438511883873403,stand
20/08/2020, 09:12:15,1.8896705,4.4259963,8.993299,0.016363285,-0.069000155,-0.10556339,10.199986093353354,0.12717077965456156,stand
20/08/2020, 09:12:15,1.8729054,4.423601,9.012459,0.016363285,-0.069000155,-0.10556339,10.212758458015035,0.12717077965456156,stand
20/08/2020, 09:12:15,1.8729054,4.423601,9.012459,0.028580585,-0.069000155,-0.11167204,10.212758458015035,0.13434476142741897,stand
20/08/2020, 09:12:15,1.9016455,4.406836,8.964559,0.028580585,-0.069000155,-0.11167204,10.168567770461879,0.13434476142741897,stand
20/08/2020, 09:12:15,1.9016455,4.406836,8.964559,0.035910964,-0.059226315,-0.11533722,10.168567770461879,0.134536347307474,stand
20/08/2020, 09:12:15,1.8441651,4.373306,8.938213,0.035910964,-0.059226315,-0.11533722,10.120197939151529,0.134536347307474,stand
20/08/2020, 09:12:15,1.8441651,4.373306,8.938213,0.035910964,-0.044565555,-0.117780685,10.120197939151529,0.13095028011375842,stand
20/08/2020, 09:12:15,1.7699195,4.3206153,8.847202,0.035910964,-0.044565555,-0.117780685,10.003665335345733,0.13095028011375842,stand
20/08/2020, 09:12:15,1.7699195,4.3206153,8.847202,0.024915395,-0.031126523,-0.123889334,10.003665335345733,0.13014685775833643,stand
20/08/2020, 09:12:15,1.7411792,4.258345,8.739427,0.024915395,-0.031126523,-0.123889334,9.876375136983654,0.13014685775833643,stand
20/08/2020, 09:12:15,1.7411792,4.258345,8.739427,0.016363285,-0.020130953,-0.13488491,9.876375136983654,0.13735702018442025,stand
20/08/2020, 09:12:15,1.719624,4.2918754,8.617281,0.016363285,-0.020130953,-0.13488491,9.779306320948066,0.13735702018442025,stand
20/08/2020, 09:12:15,1.719624,4.2918754,8.617281,0.0065894453,-0.017687492,-0.14343701,9.779306320948066,0.144673580421484,stand
20/08/2020, 09:12:15,1.695674,4.24637,8.602911,0.0065894453,-0.017687492,-0.14343701,9.74253788921815,0.144673580421484,stand
20/08/2020, 09:12:15,1.695674,4.24637,8.602911,-0.003184395,-0.017687492,-0.14588048,9.74253788921815,0.14698333551734935,stand
20/08/2020, 09:12:15,1.6214283,4.2511597,8.56938,-0.003184395,-0.017687492,-0.14588048,9.702353238515759,0.14698333551734935,stand
20/08/2020, 09:12:15,1.6214283,4.2511597,8.56938,-0.003184395,-0.020130953,-0.14343701,9.702353238515759,0.14487778414712352,stand
20/08/2020, 09:12:15,1.6214283,4.2080493,8.5430355,-0.003184395,-0.020130953,-0.14343701,9.660236236247254,0.14487778414712352,stand
20/08/2020, 09:12:15,1.6214283,4.2080493,8.5430355,-0.003184395,-0.025017872,-0.13488491,9.660236236247254,0.13722234852144835,stand
20/08/2020, 09:12:15,1.585503,4.136199,8.514295,-0.003184395,-0.025017872,-0.13488491,9.597665070377506,0.13722234852144835,stand
20/08/2020, 09:12:15,1.585503,4.136199,8.514295,-0.011736505,-0.029904792,-0.12999798,9.597665070377506,0.13390861759631756,stand
20/08/2020, 09:12:15,1.5591577,4.1242237,8.538245,-0.011736505,-0.029904792,-0.12999798,9.609465393111766,0.13390861759631756,stand
20/08/2020, 09:12:15,1.5591577,4.1242237,8.538245,-0.022732075,-0.032348253,-0.123889334,9.609465393111766,0.13004508415072868,stand
20/08/2020, 09:12:15,1.5447876,4.1170387,8.495134,-0.022732075,-0.032348253,-0.123889334,9.565755821343966,0.13004508415072868,stand
20/08/2020, 09:12:15,1.5447876,4.1170387,8.495134,-0.038614567,-0.029904792,-0.11533722,9.565755821343966,0.1252519715188232,stand
20/08/2020, 09:12:16,2.2369483,3.5901344,9.414823,0.35233906,-0.027461333,-0.02737266,10.321428512895366,0.35446607724941914,stand
20/08/2020, 09:12:16,1.9974464,3.3338673,9.412427,0.35233906,-0.027461333,-0.02737266,10.183233499448791,0.35446607724941914,stand
20/08/2020, 09:12:16,1.9974464,3.3338673,9.412427,0.39632133,0.14358087,-0.0017163303,10.183233499448791,0.42153173726392185,stand
20/08/2020, 09:12:16,1.9639161,3.408113,9.448353,0.39632133,0.14358087,-0.0017163303,10.234430684506309,0.42153173726392185,stand
20/08/2020, 09:12:16,1.9639161,3.408113,9.448353,0.45862955,0.31340134,0.0605919,10.234430684506309,0.5587779897467902,stand
20/08/2020, 09:12:16,1.9734962,3.159031,9.189691,0.45862955,0.31340134,0.0605919,9.915874984177245,0.5587779897467902,stand
20/08/2020, 09:12:16,1.9734962,3.159031,9.189691,0.52460295,0.48566526,0.12778705,9.915874984177245,0.7262289806111368,stand
20/08/2020, 09:12:16,2.047742,3.2548318,9.10347,0.52460295,0.48566526,0.12778705,9.882324631383424,0.7262289806111368,stand
20/08/2020, 09:12:16,2.047742,3.2548318,9.10347,0.62722826,0.6163904,0.15466511,9.882324631383424,0.8929018541605293,stand
20/08/2020, 09:12:16,2.1004322,3.4919386,8.971744,0.62722826,0.6163904,0.15466511,9.853813135175496,0.8929018541605293,stand
20/08/2020, 09:12:16,2.1004322,3.4919386,8.971744,0.7787228,0.7190157,0.16810414,9.853813135175496,1.073150427062008,stand
20/08/2020, 09:12:16,2.0932472,3.5637891,8.851993,0.7787228,0.7190157,0.16810414,9.76934234279939,1.073150427062008,stand
20/08/2020, 09:12:16,2.0932472,3.5637891,8.851993,0.9570954,0.8020933,0.21575162,9.76934234279939,1.2672545289886312,stand
20/08/2020, 09:12:16,2.0309765,3.6236646,8.713081,0.9570954,0.8020933,0.21575162,9.652647187440758,1.2672545289886312,stand
20/08/2020, 09:12:16,2.0309765,3.6236646,8.713081,1.1293594,0.7666632,0.24507314,9.652647187440758,1.3868258256069503,stand
20/08/2020, 09:12:16,1.4873072,2.9698243,8.552615,1.1293594,0.7666632,0.24507314,9.174920452491763,1.3868258256069503,stand
20/08/2020, 09:12:16,1.4873072,2.9698243,8.552615,1.2051066,0.6933594,0.2976075,9.174920452491763,1.4218295993710008,stand
20/08/2020, 09:12:16,1.22146,3.3650026,7.9873905,1.2051066,0.6933594,0.2976075,8.752920341165055,1.4218295993710008,stand
20/08/2020, 09:12:16,1.22146,3.3650026,7.9873905,1.2136587,0.5931775,0.26217735,8.752920341165055,1.376068283986439,stand
20/08/2020, 09:12:16,1.4250367,4.3493557,8.243657,1.2136587,0.5931775,0.26217735,9.428971686993,1.376068283986439,stand
20/08/2020, 09:12:16,1.4250367,4.3493557,8.243657,1.1696764,0.49666083,0.13023052,9.428971686993,1.2774094491184118,stand
20/08/2020, 09:12:16,1.5160475,4.878655,8.155042,1.1696764,0.49666083,0.13023052,9.62311691624517,1.2774094491184118,stand
20/08/2020, 09:12:16,1.5160475,4.878655,8.155042,0.99741244,0.4575655,-0.01515536,9.62311691624517,1.0974640955790793,stand
20/08/2020, 09:12:16,1.5088624,4.8355446,8.090376,0.99741244,0.4575655,-0.01515536,9.545330760269556,1.0974640955790793,stand
20/08/2020, 09:12:16,1.5088624,4.8355446,8.090376,0.7542882,0.4746697,-0.11411549,9.545330760269556,0.8984900378605967,stand
20/08/2020, 09:12:16,1.4729371,4.742139,8.159832,0.7542882,0.4746697,-0.11411549,9.551977962384704,0.8984900378605967,stand
20/08/2020, 09:12:16,1.4729371,4.742139,8.159832,0.5673635,0.52109545,-0.15687604,9.551977962384704,0.7861627741218011,stand
20/08/2020, 09:12:16,1.5160475,4.720584,8.301138,0.5673635,0.52109545,-0.15687604,9.669084925496797,0.7861627741218011,stand
20/08/2020, 09:12:16,1.5160475,4.720584,8.301138,0.47817725,0.57362986,-0.14954567,9.669084925496797,0.7616223480027188,stand
20/08/2020, 09:12:16,1.6453785,4.567302,8.473579,0.47817725,0.57362986,-0.14954567,9.765708776436442,0.7616223480027188,stand
20/08/2020, 09:12:17,1.3843213,3.4823585,8.890313,-0.0141799655,-0.7507255,-0.1996366,9.647840890179902,0.7769457052043975,stand
20/08/2020, 09:12:17,1.3843213,3.4823585,8.890313,0.3181306,-0.5100447,-0.08112878,9.647840890179902,0.6065760923976958,stand
20/08/2020, 09:12:17,1.3028907,3.2620168,8.705896,0.3181306,-0.5100447,-0.08112878,9.387806412222027,0.6065760923976958,stand
20/08/2020, 09:12:17,1.3028907,3.2620168,8.705896,0.52704644,-0.33655903,-0.0017163303,9.387806412222027,0.625342207751123,stand
20/08/2020, 09:12:17,1.3028907,3.2620168,8.705896,0.83370066,-0.22293814,0.02149654,9.387806412222027,0.8632614312509744,stand
20/08/2020, 09:12:17,1.3028907,3.1135256,9.024434,0.83370066,-0.22293814,0.02149654,9.63493521249783,0.8632614312509744,stand
20/08/2020, 09:12:17,1.4274317,3.2021413,9.208851,0.83370066,-0.22293814,0.02149654,9.85363913724545,0.8632614312509744,stand
20/08/2020, 09:12:17,1.4274317,3.2021413,9.208851,1.2319846,-0.12519974,0.019053081,9.85363913724545,1.2384765181393582,stand
20/08/2020, 09:12:17,1.5663428,3.290757,9.08431,1.2319846,-0.12519974,0.019053081,9.788114814137506,1.2384765181393582,stand
20/08/2020, 09:12:17,1.5663428,3.290757,9.08431,1.542304,0.029959979,0.015387891,9.788114814137506,1.5426717525835587,stand
20/08/2020, 09:12:17,1.7124391,3.5997145,8.907078,1.542304,0.029959979,0.015387891,9.758402886121745,1.5426717525835587,stand
20/08/2020, 09:12:17,1.7124391,3.5997145,8.907078,1.7023507,0.18267623,0.0019488598,9.758402886121745,1.7121251206558308,stand
20/08/2020, 09:12:17,1.6645386,3.9709425,8.454419,1.7023507,0.18267623,0.0019488598,9.487690765842974,1.7121251206558308,stand
20/08/2020, 09:12:17,1.6645386,3.9709425,8.454419,1.7316722,0.22054985,-0.01882055,9.487690765842974,1.745761996045222,stand
20/08/2020, 09:12:17,1.585503,4.397256,7.8987746,1.7316722,0.22054985,-0.01882055,9.178252540291718,1.745761996045222,stand
20/08/2020, 09:12:17,1.585503,4.397256,7.8987746,1.6253817,0.17901103,-0.07013322,9.178252540291718,1.636712960426174,stand
20/08/2020, 09:12:17,1.4873072,4.720584,7.697593,1.6253817,0.17901103,-0.07013322,9.15144450044618,1.636712960426174,stand
20/08/2020, 09:12:17,1.4873072,4.720584,7.697593,1.4861045,0.13380702,-0.13244145,9.15144450044618,1.4979825116476786,stand
20/08/2020, 09:12:17,1.5735279,5.046306,7.7478886,1.4861045,0.13380702,-0.13244145,9.379284245646486,1.4979825116476786,stand
20/08/2020, 09:12:17,1.5735279,5.046306,7.7478886,1.3553793,0.02751652,-0.21674082,9.379284245646486,1.3728754146151219,stand
20/08/2020, 09:12:17,1.3651612,5.1732426,7.7454934,1.3553793,0.02751652,-0.21674082,9.413754400968076,1.3728754146151219,stand
20/08/2020, 09:12:17,1.3651612,5.1732426,7.7454934,1.2490889,-0.1642951,-0.28637943,9.413754400968076,1.2919864925401428,stand
20/08/2020, 09:12:17,1.2502003,5.0750465,7.719148,1.2490889,-0.1642951,-0.28637943,9.322250071536624,1.2919864925401428,stand
20/08/2020, 09:12:17,1.2502003,5.0750465,7.719148,1.0071863,-0.3426677,-0.32303134,9.322250071536624,1.1118428962512774,stand
20/08/2020, 09:12:17,1.341211,5.1756372,8.0017605,1.0071863,-0.3426677,-0.32303134,9.623629178247082,1.1118428962512774,stand
20/08/2020, 09:12:17,1.341211,5.1756372,8.0017605,0.7029755,-0.5503618,-0.34013554,9.623629178247082,0.9553872946260842,stand
20/08/2020, 09:12:17,1.3148658,5.374424,8.509504,0.7029755,-0.5503618,-0.34013554,10.15012162543126,0.9553872946260842,stand
20/08/2020, 09:12:17,1.3148658,5.374424,8.509504,0.63089347,-0.76049936,-0.32425305,10.15012162543126,1.0399643671165821,stand
20/08/2020, 09:12:17,1.575923,5.5372853,8.947793,0.63089347,-0.76049936,-0.32425305,10.639927710833096,1.0399643671165821,stand
20/08/2020, 09:12:17,1.575923,5.5372853,8.947793,0.687093,-0.7910426,-0.28027079,10.639927710833096,1.0846183505730076,stand
20/08/2020, 09:12:18,1.1831397,7.30481,6.241421,0.37310845,-0.17895587,-0.038368233,9.68067188838829,0.41558060210110104,stand
20/08/2020, 09:12:18,1.3603711,7.6113725,6.255791,0.37310845,-0.17895587,-0.038368233,9.945779196907335,0.41558060210110104,stand
20/08/2020, 09:12:18,1.3603711,7.6113725,6.255791,0.2900308,-0.15696472,-0.03348131,9.945779196907335,0.3314766816102125,stand
20/08/2020, 09:12:18,1.4370118,8.008945,6.210286,0.2900308,-0.15696472,-0.03348131,10.236008227397617,0.3314766816102125,stand
20/08/2020, 09:12:18,1.4370118,8.008945,6.210286,0.24604854,-0.103208594,-0.068911485,10.236008227397617,0.2755733852759892,stand
20/08/2020, 09:12:18,1.2621753,8.399334,5.9635987,0.24604854,-0.103208594,-0.068911485,10.378169742376276,0.2755733852759892,stand
20/08/2020, 09:12:18,1.2621753,8.399334,5.9635987,0.23260951,-0.09099129,-0.10067646,10.378169742376276,0.26929973806037105,stand
20/08/2020, 09:12:18,1.3220508,8.581355,5.985154,0.23260951,-0.09099129,-0.10067646,10.54559357414212,0.26929973806037105,stand
20/08/2020, 09:12:18,1.3220508,8.581355,5.985154,0.2045097,-0.10809551,-0.11533722,10.54559357414212,0.25847927228422085,stand
20/08/2020, 09:12:18,1.6070582,8.566985,5.848638,0.2045097,-0.10809551,-0.11533722,10.496782235838984,0.25847927228422085,stand
20/08/2020, 09:12:18,1.6070582,8.566985,5.848638,0.11898861,-0.062891506,-0.12877625,10.496782235838984,0.1862711843891456,stand
20/08/2020, 09:12:18,1.6094532,8.49753,5.8103175,0.11898861,-0.062891506,-0.12877625,10.419124006773345,0.1862711843891456,stand
20/08/2020, 09:12:18,1.6094532,8.49753,5.8103175,0.027358856,-0.014022303,-0.14832394,10.419124006773345,0.15147647552948945,stand
20/08/2020, 09:12:18,1.6070582,8.361013,5.724097,0.027358856,-0.014022303,-0.14832394,10.259359879026714,0.15147647552948945,stand
20/08/2020, 09:12:18,1.6070582,8.361013,5.724097,-0.066714354,0.0030819178,-0.18497583,10.259359879026714,0.19666306697319946,stand
20/08/2020, 09:12:18,1.3915064,8.210127,5.760022,-0.066714354,0.0030819178,-0.18497583,10.12523228429136,0.19666306697319946,stand
20/08/2020, 09:12:18,1.3915064,8.210127,5.760022,-0.15712237,0.012855758,-0.21674082,10.12523228429136,0.26800987383534147,stand
20/08/2020, 09:12:18,1.2286451,7.9562554,5.728887,-0.15712237,0.012855758,-0.21674082,9.880876302158994,0.26800987383534147,stand
20/08/2020, 09:12:18,1.2286451,7.9562554,5.728887,-0.22553927,0.01652095,-0.21551909,9.880876302158994,0.3123929880328085,stand
20/08/2020, 09:12:18,1.1400293,7.673643,5.6642213,-0.22553927,0.01652095,-0.21551909,9.605616493960063,0.3123929880328085,stand
20/08/2020, 09:12:18,1.1400293,7.673643,5.6642213,-0.30739516,0.02018614,-0.175202,9.605616493960063,0.35439385511195154,stand
20/08/2020, 09:12:18,1.2573853,7.647298,5.704937,-0.30739516,0.02018614,-0.175202,9.62333041017602,0.35439385511195154,stand
20/08/2020, 09:12:18,1.2573853,7.647298,5.704937,-0.36970338,0.01652095,-0.14465874,9.62333041017602,0.39734076674932167,stand
20/08/2020, 09:12:18,1.4609619,7.829319,6.13604,-0.36970338,0.01652095,-0.14465874,10.054035769739905,0.39734076674932167,stand
20/08/2020, 09:12:18,1.4609619,7.829319,6.13604,-0.32816458,0.012855758,-0.14832394,10.054035769739905,0.3603571160476699,stand
20/08/2020, 09:12:18,1.4130616,7.937095,6.337222,-0.32816458,0.012855758,-0.14832394,10.2544920272399,0.3603571160476699,stand
20/08/2020, 09:12:18,1.4130616,7.937095,6.337222,-0.23042619,0.018964408,-0.18253237,10.2544920272399,0.2945741757022596,stand
20/08/2020, 09:12:18,1.1376343,8.011341,6.2821364,-0.23042619,0.018964408,-0.18253237,10.244073220316773,0.2945741757022596,stand
20/08/2020, 09:12:18,1.1376343,8.011341,6.2821364,-0.122913934,0.0018601877,-0.23506677,10.244073220316773,0.2652690758607498,stand
20/08/2020, 09:12:18,1.0418335,8.056846,5.992339,-0.122913934,0.0018601877,-0.23506677,10.094865400390285,0.2652690758607498,stand
20/08/2020, 09:12:19,3.5110989,4.1002736,9.211246,0.5026118,-0.110538974,-0.30470538,10.6764742881661,0.5980659427056029,stand
20/08/2020, 09:12:19,3.3338673,3.9924977,8.760982,0.5026118,-0.110538974,-0.30470538,10.188695053156552,0.5980659427056029,stand
20/08/2020, 09:12:19,3.3338673,3.9924977,8.760982,0.7225232,-0.27302906,-0.20818871,10.188695053156552,0.799954498524275,stand
20/08/2020, 09:12:19,3.3745828,3.7937112,8.49274,0.7225232,-0.27302906,-0.20818871,9.894780474666751,0.799954498524275,stand
20/08/2020, 09:12:19,3.3745828,3.7937112,8.49274,0.88379157,-0.48072317,-0.16054124,9.894780474666751,1.0188011528457583,stand
20/08/2020, 09:12:19,3.671565,3.8440065,8.193362,0.88379157,-0.48072317,-0.16054124,9.766676044448214,1.0188011528457583,stand
20/08/2020, 09:12:19,3.671565,3.8440065,8.193362,0.9216652,-0.72262573,-0.15687604,9.766676044448214,1.1816364785178362,stand
20/08/2020, 09:12:19,3.796106,4.2248144,8.811277,0.9216652,-0.72262573,-0.15687604,10.483228872788551,1.1816364785178362,stand
20/08/2020, 09:12:19,3.796106,4.2248144,8.811277,0.98153,-0.9706369,-0.2485058,10.483228872788551,1.4026019730804293,stand
20/08/2020, 09:12:19,3.7458107,4.24637,9.436378,0.98153,-0.9706369,-0.2485058,11.004906894705174,1.4026019730804293,stand
20/08/2020, 09:12:19,3.7458107,4.24637,9.436378,0.93876946,-1.056158,-0.37678745,11.004906894705174,1.4624385430021074,stand
20/08/2020, 09:12:19,3.2524366,3.8655617,9.891431,0.93876946,-1.056158,-0.37678745,11.106813939130163,1.4624385430021074,stand
20/08/2020, 09:12:19,3.2524366,3.8655617,9.891431,0.8190399,-0.9681935,-0.49529526,11.106813939130163,1.3614486094436802,stand
20/08/2020, 09:12:19,3.166216,3.2644117,9.987232,0.8190399,-0.9681935,-0.49529526,10.973883266795143,1.3614486094436802,stand
20/08/2020, 09:12:19,3.166216,3.2644117,9.987232,0.69564515,-0.84235525,-0.5380558,10.973883266795143,1.21778018081562,stand
20/08/2020, 09:12:19,3.1350808,3.300337,9.929751,0.69564515,-0.84235525,-0.5380558,10.923411523830648,1.21778018081562,stand
20/08/2020, 09:12:19,3.1350808,3.300337,9.929751,-0.8852735,0.5443083,-0.31447923,10.923411523830648,1.085761445420358,stand
20/08/2020, 09:12:19,4.737349,2.6512868,16.559166,-0.8852735,0.5443083,-0.31447923,17.426352885379313,1.085761445420358,stand
20/08/2020, 09:12:19,4.737349,2.6512868,16.559166,-2.2694936,1.9517413,0.0972438,17.426352885379313,2.9948875964577835,stand
20/08/2020, 09:12:19,4.87626,1.0873389,13.299544,-2.2694936,1.9517413,0.0972438,14.206973467751503,2.9948875964577835,stand
20/08/2020, 09:12:19,4.87626,1.0873389,13.299544,-2.4955134,2.5222893,0.5334014,14.206973467751503,3.588042307822151,stand
20/08/2020, 09:12:19,2.8955786,2.42376,10.214759,-2.4955134,2.5222893,0.5334014,10.890375871739137,3.588042307822151,stand
20/08/2020, 09:12:19,2.8955786,2.42376,10.214759,-1.8479967,2.1618788,0.86204684,10.890375871739137,2.9718574406946887,stand
20/08/2020, 09:12:19,2.7901978,2.5387208,10.011182,-1.8479967,2.1618788,0.86204684,10.698320860464536,2.9718574406946887,stand
20/08/2020, 09:12:19,2.7901978,2.5387208,10.011182,-0.89993423,1.3298808,0.9695591,10.698320860464536,1.8757690291982243,stand
20/08/2020, 09:12:19,3.6883302,3.9685476,13.012141,-0.89993423,1.3298808,0.9695591,14.094998003350375,1.8757690291982243,stand
20/08/2020, 09:12:19,3.6883302,3.9685476,13.012141,-0.09970107,0.9364837,0.8547164,14.094998003350375,1.2718027155540381,stand
20/08/2020, 09:12:19,4.512217,4.663103,15.045513,-0.09970107,0.9364837,0.8547164,16.385118225212807,1.2718027155540381,stand
20/08/2020, 09:12:19,4.512217,4.663103,15.045513,0.45374265,0.86317986,0.7068871,16.385118225212807,1.2044298564696987,stand
20/08/2020, 09:12:19,3.4631984,2.9003687,13.96536,0.45374265,0.86317986,0.7068871,14.677777524894339,1.2044298564696987,stand
20/08/2020, 09:12:20,0.7448511,3.2644117,10.056687,0.6027937,0.89372313,0.19986913,10.599440900558012,1.0963799241304797,stand
20/08/2020, 09:12:20,1.5543678,3.7122805,9.534574,0.6027937,0.89372313,0.19986913,10.349163187036188,1.0963799241304797,stand
20/08/2020, 09:12:20,1.5543678,3.7122805,9.534574,0.6479977,0.9902398,0.30738136,10.349163187036188,1.2226852215199433,stand
20/08/2020, 09:12:20,2.304009,3.666775,8.684341,0.6479977,0.9902398,0.30738136,9.704199203919194,1.2226852215199433,stand
20/08/2020, 09:12:20,2.304009,3.666775,8.684341,0.69564515,0.8546277,0.34281152,9.704199203919194,1.1540495983527548,stand
20/08/2020, 09:12:20,3.1183155,3.4368532,7.719148,0.69564515,0.8546277,0.34281152,9.006725226924795,1.1540495983527548,stand
20/08/2020, 09:12:20,3.1183155,3.4368532,7.719148,0.69442344,0.58706886,0.3648027,9.006725226924795,0.9797728067570678,stand
20/08/2020, 09:12:20,3.9685476,3.532654,7.0988383,0.69442344,0.58706886,0.3648027,8.866934090044674,0.9797728067570678,stand
20/08/2020, 09:12:20,3.9685476,3.532654,7.0988383,0.66388017,0.27797118,0.26095563,8.866934090044674,0.7655734432478218,stand
20/08/2020, 09:12:20,4.505032,3.8775368,6.792276,0.66388017,0.27797118,0.26095563,9.025830559765662,0.7655734432478218,stand
20/08/2020, 09:12:20,4.505032,3.8775368,6.792276,0.57591563,-0.049452476,0.08258304,9.025830559765662,0.5839043792538607,stand
20/08/2020, 09:12:20,4.6104126,4.6990285,6.7946706,0.57591563,-0.049452476,0.08258304,9.460672354776252,0.5839043792538607,stand
20/08/2020, 09:12:20,4.6104126,4.6990285,6.7946706,0.4231994,-0.37321094,-0.13366318,9.460672354776252,0.5798706477822034,stand
20/08/2020, 09:12:20,4.2751102,5.237908,6.2677665,0.4231994,-0.37321094,-0.13366318,9.219389525663507,0.5798706477822034,stand
20/08/2020, 09:12:20,4.2751102,5.237908,6.2677665,0.22283566,-0.7470603,-0.32303134,9.219389525663507,0.8438625869557305,stand
20/08/2020, 09:12:20,3.767366,4.873865,5.886958,0.22283566,-0.7470603,-0.32303134,8.520791235791409,0.8438625869557305,stand
20/08/2020, 09:12:20,3.767366,4.873865,5.886958,-0.008071315,-1.0928099,-0.48307797,8.520791235791409,1.194848520000562,stand
20/08/2020, 09:12:20,3.7386258,4.5768824,6.06419,-0.008071315,-1.0928099,-0.48307797,8.46756009980648,1.194848520000562,stand
20/08/2020, 09:12:20,3.7386258,4.5768824,6.06419,-0.2145437,-1.2210915,-0.6076944,8.46756009980648,1.380719356294935,stand
20/08/2020, 09:12:20,4.009263,4.2296047,7.8676395,-0.2145437,-1.2210915,-0.6076944,9.790990663176807,1.380719356294935,stand
20/08/2020, 09:12:20,4.009263,4.2296047,7.8676395,-0.31106034,-1.06471,-0.7139849,9.790990663176807,1.3191438171960834,stand
20/08/2020, 09:12:20,4.8427296,4.29427,9.479487,-0.31106034,-1.06471,-0.7139849,11.4783912882998,1.3191438171960834,stand
20/08/2020, 09:12:20,4.8427296,4.29427,9.479487,-0.317169,-0.7824905,-0.84104484,11.4783912882998,1.1917398958834309,stand
20/08/2020, 09:12:20,5.151687,4.5649076,10.574012,-0.317169,-0.7824905,-0.84104484,12.616972180079257,1.1917398958834309,stand
20/08/2020, 09:12:20,5.151687,4.5649076,10.574012,-0.21087849,-0.4330757,-0.998648,12.616972180079257,1.108747987787523,stand
20/08/2020, 09:12:20,4.646338,4.5577226,10.526112,-0.21087849,-0.4330757,-0.998648,12.375795617488464,1.108747987787523,stand
20/08/2020, 09:12:20,4.646338,4.5577226,10.526112,-0.18277872,-0.13253012,-1.1110471,12.375795617488464,1.1337539676667818,stand
20/08/2020, 09:12:20,3.9709425,4.0044727,9.527389,-0.18277872,-0.13253012,-1.1110471,11.07137386222956,1.1337539676667818,stand
20/08/2020, 09:12:20,3.9709425,4.0044727,9.527389,-0.23164791,0.07394226,-1.1550294,11.07137386222956,1.1803478992562224,stand
20/08/2020, 09:12:20,3.3578174,3.3123121,8.085587,-0.23164791,0.07394226,-1.1550294,9.360718947407628,1.1803478992562224,stand
20/08/2020, 09:12:21,-0.7544312,4.497847,10.849439,-0.07770993,0.48933047,0.62625295,11.769031998009648,0.7985461156272246,stand
20/08/2020, 09:12:21,-0.5029541,4.3373804,11.105706,-0.07770993,0.48933047,0.62625295,11.933253630024849,0.7985461156272246,stand
20/08/2020, 09:12:21,-0.5029541,4.3373804,11.105706,-0.003184395,0.8644016,0.7301,11.933253630024849,1.1314796529448308,stand
20/08/2020, 09:12:21,-0.026345216,4.5625124,10.365645,-0.003184395,0.8644016,0.7301,11.325361724361022,1.1314796529448308,stand
20/08/2020, 09:12:21,-0.026345216,4.5625124,10.365645,0.015141555,1.0806478,0.74353904,11.325361724361022,1.3118228874339612,stand
20/08/2020, 09:12:21,0.22752686,5.144502,9.1202345,0.015141555,1.0806478,0.74353904,10.473602442241601,1.3118228874339612,stand
20/08/2020, 09:12:21,0.22752686,5.144502,9.1202345,0.027358856,1.1270736,0.6677917,10.473602442241601,1.3103393821864007,stand
20/08/2020, 09:12:21,0.38080812,5.46304,8.087981,0.027358856,1.1270736,0.6677917,9.767561608578445,1.3103393821864007,stand
20/08/2020, 09:12:21,0.38080812,5.46304,8.087981,0.0017025247,1.0403308,0.5505057,9.767561608578445,1.177007870789891,stand
20/08/2020, 09:12:21,0.2778223,5.733677,7.575447,0.0017025247,1.0403308,0.5505057,9.504716441612013,1.177007870789891,stand
20/08/2020, 09:12:21,0.2778223,5.733677,7.575447,-0.037392836,0.8705102,0.390459,9.504716441612013,0.9548007644237326,stand
20/08/2020, 09:12:21,0.29698244,5.855823,7.3814507,-0.037392836,0.8705102,0.390459,9.426806234764832,0.9548007644237326,stand
20/08/2020, 09:12:21,0.29698244,5.855823,7.3814507,-0.045944944,0.67625517,0.19986913,9.426806234764832,0.7066679953848819,stand
20/08/2020, 09:12:21,0.05269043,5.9300685,7.726333,-0.045944944,0.67625517,0.19986913,9.739851765950812,0.7066679953848819,stand
20/08/2020, 09:12:21,0.05269043,5.9300685,7.726333,-0.033727646,0.55041695,0.02516173,9.739851765950812,0.55202308072731,stand
20/08/2020, 09:12:21,-0.20118165,5.9013286,8.195757,-0.033727646,0.55041695,0.02516173,10.10131596562433,0.55202308072731,stand
20/08/2020, 09:12:21,-0.20118165,5.9013286,8.195757,-0.0056278557,0.51865196,-0.08479397,10.10131596562433,0.525567833950059,stand
20/08/2020, 09:12:21,-0.5963599,5.4822,8.722662,-0.0056278557,0.51865196,-0.08479397,10.319641246520455,0.525567833950059,stand
20/08/2020, 09:12:21,-0.5963599,5.4822,8.722662,0.034689236,0.5601908,-0.104341656,10.319641246520455,0.5708802441603172,stand
20/08/2020, 09:12:21,-0.9580079,5.1468973,8.859178,0.034689236,0.5601908,-0.104341656,10.290449874765727,0.5708802441603172,stand
20/08/2020, 09:12:21,-0.9580079,5.1468973,8.859178,0.043241344,0.6261642,-0.057915915,10.290449874765727,0.6303218779412627,stand
20/08/2020, 09:12:21,-1.4585669,5.257068,8.327483,0.043241344,0.6261642,-0.057915915,9.955458758357008,0.6303218779412627,stand
20/08/2020, 09:12:21,-1.4585669,5.257068,8.327483,0.015141555,0.6420467,-0.01759882,9.955458758357008,0.6424662927422023,stand
20/08/2020, 09:12:21,-1.719624,5.738467,7.6496925,0.015141555,0.6420467,-0.01759882,9.716218849351442,0.6424662927422023,stand
20/08/2020, 09:12:21,-1.719624,5.738467,7.6496925,-0.016623426,0.56996465,-0.0029380603,9.716218849351442,0.5702145821197321,stand
20/08/2020, 09:12:21,-1.5807129,5.7480474,7.182664,-0.016623426,0.56996465,-0.0029380603,9.33431104202539,0.5702145821197321,stand
20/08/2020, 09:12:21,-1.5807129,5.7480474,7.182664,-0.041058026,0.41480494,0.019053081,9.33431104202539,0.417267199640111,stand
20/08/2020, 09:12:21,-1.6094532,5.5803957,6.71803,-0.041058026,0.41480494,0.019053081,8.880488866976457,0.417267199640111,stand
20/08/2020, 09:12:21,-1.6094532,5.5803957,6.71803,-0.08381858,0.16068509,0.019053081,8.880488866976457,0.1822313711882743,stand
20/08/2020, 09:12:21,-1.5807129,5.601951,6.595884,-0.08381858,0.16068509,0.019053081,8.796942276045526,0.1822313711882743,stand
20/08/2020, 09:12:22,-2.7375073,5.0487013,7.661668,0.055458646,-0.2253816,0.01416616,9.575201563160379,0.23253646205224163,stand
20/08/2020, 09:12:22,-2.672842,4.88105,7.810159,0.055458646,-0.2253816,0.01416616,9.58995941069683,0.23253646205224163,stand
20/08/2020, 09:12:22,-2.672842,4.88105,7.810159,0.06767595,-0.3109027,0.05570498,9.58995941069683,0.3230225640743916,stand
20/08/2020, 09:12:22,-2.663262,4.9313455,8.159832,0.06767595,-0.3109027,0.05570498,9.899191393773709,0.3230225640743916,stand
20/08/2020, 09:12:22,-2.663262,4.9313455,8.159832,0.044463076,-0.28524637,0.09113515,9.899191393773709,0.3027343288088049,stand
20/08/2020, 09:12:22,-2.5243506,5.0487013,8.464,0.044463076,-0.28524637,0.09113515,10.173545231928601,0.3027343288088049,stand
20/08/2020, 09:12:22,-2.5243506,5.0487013,8.464,0.021250205,-0.2046122,0.12290013,10.173545231928601,0.23962922049158467,stand
20/08/2020, 09:12:22,-2.42855,4.9576907,8.547825,0.021250205,-0.2046122,0.12290013,10.175552181122073,0.23962922049158467,stand
20/08/2020, 09:12:22,-2.42855,4.9576907,8.547825,0.018806746,-0.12886493,0.14244781,10.175552181122073,0.19300581199100683,stand
20/08/2020, 09:12:22,-2.2944288,4.897815,8.538245,0.018806746,-0.12886493,0.14244781,10.10715730321015,0.19300581199100683,stand
20/08/2020, 09:12:22,-2.2944288,4.897815,8.538245,0.035910964,-0.089769565,0.15099992,10.10715730321015,0.17930183342724684,stand
20/08/2020, 09:12:22,-2.1770728,4.9385304,8.384964,0.035910964,-0.089769565,0.15099992,9.97177766878324,0.17930183342724684,stand
20/08/2020, 09:12:22,-2.1770728,4.9385304,8.384964,0.054236915,-0.104430325,0.15099992,9.97177766878324,0.1914374864132421,stand
20/08/2020, 09:12:22,-2.1411476,4.8906302,8.243657,0.054236915,-0.104430325,0.15099992,9.82143878871567,0.1914374864132421,stand
20/08/2020, 09:12:22,-2.1411476,4.8906302,8.243657,0.08111498,-0.18139932,0.14366955,9.82143878871567,0.24520662641277197,stand
20/08/2020, 09:12:22,-2.0309765,4.8906302,8.258028,0.08111498,-0.18139932,0.14366955,9.810104832638606,0.24520662641277197,stand
20/08/2020, 09:12:22,-2.0309765,4.8906302,8.258028,0.105549574,-0.25959003,0.13267396,9.810104832638606,0.3100485071346513,stand
20/08/2020, 09:12:22,-1.9184108,4.8115945,8.423284,0.105549574,-0.25959003,0.13267396,9.888551341388576,0.3100485071346513,stand
20/08/2020, 09:12:22,-1.9184108,4.8115945,8.423284,0.105549574,-0.2864681,0.13023052,9.888551341388576,0.3319106290858082,stand
20/08/2020, 09:12:22,-1.7627344,4.7469287,8.631651,0.105549574,-0.2864681,0.13023052,10.007295453943023,0.3319106290858082,stand
20/08/2020, 09:12:22,-1.7627344,4.7469287,8.631651,0.092110544,-0.24981621,0.14611301,10.007295453943023,0.30371286093715194,stand
20/08/2020, 09:12:22,-1.5926881,4.792434,8.978929,0.092110544,-0.24981621,0.14611301,10.301710500450058,0.30371286093715194,stand
20/08/2020, 09:12:22,-1.5926881,4.792434,8.978929,0.078671515,-0.15818645,0.14977819,10.301710500450058,0.23161534018170535,stand
20/08/2020, 09:12:22,-1.4489869,4.7972245,9.280701,0.078671515,-0.15818645,0.14977819,10.547242828855834,0.23161534018170535,stand
20/08/2020, 09:12:22,-1.4489869,4.7972245,9.280701,0.10188439,0.060503226,0.1338957,10.547242828855834,0.178799121718619,stand
20/08/2020, 09:12:22,-1.3723463,4.993616,9.800421,0.10188439,0.060503226,0.1338957,11.084574110351944,0.178799121718619,stand
20/08/2020, 09:12:22,-1.3723463,4.993616,9.800421,0.114101686,0.4172484,0.07525266,11.084574110351944,0.43906535176555417,stand
20/08/2020, 09:12:22,-1.1951149,5.142107,9.994417,0.114101686,0.4172484,0.07525266,11.303005750109502,0.43906535176555417,stand
20/08/2020, 09:12:22,-1.1951149,5.142107,9.994417,0.14831012,0.83996695,-0.034703042,11.303005750109502,0.8536654356868775,stand
20/08/2020, 09:12:22,-0.6825806,5.503755,10.037527,0.14831012,0.83996695,-0.034703042,11.467745478114038,0.8536654356868775,stand
20/08/2020, 09:12:23,-4.790039,7.359895,6.090535,0.18862721,-0.6163352,0.8363905,10.68677456436614,1.055934837579592,stand
20/08/2020, 09:12:23,-4.5649076,7.5874224,6.6461797,0.18862721,-0.6163352,0.8363905,11.071542957893096,1.055934837579592,stand
20/08/2020, 09:12:23,-4.5649076,7.5874224,6.6461797,0.3340131,-0.63710463,0.8241732,11.071542957893096,1.093950889010383,stand
20/08/2020, 09:12:23,-4.4451566,7.6257424,7.053333,0.3340131,-0.63710463,0.8241732,11.29871091445931,1.093950889010383,stand
20/08/2020, 09:12:23,-4.4451566,7.6257424,7.053333,0.47939897,-0.65543056,0.7924082,11.29871091445931,1.134602741490796,stand
20/08/2020, 09:12:23,-4.3709106,7.424561,6.8832865,0.47939897,-0.65543056,0.7924082,11.027628891554558,1.134602741490796,stand
20/08/2020, 09:12:23,-4.3709106,7.424561,6.8832865,0.57347214,-0.72629094,0.7704171,11.027628891554558,1.2041226384009394,stand
20/08/2020, 09:12:23,-4.1984696,7.165899,6.686895,0.57347214,-0.72629094,0.7704171,10.662636458079088,1.2041226384009394,stand
20/08/2020, 09:12:23,-4.1984696,7.165899,6.686895,0.5710287,-0.76416457,0.75819975,10.662636458079088,1.2185598612334545,stand
20/08/2020, 09:12:23,-4.0811133,7.1084185,6.5264287,0.5710287,-0.76416457,0.75819975,10.477565114077846,1.2185598612334545,stand
20/08/2020, 09:12:23,-4.0811133,7.1084185,6.5264287,0.5527027,-0.77271664,0.7594215,10.477565114077846,1.216261635645354,stand
20/08/2020, 09:12:23,-3.9781277,6.926397,6.5288234,0.5527027,-0.77271664,0.7594215,10.31629817766866,1.216261635645354,stand
20/08/2020, 09:12:23,-3.9781277,6.926397,6.5288234,0.52582467,-0.7653863,0.75819975,10.31629817766866,1.198822174135963,stand
20/08/2020, 09:12:23,-3.908672,6.9072366,6.6102543,0.52582467,-0.7653863,0.75819975,10.328750960661743,1.198822174135963,stand
20/08/2020, 09:12:23,-3.908672,6.9072366,6.6102543,0.5136074,-0.72018224,0.7508694,10.328750960661743,1.1602843825256723,stand
20/08/2020, 09:12:23,-3.8104763,6.8689165,6.68929,0.5136074,-0.72018224,0.7508694,10.317380725150612,1.1602843825256723,stand
20/08/2020, 09:12:23,-3.8104763,6.8689165,6.68929,0.492838,-0.6236656,0.716661,10.317380725150612,1.070257440724973,stand
20/08/2020, 09:12:23,-3.6811452,6.7803006,6.7228203,0.492838,-0.6236656,0.716661,10.233260424826579,1.070257440724973,stand
20/08/2020, 09:12:23,-3.6811452,6.7803006,6.7228203,0.43908188,-0.4685059,0.64335716,10.233260424826579,0.9089549470075695,stand
20/08/2020, 09:12:23,-3.6116896,6.7850904,6.856941,0.43908188,-0.4685059,0.64335716,10.300456147032092,0.9089549470075695,stand
20/08/2020, 09:12:23,-3.6116896,6.7850904,6.856941,0.3498956,-0.28524637,0.52484936,10.300456147032092,0.6922855386291463,stand
20/08/2020, 09:12:23,-3.6212697,6.7324004,6.844966,0.3498956,-0.28524637,0.52484936,10.261206960606302,0.6922855386291463,stand
20/08/2020, 09:12:23,-3.6212697,6.7324004,6.844966,0.2814787,-0.110538974,0.3941242,10.261206960606302,0.4967726018325678,stand
20/08/2020, 09:12:23,-3.66438,6.5216384,6.912027,0.2814787,-0.110538974,0.3941242,10.185065747336665,0.4967726018325678,stand
20/08/2020, 09:12:23,-3.66438,6.5216384,6.912027,0.280257,0.015299217,0.29882926,10.185065747336665,0.40997191332486266,stand
20/08/2020, 09:12:23,-3.899092,6.1791506,6.67971,0.280257,0.015299217,0.29882926,9.899663858515366,0.40997191332486266,stand
20/08/2020, 09:12:23,-3.899092,6.1791506,6.67971,0.3095785,0.029959979,0.27317291,9.899663858515366,0.41395639202082246,stand
20/08/2020, 09:12:23,-4.018843,5.8749833,6.0378447,0.3095785,0.029959979,0.27317291,9.333921869769181,0.41395639202082246,stand
20/08/2020, 09:12:23,-4.018843,5.8749833,6.0378447,0.34012175,-0.09221302,0.3086031,9.333921869769181,0.468424936757385,stand
20/08/2020, 09:12:23,-4.1170387,5.6354814,5.5061502,0.34012175,-0.09221302,0.3086031,8.889676514780966,0.468424936757385,stand
20/08/2020, 09:12:24,-3.4943337,7.2497244,7.4676714,0.17274472,0.409918,0.65679616,10.978842747416714,0.7932557633773696,stand
20/08/2020, 09:12:24,-3.4943337,7.2497244,7.4676714,0.39754307,0.017742679,0.67512214,10.978842747416714,0.7836741693416699,stand
20/08/2020, 09:12:24,-3.3673975,7.999366,7.879615,0.39754307,0.017742679,0.67512214,11.722523167598364,0.7836741693416699,stand
20/08/2020, 09:12:24,-3.3673975,7.999366,7.879615,0.6809844,-0.40619764,0.59082276,11.722523167598364,0.9888416318123893,stand
20/08/2020, 09:12:24,-3.4368532,7.3814507,7.2664895,0.6809844,-0.40619764,0.59082276,10.913278297380948,0.9888416318123893,stand
20/08/2020, 09:12:24,-3.4368532,7.3814507,7.2664895,0.59790677,-0.9388719,0.44910204,10.913278297380948,1.2002773146209955,stand
20/08/2020, 09:12:24,-2.794988,7.079678,6.5240335,0.59790677,-0.9388719,0.44910204,10.024809852801098,1.2002773146209955,stand
20/08/2020, 09:12:24,-2.794988,7.079678,6.5240335,0.093332276,-1.5179719,0.268286,10.024809852801098,1.5443208520505216,stand
20/08/2020, 09:12:24,-2.4213648,6.5072684,6.023474,0.093332276,-1.5179719,0.268286,9.191832867237274,1.5443208520505216,stand
20/08/2020, 09:12:24,-2.4213648,6.5072684,6.023474,-0.49798504,-2.0237682,0.09480034,9.191832867237274,2.0862918952886456,stand
20/08/2020, 09:12:24,-2.4692652,6.246211,5.9156985,-0.49798504,-2.0237682,0.09480034,8.950302359266475,2.0862918952886456,stand
20/08/2020, 09:12:24,-2.4692652,6.246211,5.9156985,-0.83518255,-2.287662,0.00927924,8.950302359266475,2.435367231487875,stand
20/08/2020, 09:12:24,-2.3566992,6.4210477,5.8103175,-0.83518255,-2.287662,0.00927924,8.97461276594615,2.435367231487875,stand
20/08/2020, 09:12:24,-2.3566992,6.4210477,5.8103175,-0.9927857,-2.34997,0.0043923203,8.97461276594615,2.5510786355767245,stand
20/08/2020, 09:12:24,-2.0980372,6.349197,5.3552637,-0.9927857,-2.34997,0.0043923203,8.566966271048345,2.5510786355767245,stand
20/08/2020, 09:12:24,-2.0980372,6.349197,5.3552637,-1.0612026,-2.2424579,0.03249211,8.566966271048345,2.481093322570514,stand
20/08/2020, 09:12:24,-2.2513185,6.591094,5.8821683,-1.0612026,-2.2424579,0.03249211,9.116515724395079,2.481093322570514,stand
20/08/2020, 09:12:24,-2.2513185,6.591094,5.8821683,-1.0074465,-2.1508281,0.05814844,9.116515724395079,2.3757927859750954,stand
20/08/2020, 09:12:24,-2.2824538,6.5264287,6.6294146,-1.0074465,-2.1508281,0.05814844,9.578778846685145,2.3757927859750954,stand
20/08/2020, 09:12:24,-2.2824538,6.5264287,6.6294146,-0.81441313,-2.0677505,0.00927924,9.578778846685145,2.222374133866228,stand
20/08/2020, 09:12:24,-1.951941,6.2749515,7.089258,-0.81441313,-2.0677505,0.00927924,9.666574949809377,2.222374133866228,stand
20/08/2020, 09:12:24,-1.951941,6.2749515,7.089258,-0.58594966,-1.8038567,-0.104341656,9.666574949809377,1.8995060643466917,stand
20/08/2020, 09:12:24,-1.1280543,5.982759,7.683223,-0.58594966,-1.8038567,-0.104341656,9.80294974988968,1.8995060643466917,stand
20/08/2020, 09:12:24,-1.1280543,5.982759,7.683223,-0.39169455,-1.3493732,-0.20208006,9.80294974988968,1.4195312806885292,stand
20/08/2020, 09:12:24,-0.73527104,6.143225,8.0305,-0.39169455,-1.3493732,-0.20208006,10.13749358255918,1.4195312806885292,stand
20/08/2020, 09:12:24,-0.73527104,6.143225,8.0305,-0.2890692,-0.92787635,-0.19352795,10.13749358255918,0.9909432883216501,stand
20/08/2020, 09:12:24,-0.84544194,6.449788,8.020921,-0.2890692,-0.92787635,-0.19352795,10.32713456168268,0.9909432883216501,stand
20/08/2020, 09:12:24,-0.84544194,6.449788,8.020921,-0.3538209,-0.68719554,-0.061581105,10.32713456168268,0.7753832370508624,stand
20/08/2020, 09:12:24,-1.1879297,6.2797413,8.018526,-0.3538209,-0.68719554,-0.061581105,10.25393037698945,0.7753832370508624,stand
20/08/2020, 09:12:24,-1.1879297,6.2797413,8.018526,-0.4796591,-0.5503618,0.2035343,10.25393037698945,0.7578899654211948,stand
20/08/2020, 09:12:25,-3.2141163,7.664063,5.0630717,-1.3422005,0.12403319,0.2792816,9.731551800594964,1.3765480981052496,stand
20/08/2020, 09:12:25,-3.3721876,7.5179667,5.1828227,-1.3422005,0.12403319,0.2792816,9.734121660664648,1.3765480981052496,stand
20/08/2020, 09:12:25,-3.3721876,7.5179667,5.1828227,-1.3055487,0.12769838,0.34036806,9.734121660664648,1.3552175535727211,stand
20/08/2020, 09:12:25,-3.4871485,7.4125857,5.1947975,-1.3055487,0.12769838,0.34036806,9.700131614474756,1.3552175535727211,stand
20/08/2020, 09:12:25,-3.4871485,7.4125857,5.1947975,-1.3739655,0.165572,0.40756324,9.700131614474756,1.4426722019141989,stand
20/08/2020, 09:12:25,-3.661985,7.3527102,5.2283278,-1.3739655,0.165572,0.40756324,9.736934456411433,1.4426722019141989,stand
20/08/2020, 09:12:25,-3.661985,7.3527102,5.2283278,-1.5022472,0.20588909,0.43199784,9.736934456411433,1.576629043455784,stand
20/08/2020, 09:12:25,-3.4967287,7.1203933,5.5301003,-1.5022472,0.20588909,0.43199784,9.670011455675862,1.576629043455784,stand
20/08/2020, 09:12:25,-3.4967287,7.1203933,5.5301003,-1.597542,0.22054985,0.40023285,9.670011455675862,1.6616164316778874,stand
20/08/2020, 09:12:25,-3.408113,6.8425713,6.0570045,-1.597542,0.22054985,0.40023285,9.753118403695476,1.6616164316778874,stand
20/08/2020, 09:12:25,-3.408113,6.8425713,6.0570045,-1.5792161,0.28896675,0.33670288,9.753118403695476,1.6403640368363803,stand
20/08/2020, 09:12:25,-3.187771,6.6557593,6.67013,-1.5792161,0.28896675,0.33670288,9.947444295852435,1.6403640368363803,stand
20/08/2020, 09:12:25,-3.187771,6.6557593,6.67013,-1.5462295,0.40747455,0.27317291,9.947444295852435,1.622185118446957,stand
20/08/2020, 09:12:25,-2.9530592,6.473738,6.7683253,-1.5462295,0.40747455,0.27317291,9.820390652761438,1.622185118446957,stand
20/08/2020, 09:12:25,-2.9530592,6.473738,6.7683253,-1.5217948,0.36960092,0.22063853,9.820390652761438,1.581501060003621,stand
20/08/2020, 09:12:25,-2.9482691,6.1935205,7.1084185,-1.5217948,0.36960092,0.22063853,9.87833997581488,1.581501060003621,stand
20/08/2020, 09:12:25,-2.9482691,6.1935205,7.1084185,-1.4155043,0.19855872,0.21208642,9.87833997581488,1.4450116754093894,stand
20/08/2020, 09:12:25,-2.9913795,5.9372535,7.3527102,-1.4155043,0.19855872,0.21208642,9.912702866282883,1.4450116754093894,stand
20/08/2020, 09:12:25,-2.9913795,5.9372535,7.3527102,-1.317766,0.036068626,0.2646208,9.912702866282883,1.3445565147183436,stand
20/08/2020, 09:12:25,-3.0344899,5.589976,7.6329274,-1.317766,0.036068626,0.2646208,9.93567006093649,1.3445565147183436,stand
20/08/2020, 09:12:25,-3.0344899,5.589976,7.6329274,-1.2334665,-0.07144361,0.3538071,9.93567006093649,1.2851938643549092,stand
20/08/2020, 09:12:25,-2.8931837,5.3552637,8.178992,-1.2334665,-0.07144361,0.3538071,10.195355606805599,1.2851938643549092,stand
20/08/2020, 09:12:25,-2.8931837,5.3552637,8.178992,-1.0746417,-0.082439184,0.47109318,10.195355606805599,1.1762566873065055,stand
20/08/2020, 09:12:25,-2.8261232,5.3792143,8.401729,-1.0746417,-0.082439184,0.47109318,10.368797561471927,1.1762566873065055,stand
20/08/2020, 09:12:25,-2.8261232,5.3792143,8.401729,-0.8974908,0.0959334,0.62258774,10.368797561471927,1.0964982657682414,stand
20/08/2020, 09:12:25,-2.6536818,5.333709,8.375383,-0.8974908,0.0959334,0.62258774,10.278011614119125,1.0964982657682414,stand
20/08/2020, 09:12:25,-2.6536818,5.333709,8.375383,-0.8596172,0.3769313,0.8021821,10.278011614119125,1.2347125108088606,stand
20/08/2020, 09:12:25,-2.7159522,5.51094,7.8748245,-0.8596172,0.3769313,0.8021821,9.98797867020121,1.2347125108088606,stand
20/08/2020, 09:12:25,-2.7159522,5.51094,7.8748245,-1.0062248,0.6127252,0.93046373,9.98797867020121,1.501227222745968,stand
20/08/2020, 09:12:25,-2.6776319,6.1743608,7.704778,-1.0062248,0.6127252,0.93046373,10.230153961375084,1.501227222745968,stand
20/08/2020, 09:12:26,0.9316626,6.1743608,3.791316,-6.301203,0.32195345,-1.5545352,7.305121709499727,6.498106643867582,stand
20/08/2020, 09:12:26,0.9316626,6.1743608,3.791316,-7.196731,0.32073173,-1.7035862,7.305121709499727,7.402568016795649,stand
20/08/2020, 09:12:26,2.7255323,9.534574,3.9733377,-7.196731,0.32073173,-1.7035862,10.68288496805888,7.402568016795649,stand
20/08/2020, 09:12:26,2.7255323,9.534574,3.9733377,-8.136241,1.25169,-1.8587459,10.68288496805888,8.43919909226938,stand
20/08/2020, 09:12:26,2.5147705,10.966795,5.8677983,-8.136241,1.25169,-1.8587459,12.689591001771362,8.43919909226938,stand
20/08/2020, 09:12:26,2.5147705,10.966795,5.8677983,-8.916926,3.0097594,-1.9100586,12.689591001771362,9.60304909197676,stand
20/08/2020, 09:12:26,0.9987232,9.383687,6.4258375,-8.916926,3.0097594,-1.9100586,11.416760395015928,9.60304909197676,stand
20/08/2020, 09:12:26,0.9987232,9.383687,6.4258375,-9.006113,3.9175048,-1.7219121,11.416760395015928,9.971052978943918,stand
20/08/2020, 09:12:26,-0.9963282,8.734636,4.984036,-9.006113,3.9175048,-1.7219121,10.105798126914525,9.971052978943918,stand
20/08/2020, 09:12:26,-0.9963282,8.734636,4.984036,-8.05805,3.464243,-1.4702358,10.105798126914525,8.89352263192973,stand
20/08/2020, 09:12:26,-0.7783814,3.9014869,16.187937,-8.05805,3.464243,-1.4702358,16.66963631053105,8.89352263192973,stand
20/08/2020, 09:12:26,-0.7783814,3.9014869,16.187937,-5.077029,2.2852736,-1.48734,16.66963631053105,5.76288826786753,stand
20/08/2020, 09:12:26,-0.7783814,3.2093263,21.785099,-5.077029,2.2852736,-1.48734,22.03397813450151,5.76288826786753,stand
20/08/2020, 09:12:26,-0.7783814,3.2093263,21.785099,-4.0898714,0.061724957,-1.7756683,22.03397813450151,4.459131739952918,stand
20/08/2020, 09:12:26,-2.7686427,2.0094216,13.213324,-4.0898714,0.061724957,-1.7756683,13.648995482890284,4.459131739952918,stand
20/08/2020, 09:12:26,-2.7686427,2.0094216,13.213324,-3.9383767,-1.616932,-1.9210541,13.648995482890284,4.670731089564868,stand
20/08/2020, 09:12:26,-3.8487966,0.15088624,8.823253,-3.9383767,-1.616932,-1.9210541,9.62734593696155,4.670731089564868,stand
20/08/2020, 09:12:26,-3.8487966,0.15088624,8.823253,-3.2823076,-2.0799677,-1.7145818,9.62734593696155,4.24730503289222,stand
20/08/2020, 09:12:26,-3.5877395,-2.1028273,9.850716,-3.2823076,-2.0799677,-1.7145818,10.69253738598493,4.24730503289222,stand
20/08/2020, 09:12:26,-3.5877395,-2.1028273,9.850716,-2.9854274,-1.9639033,-1.3480628,10.69253738598493,3.819288681103414,stand
20/08/2020, 09:12:26,-1.7483643,-3.8320315,12.027788,-2.9854274,-1.9639033,-1.3480628,12.743976272413887,3.819288681103414,stand
20/08/2020, 09:12:26,-1.7483643,-3.8320315,12.027788,-2.4674137,-1.6474752,-0.94244844,12.743976272413887,3.1129590296788154,stand
20/08/2020, 09:12:26,0.08861572,-3.271597,13.021722,-2.4674137,-1.6474752,-0.94244844,13.426706176660321,3.1129590296788154,stand
20/08/2020, 09:12:26,0.08861572,-3.271597,13.021722,-1.3690786,-0.89122444,-0.5637121,13.426706176660321,1.728128662959131,stand
20/08/2020, 09:12:26,0.41912845,-0.5460645,13.471986,-1.3690786,-0.89122444,-0.5637121,13.489561035920284,1.728128662959131,stand
20/08/2020, 09:12:26,0.41912845,-0.5460645,13.471986,-0.048388407,0.15213297,-0.20330179,13.489561035920284,0.25849080475649816,stand
20/08/2020, 09:12:26,-0.3520679,1.6214283,12.557088,-0.048388407,0.15213297,-0.20330179,12.666232188622631,0.25849080475649816,stand
20/08/2020, 09:12:26,-0.3520679,1.6214283,12.557088,1.1599026,0.8363018,0.114348024,12.666232188622631,1.4345208800524125,stand
20/08/2020, 09:12:26,-0.74006104,2.0980372,10.875784,1.1599026,0.8363018,0.114348024,11.10099664459097,1.4345208800524125,stand
20/08/2020, 09:12:26,-0.74006104,2.0980372,10.875784,1.8562887,0.82530624,0.3733548,11.10099664459097,2.0655100623035527,stand
20/08/2020, 09:12:27,-0.62031007,4.7157936,6.622229,-1.9506221,0.3476098,0.5260711,8.153368150182837,2.0500024007485855,stand
20/08/2020, 09:12:27,-1.0466236,5.096602,6.5479836,-1.9506221,0.3476098,0.5260711,8.363424079721291,2.0500024007485855,stand
20/08/2020, 09:12:27,-1.0466236,5.096602,6.5479836,-1.9322962,0.17901103,0.38923728,8.363424079721291,1.9792218297219561,stand
20/08/2020, 09:12:27,-1.2070899,5.613926,6.456973,-1.9322962,0.17901103,0.38923728,8.640933498303871,1.9792218297219561,stand
20/08/2020, 09:12:27,-1.2070899,5.613926,6.456973,-1.7527018,-0.018909222,0.2035343,8.640933498303871,1.7645813183860166,stand
20/08/2020, 09:12:27,-0.6993457,6.3851223,7.048543,-1.7527018,-0.018909222,0.2035343,9.536290121671264,1.7645813183860166,stand
20/08/2020, 09:12:27,-0.6993457,6.3851223,7.048543,-1.3984001,-0.10565205,-0.09334608,9.536290121671264,1.4054887397040146,stand
20/08/2020, 09:12:27,-0.33530274,6.933582,7.699988,-1.3984001,-0.10565205,-0.09334608,10.367101735230754,1.4054887397040146,stand
20/08/2020, 09:12:27,-0.33530274,6.933582,7.699988,-1.1320629,-0.0995434,-0.37190053,10.367101735230754,1.195736312247373,stand
20/08/2020, 09:12:27,-0.2083667,7.110813,8.0305,-1.1320629,-0.0995434,-0.37190053,10.728281179940147,1.195736312247373,stand
20/08/2020, 09:12:27,-0.2083667,7.110813,8.0305,-1.0404332,-0.044565555,-0.58570325,10.728281179940147,1.194795199205883,stand
20/08/2020, 09:12:27,-0.07185059,6.8689165,8.401729,-1.0404332,-0.044565555,-0.58570325,10.852475317781575,1.194795199205883,stand
20/08/2020, 09:12:27,-0.07185059,6.8689165,8.401729,-1.0941893,-0.040900365,-0.7286457,10.852475317781575,1.3152366951647496,stand
20/08/2020, 09:12:27,0.1460962,6.686895,8.337064,-1.0941893,-0.040900365,-0.7286457,10.688430195601201,1.3152366951647496,stand
20/08/2020, 09:12:27,0.1460962,6.686895,8.337064,-1.1149588,-0.09465648,-0.82394063,10.688430195601201,1.389593848096515,stand
20/08/2020, 09:12:27,0.14849122,6.9311867,8.959768,-1.1149588,-0.09465648,-0.82394063,11.328761904338371,1.389593848096515,stand
20/08/2020, 09:12:27,0.14849122,6.9311867,8.959768,-0.98667705,-0.11542589,-0.9387832,11.328761904338371,1.3668096753631815,stand
20/08/2020, 09:12:27,0.39996827,7.510782,9.065149,-0.98667705,-0.11542589,-0.9387832,11.77916589993399,1.3668096753631815,stand
20/08/2020, 09:12:27,0.39996827,7.510782,9.065149,-0.8290739,-0.08610437,-1.0817256,11.77916589993399,1.3656162609587024,stand
20/08/2020, 09:12:27,0.28261232,8.128696,8.947793,-0.8290739,-0.08610437,-1.0817256,12.0920872995656,1.3656162609587024,stand
20/08/2020, 09:12:27,0.28261232,8.128696,8.947793,-0.7973089,-0.032348253,-1.1904596,12.0920872995656,1.433158053740529,stand
20/08/2020, 09:12:27,0.1939966,7.9849954,8.928633,-0.7973089,-0.032348253,-1.1904596,11.979911026282148,1.433158053740529,stand
20/08/2020, 09:12:27,0.1939966,7.9849954,8.928633,-0.8852735,0.018964408,-1.2271115,11.979911026282148,1.513232097029759,stand
20/08/2020, 09:12:27,0.21555176,6.830596,8.861572,-0.8852735,0.018964408,-1.2271115,11.190664273815084,1.513232097029759,stand
20/08/2020, 09:12:27,0.21555176,6.830596,8.861572,-1.0917459,0.071498804,-1.2393289,11.190664273815084,1.6531657853060662,stand
20/08/2020, 09:12:27,0.119750984,5.616321,8.598121,-1.0917459,0.071498804,-1.2393289,10.270593081146638,1.6531657853060662,stand
20/08/2020, 09:12:27,0.119750984,5.616321,8.598121,-1.281114,0.15213297,-1.2222246,10.270593081146638,1.7771410841623907,stand
20/08/2020, 09:12:27,-0.18920656,4.3493557,9.168135,-1.281114,0.15213297,-1.2222246,10.149255528701438,1.7771410841623907,stand
20/08/2020, 09:12:27,-0.18920656,4.3493557,9.168135,-1.3202094,0.1936718,-1.1562512,10.149255528701438,1.7656099229528472,stand
20/08/2020, 09:12:27,-0.8167017,3.1925611,9.984837,-1.3202094,0.1936718,-1.1562512,10.514580822559623,1.7656099229528472,stand
20/08/2020, 09:12:28,-0.25147706,3.0656252,10.229129,0.024915395,0.40625283,0.06547882,10.68159048545935,0.41224945751937697,stand
20/08/2020, 09:12:28,-1.2789404,2.7782228,10.27224,0.024915395,0.40625283,0.06547882,10.717887791768137,0.41224945751937697,stand
20/08/2020, 09:12:28,-1.2789404,2.7782228,10.27224,0.051793456,0.33539248,0.18887356,10.717887791768137,0.3883862714408636,stand
20/08/2020, 09:12:28,-1.6429834,2.5267458,9.994417,0.051793456,0.33539248,0.18887356,10.438975709825176,0.3883862714408636,stand
20/08/2020, 09:12:28,-1.6429834,2.5267458,9.994417,0.0041459855,0.18756315,0.32692903,10.438975709825176,0.37693463271930056,stand
20/08/2020, 09:12:28,-1.5615528,2.9865894,9.354947,0.0041459855,0.18756315,0.32692903,9.943500315532216,0.37693463271930056,stand
20/08/2020, 09:12:28,-1.5615528,2.9865894,9.354947,-0.13513124,0.06294669,0.4393282,9.943500315532216,0.46393102913097867,stand
20/08/2020, 09:12:28,-1.0849439,3.6500099,9.244776,-0.13513124,0.06294669,0.4393282,9.998277570509767,0.46393102913097867,stand
20/08/2020, 09:12:28,-1.0849439,3.6500099,9.244776,-0.33182976,6.384576E-4,0.48208874,9.998277570509767,0.5852528963061677,stand
20/08/2020, 09:12:28,-0.52690434,3.8392165,9.280701,-0.33182976,6.384576E-4,0.48208874,10.057266849189578,0.5852528963061677,stand
20/08/2020, 09:12:28,-0.52690434,3.8392165,9.280701,-0.5358587,-0.010357113,0.43688476,10.057266849189578,0.6914622914453287,stand
20/08/2020, 09:12:28,-0.26584718,3.7362306,8.969349,-0.5358587,-0.010357113,0.43688476,9.720047002440866,0.6914622914453287,stand
20/08/2020, 09:12:28,-0.26584718,3.7362306,8.969349,-0.7411094,0.018964408,0.39168075,9.720047002440866,0.8384608259248618,stand
20/08/2020, 09:12:28,-0.43349856,3.422483,8.938213,-0.7411094,0.018964408,0.39168075,9.580864706591866,0.8384608259248618,stand
20/08/2020, 09:12:28,-0.43349856,3.422483,8.938213,-0.9304775,-0.012800573,0.33792463,9.580864706591866,0.9900228723634168,stand
20/08/2020, 09:12:28,-0.57959473,3.288362,8.643626,-0.9304775,-0.012800573,0.33792463,9.26614963074588,0.9900228723634168,stand
20/08/2020, 09:12:28,-0.57959473,3.288362,8.643626,-1.036768,-0.020130953,0.35258538,9.26614963074588,1.0952668643693384,stand
20/08/2020, 09:12:28,-0.90771246,2.7830129,9.455538,-1.036768,-0.020130953,0.35258538,9.898297709149924,1.0952668643693384,stand
20/08/2020, 09:12:28,-0.90771246,2.7830129,9.455538,-1.0831938,-0.037235174,0.35869402,9.898297709149924,1.1416464508933617,stand
20/08/2020, 09:12:28,-0.87418216,2.459685,9.316627,-1.0831938,-0.037235174,0.35869402,9.675421201913169,1.1416464508933617,stand
20/08/2020, 09:12:28,-0.87418216,2.459685,9.316627,-1.1088501,-0.056782857,0.3648027,9.675421201913169,1.1686975169747738,stand
20/08/2020, 09:12:28,-0.7783814,2.4788454,9.498648,-1.1088501,-0.056782857,0.3648027,9.8475814217927,1.1686975169747738,stand
20/08/2020, 09:12:28,-0.7783814,2.4788454,9.498648,-1.0746417,-0.044565555,0.3660244,9.8475814217927,1.1361402847921538,stand
20/08/2020, 09:12:28,-0.6394702,2.1507277,10.061478,-1.0746417,-0.044565555,0.3660244,10.308631564713547,1.1361402847921538,stand
20/08/2020, 09:12:28,-0.6394702,2.1507277,10.061478,-0.95979905,-0.007913653,0.3501419,10.308631564713547,1.021702600454886,stand
20/08/2020, 09:12:28,-0.67539555,1.7028589,10.039923,-0.95979905,-0.007913653,0.3501419,10.205681543752823,1.021702600454886,stand
20/08/2020, 09:12:28,-0.67539555,1.7028589,10.039923,-0.80463934,6.384576E-4,0.29882926,10.205681543752823,0.8583378119043934,stand
20/08/2020, 09:12:28,-0.6730005,1.4968873,10.260264,-0.80463934,6.384576E-4,0.29882926,10.390699054900441,0.8583378119043934,stand
20/08/2020, 09:12:28,-0.6730005,1.4968873,10.260264,-0.6079408,0.007968837,0.23529929,10.390699054900441,0.6519365503781058,stand
20/08/2020, 09:12:28,-0.7376661,1.4202466,10.0063925,-0.6079408,0.007968837,0.23529929,10.133565122014256,0.6519365503781058,stand
20/08/2020, 09:12:29,-0.71371585,4.4834766,8.933423,-0.914595,0.06905534,0.15099992,10.020828326025114,0.9295448585336266,stand
20/08/2020, 09:12:29,-0.7041358,4.258345,9.630374,-0.914595,0.06905534,0.15099992,10.553360266793995,0.9295448585336266,stand
20/08/2020, 09:12:29,-0.7041358,4.258345,9.630374,-0.62748843,0.050729387,0.17299107,10.553360266793995,0.6528714384741214,stand
20/08/2020, 09:12:29,-0.60594,3.8368216,10.018367,-0.62748843,0.050729387,0.17299107,10.745047069739805,0.6528714384741214,stand
20/08/2020, 09:12:29,-0.60594,3.8368216,10.018367,-0.3135038,0.04217728,0.17299107,10.745047069739805,0.3605405190876804,stand
20/08/2020, 09:12:29,-0.53169435,3.8368216,9.802815,-0.3135038,0.04217728,0.17299107,10.540355261375234,0.3605405190876804,stand
20/08/2020, 09:12:29,-0.53169435,3.8368216,9.802815,-0.0764882,0.03851209,0.16810414,10.540355261375234,0.1886600852009046,stand
20/08/2020, 09:12:29,-0.5245093,4.0044727,9.527389,-0.0764882,0.03851209,0.16810414,10.348045462685265,0.1886600852009046,stand
20/08/2020, 09:12:29,-0.5245093,4.0044727,9.527389,0.10188439,0.018964408,0.16443895,10.348045462685265,0.19437140942825235,stand
20/08/2020, 09:12:29,-0.5340894,4.2008643,9.489068,0.10188439,0.018964408,0.16443895,10.391098333135869,0.19437140942825235,stand
20/08/2020, 09:12:29,-0.5340894,4.2008643,9.489068,0.69808865,0.04950766,0.18887356,10.391098333135869,0.7248806710450425,stand
20/08/2020, 09:12:29,-0.81909674,3.0033545,13.261224,0.69808865,0.04950766,0.18887356,13.621714815484845,0.7248806710450425,stand
20/08/2020, 09:12:29,-0.81909674,3.0033545,13.261224,1.4482309,-0.044565555,0.2878337,13.621714815484845,1.4772294857514892,stand
20/08/2020, 09:12:29,-1.3483961,2.938689,9.951306,1.4482309,-0.044565555,0.2878337,10.46339155706008,1.4772294857514892,stand
20/08/2020, 09:12:29,-1.3483961,2.938689,9.951306,1.4812175,-0.104430325,0.49919298,10.46339155706008,1.5665582082556062,stand
20/08/2020, 09:12:29,-1.5136524,4.646338,8.54064,1.4812175,-0.104430325,0.49919298,9.839823672963602,1.5665582082556062,stand
20/08/2020, 09:12:29,-1.5136524,4.646338,8.54064,1.2784104,-0.18384278,0.71177405,9.839823672963602,1.4747046167465032,stand
20/08/2020, 09:12:29,-1.1280543,5.613926,8.420889,1.2784104,-0.18384278,0.71177405,10.183321692146226,1.4747046167465032,stand
20/08/2020, 09:12:29,-1.1280543,5.613926,8.420889,1.1916676,-0.3060158,0.7862996,10.183321692146226,1.460131592932249,stand
20/08/2020, 09:12:29,-0.4981641,5.760022,8.653206,1.1916676,-0.3060158,0.7862996,10.406920516504732,1.460131592932249,stand
20/08/2020, 09:12:29,-0.4981641,5.760022,8.653206,1.1928893,-0.32922864,0.81073415,10.406920516504732,1.479414182668463,stand
20/08/2020, 09:12:29,-0.38320315,5.494175,8.485555,1.1928893,-0.32922864,0.81073415,10.11619699286579,1.479414182668463,stand
20/08/2020, 09:12:29,-0.38320315,5.494175,8.485555,1.1696764,-0.2974637,0.79485166,10.11619699286579,1.4451355442698308,stand
20/08/2020, 09:12:29,0.011975098,5.2882032,8.140672,1.1696764,-0.2974637,0.79485166,9.707511170269756,1.4451355442698308,stand
20/08/2020, 09:12:29,0.011975098,5.2882032,8.140672,1.1012595,-0.25592485,0.7337652,9.707511170269756,1.347843201556363,stand
20/08/2020, 09:12:29,0.13172609,5.0726514,7.8700347,1.1012595,-0.25592485,0.7337652,9.364111807514922,1.347843201556363,stand
20/08/2020, 09:12:29,0.13172609,5.0726514,7.8700347,0.98763865,-0.20705566,0.67512214,9.364111807514922,1.2141219294279295,stand
20/08/2020, 09:12:29,0.17244141,5.108577,7.5179667,0.98763865,-0.20705566,0.67512214,9.091045963717638,1.2141219294279295,stand
20/08/2020, 09:12:29,0.17244141,5.108577,7.5179667,0.8190399,-0.16551682,0.6360268,9.091045963717638,1.0501201054286393,stand
20/08/2020, 09:12:29,0.14370118,5.398374,7.311995,0.8190399,-0.16551682,0.6360268,9.090014524453805,1.0501201054286393,stand
20/08/2020, 09:12:30,0.72569096,8.375383,6.809041,-0.23286963,0.12647665,-0.02615093,10.818350786513518,0.26628645349434843,stand
20/08/2020, 09:12:30,1.463357,7.683223,7.7598634,-0.23286963,0.12647665,-0.02615093,11.0176587982463,0.26628645349434843,stand
20/08/2020, 09:12:30,1.463357,7.683223,7.7598634,-0.06304917,0.22665851,0.011722701,11.0176587982463,0.23555614734338756,stand
20/08/2020, 09:12:30,1.1615845,6.1743608,9.857901,-0.06304917,0.22665851,0.011722701,11.689748237824519,0.23555614734338756,stand
20/08/2020, 09:12:30,1.1615845,6.1743608,9.857901,0.11532342,0.2181064,0.16077375,11.689748237824519,0.2944793608036454,stand
20/08/2020, 09:12:30,0.34727785,6.320457,6.016289,0.11532342,0.2181064,0.16077375,8.732955657228956,0.2944793608036454,stand
20/08/2020, 09:12:30,0.34727785,6.320457,6.016289,-0.33427322,0.2999623,0.41978052,8.732955657228956,0.6147614665584774,stand
20/08/2020, 09:12:30,-0.49097902,8.519085,7.549102,-0.33427322,0.2999623,0.41978052,11.393191250843007,0.6147614665584774,stand
20/08/2020, 09:12:30,-0.49097902,8.519085,7.549102,-0.58228445,0.17045893,0.512632,11.393191250843007,0.7942940308750722,stand
20/08/2020, 09:12:30,0.27303225,8.519085,8.131092,-0.58228445,0.17045893,0.512632,11.779813790375332,0.7942940308750722,stand
20/08/2020, 09:12:30,0.27303225,8.519085,8.131092,-0.6445927,0.08738129,0.36358094,11.779813790375332,0.7452022162033916,stand
20/08/2020, 09:12:30,0.05269043,7.7646537,8.813672,-0.6445927,0.08738129,0.36358094,11.746209532282597,0.7452022162033916,stand
20/08/2020, 09:12:30,0.05269043,7.7646537,8.813672,-0.61893636,0.100820325,0.47109318,11.746209532282597,0.7843313953593977,stand
20/08/2020, 09:12:30,-0.2778223,7.33355,7.9466753,-0.61893636,0.100820325,0.47109318,10.817013858328956,0.7843313953593977,stand
20/08/2020, 09:12:30,-0.2778223,7.33355,7.9466753,-0.9451383,0.022629598,0.68856114,10.817013858328956,1.169578943180926,stand
20/08/2020, 09:12:30,0.27303225,8.217313,7.549102,-0.9451383,0.022629598,0.68856114,11.161886708999795,1.169578943180926,stand
20/08/2020, 09:12:30,0.27303225,8.217313,7.549102,-1.3751873,0.04217728,0.72887826,11.161886708999795,1.5569786412263884,stand
20/08/2020, 09:12:30,0.4406836,8.349038,8.202942,-1.3751873,0.04217728,0.72887826,11.712766341077486,1.5569786412263884,stand
20/08/2020, 09:12:30,0.4406836,8.349038,8.202942,-1.6635156,-0.044565555,0.66290486,11.712766341077486,1.7912880796936244,stand
20/08/2020, 09:12:30,0.30416748,7.1467385,8.466394,-1.6635156,-0.044565555,0.66290486,11.083691804197747,1.7912880796936244,stand
20/08/2020, 09:12:30,0.30416748,7.1467385,8.466394,-1.7673626,-0.13375185,0.6812308,11.083691804197747,1.8988247627606158,stand
20/08/2020, 09:12:30,0.0071850587,5.7887626,8.950189,-1.7673626,-0.13375185,0.6812308,10.659066579406229,1.8988247627606158,stand
20/08/2020, 09:12:30,0.0071850587,5.7887626,8.950189,-1.6647372,-0.20216873,0.75819975,10.659066579406229,1.8404045985711273,stand
20/08/2020, 09:12:30,0.07903565,4.996011,9.498648,-1.6647372,-0.20216873,0.75819975,10.732692033504872,1.8404045985711273,stand
20/08/2020, 09:12:30,0.07903565,4.996011,9.498648,-1.4521562,-0.28524637,0.84616435,10.732692033504872,1.7047337568399574,stand
20/08/2020, 09:12:30,-0.021555176,4.8331494,9.053174,-1.4521562,-0.28524637,0.84616435,10.26254149245666,1.7047337568399574,stand
20/08/2020, 09:12:30,-0.021555176,4.8331494,9.053174,-1.4374955,-0.31823307,0.93535066,10.26254149245666,1.7442896449944953,stand
20/08/2020, 09:12:30,0.12933107,5.5684204,8.835227,-1.4374955,-0.31823307,0.93535066,10.444389343277631,1.7442896449944953,stand
20/08/2020, 09:12:30,0.12933107,5.5684204,8.835227,-1.4472693,-0.30845925,0.97811115,10.444389343277631,1.773819893295764,stand
20/08/2020, 09:12:30,0.35925296,5.3313136,8.581355,-1.4472693,-0.30845925,0.97811115,10.108987227354952,1.773819893295764,stand
20/08/2020, 09:12:31,0.8167017,4.754114,6.6821046,0.3095785,0.87539715,0.62747467,8.24130601077605,1.120662068380836,stand
20/08/2020, 09:12:31,0.8167017,4.754114,6.6821046,0.15319705,0.90838385,0.5358449,8.24130601077605,1.0657205679018984,stand
20/08/2020, 09:12:31,0.7376661,5.039121,6.332432,0.15319705,0.90838385,0.5358449,8.126289782019901,1.0657205679018984,stand
20/08/2020, 09:12:31,0.7376661,5.039121,6.332432,-0.066714354,0.94870096,0.41733706,8.126289782019901,1.0385829512316909,stand
20/08/2020, 09:12:31,0.7376661,5.039121,6.332432,-0.32205594,0.98168766,0.30127272,8.126289782019901,1.076195126026406,stand
20/08/2020, 09:12:31,0.4742139,4.775669,6.3851223,-0.32205594,0.98168766,0.30127272,7.987595441028444,1.076195126026406,stand
20/08/2020, 09:12:31,-0.0023950196,4.277505,6.734795,-0.32205594,0.98168766,0.30127272,7.978378220971553,1.076195126026406,stand
20/08/2020, 09:12:31,-0.0023950196,4.277505,6.734795,-0.48454604,0.99268323,0.24507314,7.978378220971553,1.1314882690908505,stand
20/08/2020, 09:12:31,-0.39757326,3.8368216,7.472461,-0.48454604,0.99268323,0.24507314,8.409336530936576,1.1314882690908505,stand
20/08/2020, 09:12:31,-0.39757326,3.8368216,7.472461,-0.50042856,0.96213996,0.21452989,8.409336530936576,1.1055157728097722,stand
20/08/2020, 09:12:31,-0.6466553,3.551814,8.313113,-0.50042856,0.96213996,0.21452989,9.063189154122401,1.1055157728097722,stand
20/08/2020, 09:12:31,-0.6466553,3.551814,8.313113,-0.39169455,0.8802841,0.19986913,9.063189154122401,0.9840082978962713,stand
20/08/2020, 09:12:31,-0.93405765,3.7290456,8.590936,-0.39169455,0.8802841,0.19986913,9.41182348587835,0.9840082978962713,stand
20/08/2020, 09:12:31,-0.93405765,3.7290456,8.590936,-0.194996,0.78621083,0.22674718,9.41182348587835,0.8411689501514117,stand
20/08/2020, 09:12:31,-0.7759864,4.2248144,8.49274,-0.194996,0.78621083,0.22674718,9.517239038782566,0.8411689501514117,stand
20/08/2020, 09:12:31,-0.7759864,4.2248144,8.49274,-0.07037955,0.70679843,0.17909971,9.517239038782566,0.7325257764096073,stand
20/08/2020, 09:12:31,-0.4047583,4.653523,8.145462,-0.07037955,0.70679843,0.17909971,9.38976341999364,0.7325257764096073,stand
20/08/2020, 09:12:31,-0.4047583,4.653523,8.145462,-0.07037955,0.6738117,0.07769612,9.38976341999364,0.6819179865146408,stand
20/08/2020, 09:12:31,-0.1460962,4.9529004,7.8891945,-0.07037955,0.6738117,0.07769612,9.316220062114919,0.6819179865146408,stand
20/08/2020, 09:12:31,-0.1460962,4.9529004,7.8891945,-0.14001817,0.6823638,0.019053081,9.316220062114919,0.6968417848684131,stand
20/08/2020, 09:12:31,0.014370117,5.1564775,7.7550735,-0.14001817,0.6823638,0.019053081,9.312928214654272,0.6968417848684131,stand
20/08/2020, 09:12:31,0.014370117,5.1564775,7.7550735,-0.20476985,0.6958028,0.0043923203,9.312928214654272,0.7253216742995525,stand
20/08/2020, 09:12:31,0.06945557,5.372029,7.704778,-0.20476985,0.6958028,0.0043923203,9.39292951251215,0.7253216742995525,stand
20/08/2020, 09:12:31,0.06945557,5.372029,7.704778,-0.19255254,0.68847245,-0.0041597905,9.39292951251215,0.7149042574790835,stand
20/08/2020, 09:12:31,0.059875492,5.4989653,7.9778104,-0.19255254,0.68847245,-0.0041597905,9.689564621119695,0.7149042574790835,stand
20/08/2020, 09:12:31,0.059875492,5.4989653,7.9778104,-0.13513124,0.6603727,0.0031705897,9.689564621119695,0.6740642208378431,stand
20/08/2020, 09:12:31,-0.081430666,5.599556,8.377779,-0.13513124,0.6603727,0.0031705897,10.077144391912213,0.6740642208378431,stand
20/08/2020, 09:12:31,-0.081430666,5.599556,8.377779,-0.0056278557,0.62127733,0.026383461,10.077144391912213,0.6218627528912812,stand
20/08/2020, 09:12:31,0.3544629,6.0593996,8.705896,-0.0056278557,0.62127733,0.026383461,10.612944890517742,0.6218627528912812,stand
20/08/2020, 09:12:31,0.3544629,6.0593996,8.705896,0.09699747,0.58218193,7.2712987E-4,10.612944890517742,0.5902074534336125,stand
20/08/2020, 09:12:32,0.2203418,1.0609937,9.158555,0.47817725,0.24498446,0.034935568,9.222439391665723,0.538415604151605,stand
20/08/2020, 09:12:32,0.09340577,1.8561403,10.130933,0.47817725,0.24498446,0.034935568,10.299989361444089,0.538415604151605,stand
20/08/2020, 09:12:32,0.09340577,1.8561403,10.130933,0.47451204,0.13991567,0.14611301,10.299989361444089,0.515836295699871,stand
20/08/2020, 09:12:32,0.6993457,3.1470559,10.87818,0.47451204,0.13991567,0.14611301,11.345828985056354,0.515836295699871,stand
20/08/2020, 09:12:32,0.6993457,3.1470559,10.87818,0.25948757,0.071498804,0.23285583,11.345828985056354,0.3559040791717278,stand
20/08/2020, 09:12:32,1.7771046,4.404441,10.521321,0.25948757,0.071498804,0.23285583,11.543630369552863,0.3559040791717278,stand
20/08/2020, 09:12:32,1.7771046,4.404441,10.521321,-0.015401695,0.06294669,0.24996006,11.543630369552863,0.2582238027231671,stand
20/08/2020, 09:12:32,2.3974147,4.878655,10.43031,-0.015401695,0.06294669,0.24996006,11.761812923754873,0.2582238027231671,stand
20/08/2020, 09:12:32,2.3974147,4.878655,10.43031,-0.28418228,0.060503226,0.23407756,11.761812923754873,0.37311192943824567,stand
20/08/2020, 09:12:32,2.4788454,4.9696655,10.552457,-0.28418228,0.060503226,0.23407756,11.92462139671512,0.37311192943824567,stand
20/08/2020, 09:12:32,2.4788454,4.9696655,10.552457,-0.5358587,0.036068626,0.16688241,11.92462139671512,0.5624012990617812,stand
20/08/2020, 09:12:32,2.3878345,4.373306,10.375225,-0.5358587,0.036068626,0.16688241,11.509685166244235,0.5624012990617812,stand
20/08/2020, 09:12:32,2.3878345,4.373306,10.375225,-0.90482116,0.0030819178,0.15710858,11.509685166244235,0.9183648128972709,stand
20/08/2020, 09:12:32,2.1435425,3.9254372,10.938055,-0.90482116,0.0030819178,0.15710858,11.81714347460863,0.9183648128972709,stand
20/08/2020, 09:12:32,2.1435425,3.9254372,10.938055,-1.2078102,-0.018909222,0.19376047,11.81714347460863,1.2233993907427347,stand
20/08/2020, 09:12:32,2.2561085,3.3697927,11.100916,-1.2078102,-0.018909222,0.19376047,11.8184543202223,1.2233993907427347,stand
20/08/2020, 09:12:32,2.2561085,3.3697927,11.100916,-1.2969965,-0.047009014,0.16566068,11.8184543202223,1.3083780655059478,stand
20/08/2020, 09:12:32,1.9303858,2.440525,11.239827,-1.2969965,-0.047009014,0.16566068,11.662601188715207,1.3083780655059478,stand
20/08/2020, 09:12:32,1.9303858,2.440525,11.239827,-1.1760453,-0.076330535,0.11923494,11.662601188715207,1.1845361397037035,stand
20/08/2020, 09:12:32,1.4825171,1.4729371,11.510465,-1.1760453,-0.076330535,0.11923494,11.698640845058081,1.1845361397037035,stand
20/08/2020, 09:12:32,1.4825171,1.4729371,11.510465,-0.88405174,-0.11664762,0.11312629,11.698640845058081,0.8988613382988611,stand
20/08/2020, 09:12:32,1.1879297,1.1975098,11.464959,-0.88405174,-0.11664762,0.11312629,11.588377579094413,0.8988613382988611,stand
20/08/2020, 09:12:32,1.1879297,1.1975098,11.464959,-0.5273066,-0.16673855,0.18154317,11.588377579094413,0.5820755417925138,stand
20/08/2020, 09:12:32,1.1184741,1.4370118,10.971585,-0.5273066,-0.16673855,0.18154317,11.121675719587643,0.5820755417925138,stand
20/08/2020, 09:12:32,1.1184741,1.4370118,10.971585,-0.31106034,-0.21805122,0.26095563,11.121675719587643,0.46087168828748754,stand
20/08/2020, 09:12:32,1.3795313,1.9687061,10.406361,-0.31106034,-0.21805122,0.26095563,10.680414403117313,0.46087168828748754,stand
20/08/2020, 09:12:32,1.3795313,1.9687061,10.406361,-0.27929538,-0.24126409,0.28294677,10.680414403117313,0.4650517661252379,stand
20/08/2020, 09:12:32,1.4920973,2.4812403,10.176438,-0.27929538,-0.24126409,0.28294677,10.580302672227754,0.4650517661252379,stand
20/08/2020, 09:12:32,1.4920973,2.4812403,10.176438,-0.36237302,-0.23393372,0.2805033,10.580302672227754,0.5145107341252919,stand
20/08/2020, 09:12:32,1.3723463,2.5339308,9.857901,-0.36237302,-0.23393372,0.2805033,10.270459781920867,0.5145107341252919,stand
20/08/2020, 09:12:33,1.2741505,0.8861573,9.002879,0.66632366,-0.111760706,-0.20696698,9.135675511256443,0.7066208381910776,stand
20/08/2020, 09:12:33,1.2741505,0.8861573,9.002879,0.5844677,-0.12519974,-0.21307562,9.135675511256443,0.6345696949157896,stand
20/08/2020, 09:12:33,1.5160475,1.1208692,8.837623,0.5844677,-0.12519974,-0.21307562,9.036499410690054,0.6345696949157896,stand
20/08/2020, 09:12:33,1.5160475,1.1208692,8.837623,0.45374265,-0.103208594,-0.23017985,9.036499410690054,0.5191504317515783,stand
20/08/2020, 09:12:33,1.5974782,1.101709,8.562195,0.45374265,-0.103208594,-0.23017985,8.77934390433669,0.5191504317515783,stand
20/08/2020, 09:12:33,1.5974782,1.101709,8.562195,0.27170488,-0.059226315,-0.26561,8.77934390433669,0.3845516566929727,stand
20/08/2020, 09:12:33,1.3268409,1.0849439,8.375383,0.27170488,-0.059226315,-0.26561,8.548956466901007,0.3845516566929727,stand
20/08/2020, 09:12:33,1.3268409,1.0849439,8.375383,0.100662656,-0.0054701925,-0.29248807,8.548956466901007,0.30937382479396813,stand
20/08/2020, 09:12:33,1.0202783,1.0274634,8.59333,0.100662656,-0.0054701925,-0.29248807,8.714469350983325,0.30937382479396813,stand
20/08/2020, 09:12:33,1.0202783,1.0274634,8.59333,-0.06304917,0.01652095,-0.34746593,8.714469350983325,0.35352611420501917,stand
20/08/2020, 09:12:33,0.51971924,0.87897223,9.05557,-0.06304917,0.01652095,-0.34746593,9.112960108551638,0.35352611420501917,stand
20/08/2020, 09:12:33,0.51971924,0.87897223,9.05557,-0.20965677,6.384576E-4,-0.40855244,9.112960108551638,0.45920743193376923,stand
20/08/2020, 09:12:33,0.040715333,0.7448511,9.302257,-0.20965677,6.384576E-4,-0.40855244,9.332118648818554,0.45920743193376923,stand
20/08/2020, 09:12:33,0.040715333,0.7448511,9.302257,-0.3086169,-0.037235174,-0.4366522,9.332118648818554,0.5360000079629766,stand
20/08/2020, 09:12:33,-0.040715333,0.63707525,9.441168,-0.3086169,-0.037235174,-0.4366522,9.462725433387606,0.5360000079629766,stand
20/08/2020, 09:12:33,-0.040715333,0.63707525,9.441168,-0.37703377,-0.07144361,-0.43787396,9.462725433387606,0.5822304162640641,stand
20/08/2020, 09:12:33,0.22992188,0.80712163,9.187295,-0.37703377,-0.07144361,-0.43787396,9.225545950511334,0.5822304162640641,stand
20/08/2020, 09:12:33,0.22992188,0.80712163,9.187295,-0.4356768,-0.0995434,-0.45864335,9.225545950511334,0.6403724648755055,stand
20/08/2020, 09:12:33,0.68976563,1.099314,9.043594,-0.4356768,-0.0995434,-0.45864335,9.13623920418843,0.6403724648755055,stand
20/08/2020, 09:12:33,0.68976563,1.099314,9.043594,-0.5065372,-0.11420416,-0.509956,9.13623920418843,0.7277895633815877,stand
20/08/2020, 09:12:33,1.0154883,1.2621753,8.54543,-0.5065372,-0.11420416,-0.509956,8.697624962152105,0.7277895633815877,stand
20/08/2020, 09:12:33,1.0154883,1.2621753,8.54543,-0.5749541,-0.103208594,-0.5429427,8.697624962152105,0.7975029785884034,stand
20/08/2020, 09:12:33,1.1855347,1.3124708,8.440049,-0.5749541,-0.103208594,-0.5429427,8.623369536489305,0.7975029785884034,stand
20/08/2020, 09:12:33,1.1855347,1.3124708,8.440049,-0.6128277,-0.069000155,-0.54538614,8.623369536489305,0.8232647633048144,stand
20/08/2020, 09:12:33,1.2933106,1.3196558,8.53585,-0.6128277,-0.069000155,-0.54538614,8.733548630835257,0.8232647633048144,stand
20/08/2020, 09:12:33,1.2933106,1.3196558,8.53585,-0.58228445,-0.027461333,-0.51972985,8.733548630835257,0.7809791456334535,stand
20/08/2020, 09:12:33,1.3148658,1.4705421,8.947793,-0.58228445,-0.027461333,-0.51972985,9.162661503512961,0.7809791456334535,stand
20/08/2020, 09:12:33,1.3148658,1.4705421,8.947793,-0.5077589,0.009190568,-0.51972985,9.162661503512961,0.7266517064535467,stand
20/08/2020, 09:12:33,1.4441968,1.4968873,9.524993,-0.5077589,0.009190568,-0.51972985,9.74945468647798,0.7266517064535467,stand
20/08/2020, 09:12:33,1.4441968,1.4968873,9.524993,-0.44178545,0.02751652,-0.5588252,9.74945468647798,0.7128935020502912,stand
20/08/2020, 09:12:34,2.0501368,0.77359134,9.453142,0.29613948,0.26575387,0.6164791,9.703782834100968,0.7337371375222556,stand
20/08/2020, 09:12:34,2.0501368,0.77359134,9.453142,0.29613948,0.25231484,0.64335716,9.703782834100968,0.7518442655006112,stand
20/08/2020, 09:12:34,2.1291726,0.7448511,9.544153,0.29613948,0.25231484,0.64335716,9.807091288846031,0.7518442655006112,stand
20/08/2020, 09:12:34,2.1291726,0.7448511,9.544153,0.2900308,0.2462062,0.66657,9.807091288846031,0.7674965371269046,stand
20/08/2020, 09:12:34,2.1746778,0.7161109,9.405242,0.2900308,0.2462062,0.66657,9.679907798611284,0.7674965371269046,stand
20/08/2020, 09:12:34,2.1746778,0.7161109,9.405242,0.25215718,0.24131927,0.69100463,9.679907798611284,0.7741483306327555,stand
20/08/2020, 09:12:34,2.2489235,0.67539555,9.237591,0.25215718,0.24131927,0.69100463,9.531364007093181,0.7741483306327555,stand
20/08/2020, 09:12:34,2.2489235,0.67539555,9.237591,0.22527912,0.24009754,0.70810884,9.531364007093181,0.7809069363895378,stand
20/08/2020, 09:12:34,2.327959,0.62989014,9.371712,0.22527912,0.24009754,0.70810884,9.677041683782006,0.7809069363895378,stand
20/08/2020, 09:12:34,2.327959,0.62989014,9.371712,0.2045097,0.24009754,0.7203261,9.677041683782006,0.7863464722350572,stand
20/08/2020, 09:12:34,2.3614893,0.58677983,9.321417,0.2045097,0.24009754,0.7203261,9.633781939051616,0.7863464722350572,stand
20/08/2020, 09:12:34,2.3614893,0.58677983,9.321417,0.18007511,0.23521061,0.7301,9.633781939051616,0.7879067534443737,stand
20/08/2020, 09:12:34,2.3782544,0.5891748,9.201666,0.18007511,0.23521061,0.7301,9.522283126693587,0.7879067534443737,stand
20/08/2020, 09:12:34,2.3782544,0.5891748,9.201666,0.16663608,0.22054985,0.74109554,9.522283126693587,0.7909692938356523,stand
20/08/2020, 09:12:34,2.4764502,0.58677983,9.093889,0.16663608,0.22054985,0.74109554,9.443301204247923,0.7909692938356523,stand
20/08/2020, 09:12:34,2.4764502,0.58677983,9.093889,0.1348711,0.20344564,0.7398738,9.443301204247923,0.779097953569643,stand
20/08/2020, 09:12:34,2.5866213,0.4981641,9.15616,0.1348711,0.20344564,0.7398738,9.527541632911847,0.779097953569643,stand
20/08/2020, 09:12:34,2.5866213,0.4981641,9.15616,0.08111498,0.18389796,0.72887826,9.527541632911847,0.7560830745747928,stand
20/08/2020, 09:12:34,2.7015822,0.44786867,9.139395,0.08111498,0.18389796,0.72887826,9.540842168232562,0.7560830745747928,stand
20/08/2020, 09:12:34,2.7015822,0.44786867,9.139395,0.024915395,0.17168066,0.72521305,9.540842168232562,0.7456735175188671,stand
20/08/2020, 09:12:34,2.7854078,0.2921924,9.17053,0.024915395,0.17168066,0.72521305,9.58866514399948,0.7456735175188671,stand
20/08/2020, 09:12:34,2.7854078,0.2921924,9.17053,-0.026397265,0.16435027,0.7313217,9.58866514399948,0.7500261629767909,stand
20/08/2020, 09:12:34,2.8668385,0.21794678,9.125025,-0.026397265,0.16435027,0.7313217,9.567253579130504,0.7500261629767909,stand
20/08/2020, 09:12:34,2.8668385,0.21794678,9.125025,-0.053275324,0.165572,0.7301,9.567253579130504,0.7505320268043648,stand
20/08/2020, 09:12:34,2.931504,0.05748047,9.251961,-0.053275324,0.165572,0.7301,9.705451950971984,0.7505320268043648,stand
20/08/2020, 09:12:34,2.931504,0.05748047,9.251961,-0.060605705,0.17290239,0.7020002,9.705451950971984,0.72551538225992,stand
20/08/2020, 09:12:34,2.9698243,-0.086220704,9.522598,-0.060605705,0.17290239,0.7020002,9.975327975240097,0.72551538225992,stand
20/08/2020, 09:12:34,2.9698243,-0.086220704,9.522598,-0.066714354,0.18389796,0.65923965,9.975327975240097,0.68765265905666,stand
20/08/2020, 09:12:34,2.9003687,-0.3305127,9.778865,-0.066714354,0.18389796,0.65923965,10.205271929148646,0.68765265905666,stand
20/08/2020, 09:12:34,2.9003687,-0.3305127,9.778865,-0.055718787,0.19489352,0.62625295,10.205271929148646,0.6582407047367574,stand
20/08/2020, 09:12:35,2.191443,0.4143384,9.922566,0.26681796,-0.043343823,0.04104422,10.170124032233755,0.27341385720939904,stand
20/08/2020, 09:12:35,2.191443,0.4143384,9.922566,0.16907954,0.02873825,0.00927924,10.170124032233755,0.17175529928226138,stand
20/08/2020, 09:12:35,2.2273684,0.6394702,9.637559,0.16907954,0.02873825,0.00927924,9.912246678491934,0.17175529928226138,stand
20/08/2020, 09:12:35,2.2273684,0.6394702,9.637559,0.07134114,0.09471167,-0.04081169,9.912246678491934,0.12540116790804384,stand
20/08/2020, 09:12:35,2.179468,0.7209009,9.524993,0.07134114,0.09471167,-0.04081169,9.797717543255558,0.12540116790804384,stand
20/08/2020, 09:12:35,2.179468,0.7209009,9.524993,-0.003184395,0.1448026,-0.08723743,9.797717543255558,0.16908075888839882,stand
20/08/2020, 09:12:35,2.1004322,0.60594,9.3381815,-0.003184395,0.1448026,-0.08723743,9.590652332294049,0.16908075888839882,stand
20/08/2020, 09:12:35,2.1004322,0.60594,9.3381815,-0.05694052,0.18878488,-0.10678511,9.590652332294049,0.22424320372777526,stand
20/08/2020, 09:12:35,1.9711012,0.36883304,9.10347,-0.05694052,0.18878488,-0.10678511,9.32171877363774,0.22424320372777526,stand
20/08/2020, 09:12:35,1.9711012,0.36883304,9.10347,-0.10580972,0.23154543,-0.07868532,9.32171877363774,0.26645893484416355,stand
20/08/2020, 09:12:35,1.9136207,0.37122804,8.799302,-0.10580972,0.23154543,-0.07868532,9.012628470504472,0.26645893484416355,stand
20/08/2020, 09:12:35,1.9136207,0.37122804,8.799302,-0.15712237,0.28041464,-0.02370747,9.012628470504472,0.3223070822104101,stand
20/08/2020, 09:12:35,1.9016455,0.44307864,8.617281,-0.15712237,0.28041464,-0.02370747,8.83572892228004,0.3223070822104101,stand
20/08/2020, 09:12:35,1.9016455,0.44307864,8.617281,-0.21820888,0.33539248,0.02027481,8.83572892228004,0.40064235333897547,stand
20/08/2020, 09:12:35,2.0333717,0.66342044,8.468789,-0.21820888,0.33539248,0.02027481,8.734707546737937,0.40064235333897547,stand
20/08/2020, 09:12:35,2.0333717,0.66342044,8.468789,-0.29151267,0.409918,0.038600758,8.734707546737937,0.5044823379397819,stand
20/08/2020, 09:12:35,2.1603076,0.7711963,8.035291,-0.29151267,0.409918,0.038600758,8.356289235691742,0.5044823379397819,stand
20/08/2020, 09:12:35,2.1603076,0.7711963,8.035291,-0.39658144,0.5076564,0.042265948,8.356289235691742,0.6455836627848474,stand
20/08/2020, 09:12:35,2.2704787,0.7065308,7.5946074,-0.39658144,0.5076564,0.042265948,7.958160608879327,0.6455836627848474,stand
20/08/2020, 09:12:35,2.2704787,0.7065308,7.5946074,-0.52975005,0.627386,0.04348768,7.958160608879327,0.8222769929071522,stand
20/08/2020, 09:12:35,2.311194,0.54366946,7.2257743,-0.52975005,0.627386,0.04348768,7.605853534619861,0.8222769929071522,stand
20/08/2020, 09:12:35,2.311194,0.54366946,7.2257743,-0.6653621,0.75444585,0.02516173,7.605853534619861,1.006244704246635,stand
20/08/2020, 09:12:35,2.3830445,0.40954837,7.168294,-0.6653621,0.75444585,0.02516173,7.565121880350835,1.006244704246635,stand
20/08/2020, 09:12:35,2.3830445,0.40954837,7.168294,-0.76920915,0.8839493,-0.06646802,7.565121880350835,1.173655417207926,stand
20/08/2020, 09:12:35,2.2129982,-0.19639161,7.537127,-0.76920915,0.8839493,-0.06646802,7.857748670595347,1.173655417207926,stand
20/08/2020, 09:12:35,2.2129982,-0.19639161,7.537127,-0.8632824,0.9841311,-0.24361888,7.857748670595347,1.331585763733137,stand
20/08/2020, 09:12:35,1.6741188,-1.2166699,8.305928,-0.8632824,0.9841311,-0.24361888,8.559871673525112,1.331585763733137,stand
20/08/2020, 09:12:35,1.6741188,-1.2166699,8.305928,-0.92070365,1.039109,-0.44153914,8.559871673525112,1.4568457425510173,stand
20/08/2020, 09:12:35,0.74724615,-2.4165747,9.584868,-0.92070365,1.039109,-0.44153914,9.913017351195363,1.4568457425510173,stand
20/08/2020, 09:12:35,0.74724615,-2.4165747,9.584868,-0.869391,1.0244483,-0.59792054,9.913017351195363,1.4706610726739184,stand
20/08/2020, 09:12:36,-0.4406836,-1.4370118,9.869876,-0.032505915,-0.027461333,0.03371384,9.983669440538648,0.05428979929187307,stand
20/08/2020, 09:12:36,-0.34488282,-1.3771362,9.841136,-0.032505915,-0.027461333,0.03371384,9.943007880180575,0.05428979929187307,stand
20/08/2020, 09:12:36,-0.34488282,-1.3771362,9.841136,-0.0019626655,-0.034791715,0.03982249,9.943007880180575,0.05291640720249877,stand
20/08/2020, 09:12:36,-0.22752686,-1.3220508,9.754915,-0.0019626655,-0.034791715,0.03982249,9.846723216611123,0.05291640720249877,stand
20/08/2020, 09:12:36,-0.22752686,-1.3220508,9.754915,0.022471935,-0.037235174,0.030048652,9.846723216611123,0.05286177744079782,stand
20/08/2020, 09:12:36,-0.25387207,-1.2430152,9.671089,0.022471935,-0.037235174,0.030048652,9.753948099060368,0.05286177744079782,stand
20/08/2020, 09:12:36,-0.25387207,-1.2430152,9.671089,0.026137125,-0.042122096,0.02516173,9.753948099060368,0.05559256163822014,stand
20/08/2020, 09:12:36,-0.26105714,-1.1687696,9.625584,0.026137125,-0.042122096,0.02516173,9.699795553542627,0.05559256163822014,stand
20/08/2020, 09:12:36,-0.26105714,-1.1687696,9.625584,0.011476366,-0.044565555,0.03249211,9.699795553542627,0.0563341172260128,stand
20/08/2020, 09:12:36,-0.24668702,-1.1304493,9.611214,0.011476366,-0.044565555,0.03249211,9.680609411497366,0.0563341172260128,stand
20/08/2020, 09:12:36,-0.24668702,-1.1304493,9.611214,-0.0044061244,-0.043343823,0.04470941,9.680609411497366,0.062426215229838135,stand
20/08/2020, 09:12:36,-0.22513184,-1.101709,9.577683,-0.0044061244,-0.043343823,0.04470941,9.643467598805097,0.062426215229838135,stand
20/08/2020, 09:12:36,-0.22513184,-1.101709,9.577683,-0.012958236,-0.043343823,0.03737903,9.643467598805097,0.05868385470051912,stand
20/08/2020, 09:12:36,-0.14849122,-1.1400293,9.666299,-0.012958236,-0.043343823,0.03737903,9.734426035697611,0.05868385470051912,stand
20/08/2020, 09:12:36,-0.14849122,-1.1400293,9.666299,-0.021510344,-0.040900365,0.01783135,9.734426035697611,0.04953273413009302,stand
20/08/2020, 09:12:36,-0.22273682,-1.2094849,9.702225,-0.021510344,-0.040900365,0.01783135,9.779858395612647,0.04953273413009302,stand
20/08/2020, 09:12:36,-0.22273682,-1.2094849,9.702225,-0.031284187,-0.045787286,0.0080575105,9.779858395612647,0.05603658975327283,stand
20/08/2020, 09:12:36,-0.26345217,-1.336421,9.740545,-0.031284187,-0.045787286,0.0080575105,9.835326653585888,0.05603658975327283,stand
20/08/2020, 09:12:36,-0.26345217,-1.336421,9.740545,-0.038614567,-0.058004584,0.02516173,9.835326653585888,0.07408595858862321,stand
20/08/2020, 09:12:36,-0.26105714,-1.3723463,9.869876,-0.038614567,-0.058004584,0.02516173,9.96824636456033,0.07408595858862321,stand
20/08/2020, 09:12:36,-0.26105714,-1.3723463,9.869876,-0.05083187,-0.07388707,0.04348768,9.96824636456033,0.09967124288079571,stand
20/08/2020, 09:12:36,-0.2083667,-1.3531861,9.939331,-0.05083187,-0.07388707,0.04348768,10.033186492988627,0.09967124288079571,stand
20/08/2020, 09:12:36,-0.2083667,-1.3531861,9.939331,-0.053275324,-0.069000155,0.042265948,10.033186492988627,0.09687978063673168,stand
20/08/2020, 09:12:36,-0.081430666,-1.3651612,10.035132,-0.053275324,-0.069000155,0.042265948,10.127891115679853,0.09687978063673168,stand
20/08/2020, 09:12:36,-0.081430666,-1.3651612,10.035132,-0.0044061244,-0.059226315,0.02149654,10.127891115679853,0.06316068084651333,stand
20/08/2020, 09:12:36,-0.0047900393,-1.456172,10.087823,-0.0044061244,-0.059226315,0.02149654,10.192381024766703,0.06316068084651333,stand
20/08/2020, 09:12:36,-0.0047900393,-1.456172,10.087823,0.009032905,-0.060448047,0.02760519,10.192381024766703,0.06706419533903743,stand
20/08/2020, 09:12:36,0.009580079,-1.4753321,9.867481,0.009032905,-0.060448047,0.02760519,9.97716806321751,0.06706419533903743,stand
20/08/2020, 09:12:36,0.009580079,-1.4753321,9.867481,-0.028840724,-0.06655669,0.05692671,9.97716806321751,0.09220754203930936,stand
20/08/2020, 09:12:36,0.043110352,-1.3579761,9.948912,-0.028840724,-0.06655669,0.05692671,10.041254945908701,0.09220754203930936,stand
20/08/2020, 09:12:37,0.047900394,-1.2597803,9.862691,0.037132695,0.018964408,-0.024929201,9.94293785130775,0.04857932590099073,stand
20/08/2020, 09:12:37,0.050295413,-1.2573853,9.83874,0.037132695,0.018964408,-0.024929201,9.918888998102654,0.04857932590099073,stand
20/08/2020, 09:12:37,0.050295413,-1.2573853,9.83874,0.043241344,0.022629598,-0.028594391,9.918888998102654,0.05656458077495162,stand
20/08/2020, 09:12:37,-0.0023950196,-1.2861255,9.896221,0.043241344,0.022629598,-0.028594391,9.979444769518313,0.05656458077495162,stand
20/08/2020, 09:12:37,-0.0023950196,-1.2861255,9.896221,0.051793456,0.026294788,-0.02370747,9.979444769518313,0.06273772483014425,stand
20/08/2020, 09:12:37,-0.0047900393,-1.2621753,9.941727,0.051793456,0.026294788,-0.02370747,10.021528773474465,0.06273772483014425,stand
20/08/2020, 09:12:37,-0.0047900393,-1.2621753,9.941727,0.061567295,0.025073059,-0.021264011,10.021528773474465,0.06979504498243935,stand
20/08/2020, 09:12:37,0.0071850587,-1.223855,9.960887,0.061567295,0.025073059,-0.021264011,10.035793026320954,0.06979504498243935,stand
20/08/2020, 09:12:37,0.0071850587,-1.223855,9.960887,0.07134114,0.026294788,-0.02370747,10.035793026320954,0.07964306984663526,stand
20/08/2020, 09:12:37,0.0071850587,-1.1663746,9.920172,0.07134114,0.026294788,-0.02370747,9.988507824189618,0.07964306984663526,stand
20/08/2020, 09:12:37,0.0071850587,-1.1663746,9.920172,0.07622805,0.02751652,-0.032259583,9.988507824189618,0.08722703450683171,stand
20/08/2020, 09:12:37,0.050295413,-1.1256592,9.944121,0.07622805,0.02751652,-0.032259583,10.007756390049968,0.08722703450683171,stand
20/08/2020, 09:12:37,0.050295413,-1.1256592,9.944121,0.0737846,0.029959979,-0.03103785,10.007756390049968,0.08546996695959677,stand
20/08/2020, 09:12:37,0.023950197,-1.1376343,9.941727,0.0737846,0.029959979,-0.03103785,10.00663354138702,0.08546996695959677,stand
20/08/2020, 09:12:37,0.023950197,-1.1376343,9.941727,0.072562866,0.033625167,-0.032259583,10.00663354138702,0.08623631533141095,stand
20/08/2020, 09:12:37,0.019160157,-1.1208692,9.929751,0.072562866,0.033625167,-0.032259583,9.992831309228874,0.08623631533141095,stand
20/08/2020, 09:12:37,0.019160157,-1.1208692,9.929751,0.07011941,0.037290357,-0.035924774,9.992831309228874,0.08716588699888378,stand
20/08/2020, 09:12:37,0.026345216,-1.1160791,9.917776,0.07011941,0.037290357,-0.035924774,9.980411290836742,0.08716588699888378,stand
20/08/2020, 09:12:37,0.026345216,-1.1160791,9.917776,0.06645422,0.043399006,-0.042033423,9.980411290836742,0.0898133915157386,stand
20/08/2020, 09:12:37,-0.0047900393,-1.1256592,9.879456,0.06645422,0.043399006,-0.042033423,9.943378396160814,0.0898133915157386,stand
20/08/2020, 09:12:37,-0.0047900393,-1.1256592,9.879456,0.064010754,0.050729387,-0.045698613,9.943378396160814,0.09359065410549912,stand
20/08/2020, 09:12:37,-0.0047900393,-1.1088941,9.874666,0.064010754,0.050729387,-0.045698613,9.936734973257666,0.09359065410549912,stand
20/08/2020, 09:12:37,-0.0047900393,-1.1088941,9.874666,0.06278902,0.05683804,-0.051807262,9.936734973257666,0.09928250857186557,stand
20/08/2020, 09:12:37,-0.028740235,-1.1160791,9.944121,0.06278902,0.05683804,-0.051807262,10.006598232098833,0.09928250857186557,stand
20/08/2020, 09:12:37,-0.028740235,-1.1160791,9.944121,0.06767595,0.06416842,-0.055472452,10.006598232098833,0.1085118125960611,stand
20/08/2020, 09:12:37,-0.059875492,-1.1711646,9.984837,0.06767595,0.06416842,-0.055472452,10.05346572909873,0.1085118125960611,stand
20/08/2020, 09:12:37,-0.059875492,-1.1711646,9.984837,0.07134114,0.06661188,-0.055472452,10.05346572909873,0.11226706493756813,stand
20/08/2020, 09:12:37,-0.031135255,-1.1903248,10.037527,0.07134114,0.06661188,-0.055472452,10.107907422557993,0.11226706493756813,stand
20/08/2020, 09:12:37,-0.031135255,-1.1903248,10.037527,0.07134114,0.07027707,-0.053028993,10.107907422557993,0.11331592826770401,stand
20/08/2020, 09:12:37,-0.07664063,-1.1615845,9.994417,0.07134114,0.07027707,-0.053028993,10.061984262917735,0.11331592826770401,stand
20/08/2020, 09:12:38,-0.035925295,-1.21188,10.075848,0.013919826,0.037290357,0.0031705897,10.14852940391916,0.03992974974458108,stand
20/08/2020, 09:12:38,-0.026345216,-1.1711646,10.051897,0.013919826,0.037290357,0.0031705897,10.119928603896728,0.03992974974458108,stand
20/08/2020, 09:12:38,-0.026345216,-1.1711646,10.051897,0.028580585,0.05683804,-0.0029380603,10.119928603896728,0.06368708486140423,stand
20/08/2020, 09:12:38,-0.083825685,-1.1927198,10.013577,0.028580585,0.05683804,-0.0029380603,10.084708269456137,0.06368708486140423,stand
20/08/2020, 09:12:38,-0.083825685,-1.1927198,10.013577,0.042019617,0.078829184,-0.013933631,10.084708269456137,0.09040926135116906,stand
20/08/2020, 09:12:38,-0.100590825,-1.0801538,9.956097,0.042019617,0.078829184,-0.013933631,10.015024277695288,0.09040926135116906,stand
