DATE,TIME,ax,ay,az,gx,gy,gz,ma,mg,label
19/08/2020, 20:56:28,-5.029541,1.5016773,7.671248,-0.3330515,-2.2033625,-0.23017985,9.295125750401635,2.2402482489317337,stand
19/08/2020, 20:56:28,-4.790039,1.9088306,7.9969707,-0.3330515,-2.2033625,-0.23017985,9.515232434169441,2.2402482489317337,stand
19/08/2020, 20:56:28,-4.790039,1.9088306,7.9969707,-0.24142173,-2.2449014,-0.26194483,9.515232434169441,2.272989644761151,stand
19/08/2020, 20:56:28,-5.0558863,1.5447876,9.06994,-0.24142173,-2.2449014,-0.26194483,10.498197912977618,2.272989644761151,stand
19/08/2020, 20:56:28,-5.0558863,1.5447876,9.06994,0.13975802,-2.1777062,-0.21796255,10.498197912977618,2.193044562123689,stand
19/08/2020, 20:56:28,-5.108577,1.6765138,9.984837,0.13975802,-2.1777062,-0.21796255,11.340424006640482,2.193044562123689,stand
19/08/2020, 20:56:28,-5.108577,1.6765138,9.984837,0.4806207,-1.9101472,-0.14099355,11.340424006640482,1.9747247245951987,stand
19/08/2020, 20:56:28,-4.5649076,1.7339942,9.929751,0.4806207,-1.9101472,-0.14099355,11.065490489847676,1.9747247245951987,stand
19/08/2020, 20:56:28,-4.5649076,1.7339942,9.929751,0.52704644,-1.635258,-0.08723743,11.065490489847676,1.7203072154049306,stand
19/08/2020, 20:56:28,-4.1936793,1.7771046,9.697434,0.52704644,-1.635258,-0.08723743,10.713789320153241,1.7203072154049306,stand
19/08/2020, 20:56:28,-4.1936793,1.7771046,9.697434,0.2448268,-1.4214553,-0.03103785,10.713789320153241,1.4427191600807305,stand
19/08/2020, 20:56:28,-3.4727786,1.0609937,9.424402,0.2448268,-1.4214553,-0.03103785,10.099765146397251,1.4427191600807305,stand
19/08/2020, 20:56:28,-3.4727786,1.0609937,9.424402,-0.038614567,-1.2565217,-0.035924774,10.099765146397251,1.257628109300307,stand
19/08/2020, 20:56:28,-3.0704153,0.92926764,9.958491,-0.038614567,-1.2565217,-0.035924774,10.462434596809878,1.257628109300307,stand
19/08/2020, 20:56:28,-3.0704153,0.92926764,9.958491,-0.0019626655,-0.9413154,-0.013933631,10.462434596809878,0.941420577621595,stand
19/08/2020, 20:56:28,-2.6488917,0.9268726,7.8868,-0.0019626655,-0.9413154,-0.013933631,8.371220418087763,0.941420577621595,stand
19/08/2020, 20:56:28,-2.6488917,0.9268726,7.8868,0.054236915,-0.84479874,-0.02981612,8.371220418087763,0.8470629028631855,stand
19/08/2020, 20:56:28,-1.6860938,1.0442286,10.686578,0.054236915,-0.84479874,-0.02981612,10.869051044558864,0.8470629028631855,stand
19/08/2020, 20:56:28,-1.6860938,1.0442286,10.686578,-0.049610138,-0.51981854,-0.04814207,10.869051044558864,0.5243950266300417,stand
19/08/2020, 20:56:28,-4.164939,0.56522465,4.512217,-0.049610138,-0.51981854,-0.04814207,6.166546669322931,0.5243950266300417,stand
19/08/2020, 20:56:28,-4.164939,0.56522465,4.512217,0.10188439,-0.567466,-0.024929201,6.166546669322931,0.5770784851250764,stand
19/08/2020, 20:56:28,-6.461763,-0.11496094,6.476133,0.10188439,-0.567466,-0.024929201,9.14920175784175,0.5770784851250764,stand
19/08/2020, 20:56:28,-6.461763,-0.11496094,6.476133,0.19840106,-1.1441225,-0.00904671,9.14920175784175,1.1612325681597144,stand
19/08/2020, 20:56:28,-6.6126494,0.4023633,3.4943337,0.19840106,-1.1441225,-0.00904671,7.489953081742363,1.1612325681597144,stand
19/08/2020, 20:56:28,-6.6126494,0.4023633,3.4943337,0.3181306,-1.9626817,0.00927924,7.489953081742363,1.9883190021844406,stand
19/08/2020, 20:56:28,-2.938689,1.0705738,-1.9255958,0.3181306,-1.9626817,0.00927924,3.6728654084017753,1.9883190021844406,stand
19/08/2020, 20:56:28,-2.938689,1.0705738,-1.9255958,-0.2890692,-3.010926,0.01416616,3.6728654084017753,3.024803648612687,stand
19/08/2020, 20:56:28,2.201023,1.4346168,6.4905033,-0.2890692,-3.010926,0.01416616,7.002089781022614,3.024803648612687,stand
19/08/2020, 20:56:28,2.201023,1.4346168,6.4905033,-0.038614567,-4.152022,0.01050097,7.002089781022614,4.15221472084839,stand
19/08/2020, 20:56:28,-3.4775686,0.55803955,18.38896,-0.038614567,-4.152022,0.01050097,18.723213862082872,4.15221472084839,stand
19/08/2020, 20:56:29,-5.6666164,-0.41194338,17.610579,-0.06304917,0.007968837,0.02149654,18.504397197112688,0.06708801016416592,stand
19/08/2020, 20:56:29,-1.6453785,0.7424561,1.7028589,-0.06304917,0.007968837,0.02149654,2.4815801130458093,0.06708801016416592,stand
19/08/2020, 20:56:29,-1.6453785,0.7424561,1.7028589,0.18618375,0.022629598,0.04959633,2.4815801130458093,0.1940007306450343,stand
19/08/2020, 20:56:29,3.9853127,1.8202149,9.14179,0.18618375,0.022629598,0.04959633,10.137466696276382,0.1940007306450343,stand
19/08/2020, 20:56:29,3.9853127,1.8202149,9.14179,0.018806746,-0.027461333,-0.02737266,10.137466696276382,0.04309386321360448,stand
19/08/2020, 20:56:29,-4.926555,-0.39757326,19.255959,0.018806746,-0.027461333,-0.02737266,19.88016474189707,0.04309386321360448,stand
19/08/2020, 20:56:29,-4.926555,-0.39757326,19.255959,0.032245778,0.16312854,0.01783135,19.88016474189707,0.16723835606630272,stand
19/08/2020, 20:56:29,-3.9901028,0.4382886,4.648733,0.032245778,0.16312854,0.01783135,6.141965222384676,0.16723835606630272,stand
19/08/2020, 20:56:29,-3.9901028,0.4382886,4.648733,0.14464495,-0.2046122,0.0605919,6.141965222384676,0.25779776786091696,stand
19/08/2020, 20:56:29,4.028423,2.0860622,4.0356083,0.14464495,-0.2046122,0.0605919,6.071736182796176,0.25779776786091696,stand
19/08/2020, 20:56:29,4.028423,2.0860622,4.0356083,0.031024046,-0.32556346,0.05203979,6.071736182796176,0.3311528320161811,stand
19/08/2020, 20:56:29,-0.5676197,0.2562671,18.506317,0.031024046,-0.32556346,0.05203979,18.516793431007475,0.3311528320161811,stand
19/08/2020, 20:56:29,-0.5676197,0.2562671,18.506317,0.2643745,-0.10809551,-0.0053815204,18.516793431007475,0.28567021861140607,stand
19/08/2020, 20:56:29,-5.829478,-0.119750984,10.902129,0.2643745,-0.10809551,-0.0053815204,12.363396462071545,0.28567021861140607,stand
19/08/2020, 20:56:29,-5.829478,-0.119750984,10.902129,-0.18400043,0.31095788,0.02882692,12.363396462071545,0.36246648520533464,stand
19/08/2020, 20:56:29,1.2909156,1.9423609,0.74724615,-0.18400043,0.31095788,0.02882692,2.4490009578171192,0.36246648520533464,stand
19/08/2020, 20:56:29,1.2909156,1.9423609,0.74724615,0.061567295,0.08738129,0.06181363,2.4490009578171192,0.12347852563859738,stand
19/08/2020, 20:56:29,2.308799,1.0801538,12.82533,0.061567295,0.08738129,0.06181363,13.076175634154078,0.12347852563859738,stand
19/08/2020, 20:56:29,2.308799,1.0801538,12.82533,0.17274472,-0.39031515,-0.0371465,13.076175634154078,0.42844662895502783,stand
19/08/2020, 20:56:29,-5.264253,-0.6394702,17.59142,0.17274472,-0.39031515,-0.0371465,18.373331582791874,0.42844662895502783,stand
19/08/2020, 20:56:29,-5.264253,-0.6394702,17.59142,-0.003184395,0.10448551,0.01050097,18.373331582791874,0.1050601395392261,stand
19/08/2020, 20:56:29,-2.579436,1.2406201,3.6452198,-0.003184395,0.10448551,0.01050097,4.63467972363702,0.1050601395392261,stand
19/08/2020, 20:56:29,-2.579436,1.2406201,3.6452198,0.1788534,-0.11664762,0.05203979,4.63467972363702,0.2197802173650808,stand
19/08/2020, 20:56:29,4.2367897,2.1459377,4.5864625,0.1788534,-0.11664762,0.05203979,6.602353653438433,0.2197802173650808,stand
19/08/2020, 20:56:29,4.2367897,2.1459377,4.5864625,-0.012958236,-0.16307338,0.02516173,6.602353653438433,0.16551119130088834,stand
19/08/2020, 20:56:29,-1.1280543,-0.12933107,18.099163,-0.012958236,-0.16307338,0.02516173,18.134743898049685,0.16551119130088834,stand
19/08/2020, 20:56:29,-1.1280543,-0.12933107,18.099163,0.30713505,-0.23149025,0.02882692,18.134743898049685,0.38568207815479316,stand
19/08/2020, 20:56:29,-6.5455885,-0.098195806,12.260105,0.30713505,-0.23149025,0.02882692,13.898364976290745,0.38568207815479316,stand
19/08/2020, 20:56:29,-6.5455885,-0.098195806,12.260105,-0.015401695,0.050729387,0.0850265,13.898364976290745,0.10020074355017214,stand
19/08/2020, 20:56:29,0.45744875,1.6860938,0.83586186,-0.015401695,0.050729387,0.0850265,1.936707705914817,0.10020074355017214,stand
19/08/2020, 20:56:30,-1.6621436,7.3527102,5.961204,0.67487574,0.62372077,0.67145693,9.61046424651348,1.1381297224384124,stand
19/08/2020, 20:56:30,-1.6429834,7.4197707,6.10251,0.67487574,0.62372077,0.67145693,9.746436275645488,1.1381297224384124,stand
19/08/2020, 20:56:30,-1.6429834,7.4197707,6.10251,0.66632366,0.5614125,0.73254347,9.746436275645488,1.1383282327723148,stand
19/08/2020, 20:56:30,-1.6621436,7.913145,5.757627,0.66632366,0.5614125,0.73254347,9.92627094745107,1.1383282327723148,stand
19/08/2020, 20:56:30,-1.6621436,7.913145,5.757627,0.59424156,0.46978277,0.807069,9.92627094745107,1.1068781587304728,stand
19/08/2020, 20:56:30,-1.839375,7.965835,5.745652,0.59424156,0.46978277,0.807069,9.99251461856678,1.1068781587304728,stand
19/08/2020, 20:56:30,-1.839375,7.965835,5.745652,0.5294899,0.4245788,0.8547164,9.99251461856678,1.0914058969537763,stand
19/08/2020, 20:56:30,-1.8250049,8.092772,5.807923,0.5294899,0.4245788,0.8547164,10.126971994122314,1.0914058969537763,stand
19/08/2020, 20:56:30,-1.8250049,8.092772,5.807923,0.49039453,0.49788257,0.84982955,10.126971994122314,1.1002654805859424,stand
19/08/2020, 20:56:30,-1.7028589,7.975415,5.9396486,0.49039453,0.49788257,0.84982955,10.088924741149121,1.1002654805859424,stand
19/08/2020, 20:56:30,-1.7028589,7.975415,5.9396486,0.5026118,0.5601908,0.788743,10.088924741149121,1.090205446957116,stand
19/08/2020, 20:56:30,-2.0261867,8.052056,6.0306597,0.5026118,0.5601908,0.788743,10.262061174324662,1.090205446957116,stand
19/08/2020, 20:56:30,-2.0261867,8.052056,6.0306597,0.6040154,0.56874293,0.82661664,10.262061174324662,1.1711525154511664,stand
19/08/2020, 20:56:30,-1.951941,8.092772,5.841453,0.6040154,0.56874293,0.82661664,10.16983769737634,1.1711525154511664,stand
19/08/2020, 20:56:30,-1.951941,8.092772,5.841453,0.73229706,0.4135832,0.89503354,10.16983769737634,1.2281673654185754,stand
19/08/2020, 20:56:30,-1.5567628,8.200547,5.575606,0.73229706,0.4135832,0.89503354,10.03792139590243,1.2281673654185754,stand
19/08/2020, 20:56:30,-1.5567628,8.200547,5.575606,0.8263703,0.2303237,0.9182464,10.03792139590243,1.2566277525441873,stand
19/08/2020, 20:56:30,-1.456172,8.040081,5.6714063,0.8263703,0.2303237,0.9182464,9.946265068202015,1.2566277525441873,stand
19/08/2020, 20:56:30,-1.456172,8.040081,5.6714063,0.8764612,0.11303762,0.93046373,9.946265068202015,1.283247641126922,stand
19/08/2020, 20:56:30,-1.2478052,7.9826,5.48699,0.8764612,0.11303762,0.93046373,9.766574785617667,1.283247641126922,stand
19/08/2020, 20:56:30,-1.2478052,7.9826,5.48699,0.8715743,0.022629598,0.91580296,9.766574785617667,1.264455963020794,stand
19/08/2020, 20:56:30,-1.334026,7.9826,5.4750147,0.8715743,0.022629598,0.91580296,9.77124952486879,1.264455963020794,stand
19/08/2020, 20:56:30,-1.334026,7.9826,5.4750147,0.8227051,-0.020130953,0.8644903,9.77124952486879,1.1935628799674838,stand
19/08/2020, 20:56:30,-1.2765454,7.8580594,5.5684204,0.8227051,-0.020130953,0.8644903,9.715244292805782,1.1935628799674838,stand
19/08/2020, 20:56:30,-1.2765454,7.8580594,5.5684204,0.77994454,-0.023796143,0.80951244,9.715244292805782,1.124362096976517,stand
19/08/2020, 20:56:30,-1.1280543,7.8269243,5.2810183,0.77994454,-0.023796143,0.80951244,9.509069598160862,1.124362096976517,stand
19/08/2020, 20:56:30,-1.1280543,7.8269243,5.2810183,0.6907582,-0.13741703,0.8046255,9.509069598160862,1.0693234235892375,stand
19/08/2020, 20:56:30,-1.1735597,7.8652444,5.0606766,0.6907582,-0.13741703,0.8046255,9.426015010320826,1.0693234235892375,stand
19/08/2020, 20:56:30,-1.1735597,7.8652444,5.0606766,0.61256754,-0.33289385,0.82906014,9.426015010320826,1.0832349798037988,stand
19/08/2020, 20:56:30,-1.1232642,7.999366,5.1828227,0.61256754,-0.33289385,0.82906014,9.597563593970982,1.0832349798037988,stand
19/08/2020, 20:56:31,-4.394861,7.8269243,1.84177,-1.5340121,-1.2846215,0.8486078,9.163387280726564,2.1733799853134688,stand
19/08/2020, 20:56:31,-4.521797,8.602911,1.8274,-1.5340121,-1.2846215,0.8486078,9.889191978211615,2.1733799853134688,stand
19/08/2020, 20:56:31,-4.521797,8.602911,1.8274,-1.530347,-0.64076984,0.6311399,9.889191978211615,1.7750733609475282,stand
19/08/2020, 20:56:31,-5.125342,9.053174,2.5051906,-1.530347,-0.64076984,0.6311399,10.70070415089605,1.7750733609475282,stand
19/08/2020, 20:56:31,-5.125342,9.053174,2.5051906,-1.4411607,0.08493783,0.42955437,10.70070415089605,1.5062123015050628,stand
19/08/2020, 20:56:31,-5.2834134,9.386082,5.2666483,-1.4411607,0.08493783,0.42955437,11.989602624605,1.5062123015050628,stand
19/08/2020, 20:56:31,-5.2834134,9.386082,5.2666483,-1.9775001,1.514362,0.14244781,11.989602624605,2.494812648185189,stand
19/08/2020, 20:56:31,-5.4462748,9.616004,4.181704,-1.9775001,1.514362,0.14244781,11.815925278471761,2.494812648185189,stand
19/08/2020, 20:56:31,-5.4462748,9.616004,4.181704,-2.3818927,2.3524687,-0.050585534,11.815925278471761,3.348145869236836,stand
19/08/2020, 20:56:31,-6.0593996,10.061478,2.924319,-2.3818927,2.3524687,-0.050585534,12.103772059924658,3.348145869236836,stand
19/08/2020, 20:56:31,-6.0593996,10.061478,2.924319,-3.0196357,2.8802562,-0.16054124,12.103772059924658,4.17610449483631,stand
19/08/2020, 20:56:31,-5.257068,10.312955,3.3985329,-3.0196357,2.8802562,-0.16054124,12.064154760466572,4.17610449483631,stand
19/08/2020, 20:56:31,-5.257068,10.312955,3.3985329,-3.4203632,3.1636975,-0.3059271,12.064154760466572,4.669203088089458,stand
19/08/2020, 20:56:31,-5.2043777,9.802815,5.415139,-3.4203632,3.1636975,-0.3059271,12.34927000966294,4.669203088089458,stand
19/08/2020, 20:56:31,-5.2043777,9.802815,5.415139,-2.8974628,2.4673114,-0.20818871,12.34927000966294,3.8113329603338433,stand
19/08/2020, 20:56:31,-5.5540504,9.800421,3.7027004,-2.8974628,2.4673114,-0.20818871,11.857728008550556,3.8113329603338433,stand
19/08/2020, 20:56:31,-5.5540504,9.800421,3.7027004,-2.93778,1.3701979,-0.01882055,11.857728008550556,3.241658100072122,stand
19/08/2020, 20:56:31,-6.2773466,10.753638,0.9651929,-2.93778,1.3701979,-0.01882055,12.489091793432484,3.241658100072122,stand
19/08/2020, 20:56:31,-6.2773466,10.753638,0.9651929,-3.7050264,0.35005325,0.09602207,12.489091793432484,3.722764839905196,stand
19/08/2020, 20:56:31,-5.6642213,10.521321,1.4226416,-3.7050264,0.35005325,0.09602207,12.033516270618094,3.722764839905196,stand
19/08/2020, 20:56:31,-5.6642213,10.521321,1.4226416,-4.269466,-0.24492928,0.27072945,12.033516270618094,4.2850465645978515,stand
19/08/2020, 20:56:31,-5.1924024,11.144027,2.8859987,-4.269466,-0.24492928,0.27072945,12.628513898639545,4.2850465645978515,stand
19/08/2020, 20:56:31,-5.1924024,11.144027,2.8859987,-4.136297,-0.19361663,0.4393282,12.628513898639545,4.164066690394928,stand
19/08/2020, 20:56:31,-6.466553,10.205178,4.481082,-4.136297,-0.19361663,0.4393282,12.885731229682607,4.164066690394928,stand
19/08/2020, 20:56:31,-6.466553,10.205178,4.481082,-3.6219487,0.5076564,0.56150126,12.885731229682607,3.700204211822217,stand
19/08/2020, 20:56:31,-5.886958,9.378897,4.4667115,-3.6219487,0.5076564,0.56150126,11.940330452054823,3.700204211822217,stand
19/08/2020, 20:56:31,-5.886958,9.378897,4.4667115,-2.7117598,0.82652795,0.7386521,11.940330452054823,2.9295727744481215,stand
19/08/2020, 20:56:31,-6.11209,8.57417,3.2500417,-2.7117598,0.82652795,0.7386521,11.019837106106737,2.9295727744481215,stand
19/08/2020, 20:56:31,-6.11209,8.57417,3.2500417,-1.6940588,0.7654415,0.8913683,11.019837106106737,2.0616190943671766,stand
19/08/2020, 20:56:31,-7.094048,8.751402,3.8511915,-1.6940588,0.7654415,0.8913683,11.905638526427925,2.0616190943671766,stand
19/08/2020, 20:56:32,-7.9826,5.4223247,3.66438,2.1556127,-1.2406392,0.29394233,10.322363690563733,2.504446822481271,stand
19/08/2020, 20:56:32,-7.8748245,5.465435,3.3242872,2.1556127,-1.2406392,0.29394233,10.14567526378318,2.504446822481271,stand
19/08/2020, 20:56:32,-8.222102,5.736072,3.1398706,2.1556127,-1.2406392,0.29394233,10.505440228331084,2.504446822481271,stand
19/08/2020, 20:56:32,-8.382568,6.06419,3.2141163,2.1556127,-1.2406392,0.29394233,10.833854133653789,2.504446822481271,stand
19/08/2020, 20:56:32,-8.372989,6.2893214,3.4536183,2.1556127,-1.2406392,0.29394233,11.02678479978691,2.504446822481271,stand
19/08/2020, 20:56:32,-8.372989,6.2893214,3.4536183,1.9625793,-1.1172445,0.4747584,11.02678479978691,2.307671569386839,stand
19/08/2020, 20:56:32,-8.372989,6.2893214,3.4536183,1.9711313,-0.97918904,0.64213544,11.02678479978691,2.292707525425088,stand
19/08/2020, 20:56:32,-8.372989,6.2893214,3.4536183,2.1776037,-0.8802289,0.7850778,11.02678479978691,2.476511258330317,stand
19/08/2020, 20:56:32,-8.372989,6.2893214,3.4536183,2.4854798,-0.7678297,0.9072508,11.02678479978691,2.7550456475583553,stand
19/08/2020, 20:56:32,-8.174202,6.339617,3.3171022,2.4854798,-0.7678297,0.9072508,10.863309145685202,2.7550456475583553,stand
19/08/2020, 20:56:32,-8.174202,6.339617,3.3171022,2.760369,-0.65543056,1.0233152,10.863309145685202,3.016023964484655,stand
19/08/2020, 20:56:32,-8.068821,6.217471,2.943479,2.760369,-0.65543056,1.0233152,10.603154611857132,3.016023964484655,stand
19/08/2020, 20:56:32,-8.068821,6.217471,2.943479,2.886207,-0.58823544,1.1528186,10.603154611857132,3.1631002212462094,stand
19/08/2020, 20:56:32,-7.937095,6.253396,2.4045997,2.886207,-0.58823544,1.1528186,10.386748344882827,3.1631002212462094,stand
19/08/2020, 20:56:32,-7.937095,6.253396,2.4045997,2.8019078,-0.65787405,1.2982044,10.386748344882827,3.1573438487473893,stand
19/08/2020, 20:56:32,-7.913145,6.239026,2.0070264,2.8019078,-0.65787405,1.2982044,10.274797624713418,3.1573438487473893,stand
19/08/2020, 20:56:32,-7.913145,6.239026,2.0070264,2.6589653,-0.7653863,1.4643598,10.274797624713418,3.1305370782959825,stand
19/08/2020, 20:56:32,-7.8484793,6.1695704,1.3819263,2.6589653,-0.7653863,1.4643598,10.078290859472489,3.1305370782959825,stand
19/08/2020, 20:56:32,-7.8484793,6.1695704,1.3819263,2.357198,-1.1184661,1.7612401,10.078290859472489,3.1479065569964337,stand
19/08/2020, 20:56:32,-7.5251517,5.3049684,0.50534916,2.357198,-1.1184661,1.7612401,9.22095307415064,3.1479065569964337,stand
19/08/2020, 20:56:32,-7.5251517,5.3049684,0.50534916,1.9430315,-1.3738078,2.2218323,9.22095307415064,3.255650180873488,stand
19/08/2020, 20:56:32,-7.7383084,5.278623,-0.15088624,1.9430315,-1.3738078,2.2218323,9.36846016617666,3.255650180873488,stand
19/08/2020, 20:56:32,-7.7383084,5.278623,-0.15088624,1.565517,-1.9028169,2.7960455,9.36846016617666,3.7268520377802505,stand
19/08/2020, 20:56:32,-7.441326,6.100115,-1.2837305,1.565517,-1.9028169,2.7960455,9.707352862789184,3.7268520377802505,stand
19/08/2020, 20:56:32,-7.441326,6.100115,-1.2837305,1.1330245,-2.6602895,3.3641498,9.707352862789184,4.436032992698324,stand
19/08/2020, 20:56:32,-6.5120583,6.622229,-1.8345851,1.1330245,-2.6602895,3.3641498,9.467128571055538,4.436032992698324,stand
19/08/2020, 20:56:32,-6.5120583,6.622229,-1.8345851,0.7946053,-3.5240526,3.9041545,9.467128571055538,5.319094578920714,stand
19/08/2020, 20:56:32,-6.210286,7.5251517,-1.7675245,0.7946053,-3.5240526,3.9041545,9.91562934410715,5.319094578920714,stand
19/08/2020, 20:56:32,-6.210286,7.5251517,-1.7675245,0.6895365,-4.652931,4.3708553,9.91562934410715,6.421028407185776,stand
19/08/2020, 20:56:32,-6.552774,8.698711,-2.3327491,0.6895365,-4.652931,4.3708553,11.137690285971477,6.421028407185776,stand
19/08/2020, 20:56:33,-3.180586,8.023315,0.7927515,-0.0764882,-1.2858433,-0.6480115,8.667074093832378,1.4419300355033804,stand
19/08/2020, 20:56:33,-3.180586,8.023315,0.7927515,0.105549574,-1.3029474,-0.62113345,8.667074093832378,1.4472800017726448,stand
19/08/2020, 20:56:33,-3.288362,8.226892,1.0178833,0.105549574,-1.3029474,-0.62113345,8.9180250596202,1.4472800017726448,stand
19/08/2020, 20:56:33,-3.288362,8.226892,1.0178833,0.3743302,-1.3493732,-0.5808163,8.9180250596202,1.5160075169177822,stand
19/08/2020, 20:56:33,-3.432063,8.435259,1.21188,0.3743302,-1.3493732,-0.5808163,9.187018141107593,1.5160075169177822,stand
19/08/2020, 20:56:33,-3.432063,8.435259,1.21188,0.7103059,-1.4251205,-0.5282819,9.187018141107593,1.6776723964604108,stand
19/08/2020, 20:56:33,-3.5949244,8.5502205,1.3986914,0.7103059,-1.4251205,-0.5282819,9.380090079329294,1.6776723964604108,stand
19/08/2020, 20:56:33,-3.5949244,8.5502205,1.3986914,1.0682728,-1.5094198,-0.46230856,9.380090079329294,1.9061175638628614,stand
19/08/2020, 20:56:33,-3.7434156,8.583751,1.4968873,1.0682728,-1.5094198,-0.46230856,9.483385918699774,1.9061175638628614,stand
19/08/2020, 20:56:33,-3.7434156,8.583751,1.4968873,1.3895878,-1.6022713,-0.38045263,9.483385918699774,2.1547556071230316,stand
19/08/2020, 20:56:33,-3.8152664,8.514295,1.3627661,1.3895878,-1.6022713,-0.38045263,9.429029748617141,2.1547556071230316,stand
19/08/2020, 20:56:33,-3.8152664,8.514295,1.3627661,1.6168296,-1.7110052,-0.28393596,9.429029748617141,2.371138234648466,stand
19/08/2020, 20:56:33,-3.923042,8.456815,1.1903248,1.6168296,-1.7110052,-0.28393596,9.398130030559372,2.371138234648466,stand
19/08/2020, 20:56:33,-3.923042,8.456815,1.1903248,1.7304505,-1.8197392,-0.18864103,9.398130030559372,2.5182325638968988,stand
19/08/2020, 20:56:33,-3.9589674,8.504715,1.0633887,1.7304505,-1.8197392,-0.18864103,9.441101388976746,2.5182325638968988,stand
19/08/2020, 20:56:33,-3.9589674,8.504715,1.0633887,1.7316722,-1.8832692,-0.10067646,9.441101388976746,2.560376357421126,stand
19/08/2020, 20:56:33,-3.9014869,8.53585,0.8334668,1.7316722,-1.8832692,-0.10067646,9.422154460677978,2.560376357421126,stand
19/08/2020, 20:56:33,-3.9014869,8.53585,0.8334668,1.6754726,-1.8893778,-0.035924774,9.422154460677978,2.5255192879470645,stand
19/08/2020, 20:56:33,-3.908672,8.595725,0.98435307,1.6754726,-1.8893778,-0.035924774,9.493848418704019,2.5255192879470645,stand
19/08/2020, 20:56:33,-3.908672,8.595725,0.98435307,1.6498163,-1.8270696,0.011722701,9.493848418704019,2.4617503187327276,stand
19/08/2020, 20:56:33,-3.894302,8.760982,1.1687696,1.6498163,-1.8270696,0.011722701,9.658488882033133,2.4617503187327276,stand
19/08/2020, 20:56:33,-3.894302,8.760982,1.1687696,1.6840247,-1.7097836,0.05326152,9.658488882033133,2.4004449073036933,stand
19/08/2020, 20:56:33,-3.8799317,8.919053,1.1615845,1.6840247,-1.7097836,0.05326152,9.795542672625986,2.4004449073036933,stand
19/08/2020, 20:56:33,-3.8799317,8.919053,1.1615845,1.7585503,-1.5387414,0.107017644,9.795542672625986,2.339161565225923,stand
19/08/2020, 20:56:33,-3.899092,9.18011,1.0442286,1.7585503,-1.5387414,0.107017644,10.02834735040238,2.339161565225923,stand
19/08/2020, 20:56:33,-3.899092,9.18011,1.0442286,1.7988673,-1.3383776,0.16566068,10.02834735040238,2.2482486009620968,stand
19/08/2020, 20:56:33,-3.6931202,9.433982,0.44786867,1.7988673,-1.3383776,0.16566068,10.14099294296973,2.2482486009620968,stand
19/08/2020, 20:56:33,-3.6931202,9.433982,0.44786867,1.682803,-1.1490095,0.22919065,10.14099294296973,2.050506561845712,stand
19/08/2020, 20:56:33,-3.7314405,9.989627,-0.34009278,1.682803,-1.1490095,0.22919065,10.669206011830878,2.050506561845712,stand
19/08/2020, 20:56:33,-3.7314405,9.989627,-0.34009278,1.4262397,-1.0744839,0.2805033,10.669206011830878,1.807583319597705,stand
19/08/2020, 20:56:34,-1.81782,10.94045,-2.6512868,1.0572772,-1.757431,-1.7500119,11.402948357801996,2.696097296595989,stand
19/08/2020, 20:56:34,-1.81782,10.94045,-2.6512868,-0.8327391,-1.6205972,-1.5972958,11.402948357801996,2.4230442849294307,stand
19/08/2020, 20:56:34,-1.3962965,10.312955,-3.6955154,-0.8327391,-1.6205972,-1.5972958,11.0437093755708,2.4230442849294307,stand
19/08/2020, 20:56:34,-1.3962965,10.312955,-3.6955154,-2.7972808,-1.3750294,-1.4470229,11.0437093755708,3.436475098011945,stand
19/08/2020, 20:56:34,-1.1927198,8.674761,-2.4668703,-2.7972808,-1.3750294,-1.4470229,9.097225122872345,3.436475098011945,stand
19/08/2020, 20:56:34,-1.1927198,8.674761,-2.4668703,-4.1448493,-0.9242112,-1.2662069,9.097225122872345,4.431390513854272,stand
19/08/2020, 20:56:34,-1.1064991,7.800579,-1.1424243,-4.1448493,-0.9242112,-1.2662069,7.96106195382594,4.431390513854272,stand
19/08/2020, 20:56:34,-1.1064991,7.800579,-1.1424243,-4.6604195,-0.5796833,-1.0316347,7.96106195382594,4.8083066088253945,stand
19/08/2020, 20:56:34,-1.0370435,7.774234,-0.48139894,-4.6604195,-0.5796833,-1.0316347,7.8578569291617395,4.8083066088253945,stand
19/08/2020, 20:56:34,-1.0370435,7.774234,-0.48139894,-4.57612,-0.46239722,-0.7750714,7.8578569291617395,4.664270593766472,stand
19/08/2020, 20:56:34,-1.583108,8.126302,-0.045505375,-4.57612,-0.46239722,-0.7750714,8.27919572773399,4.664270593766472,stand
19/08/2020, 20:56:34,-1.583108,8.126302,-0.045505375,-4.0776544,-0.5112664,-0.49773872,8.27919572773399,4.139613782519457,stand
19/08/2020, 20:56:34,-1.8848804,8.052056,0.24668702,-4.0776544,-0.5112664,-0.49773872,8.273405559981978,4.139613782519457,stand
19/08/2020, 20:56:34,-1.8848804,8.052056,0.24668702,-3.4496846,-0.71040845,-0.22773638,8.273405559981978,3.5294288492482195,stand
19/08/2020, 20:56:34,-2.0812721,7.7335186,-0.3879932,-3.4496846,-0.71040845,-0.22773638,8.018075973447372,3.5294288492482195,stand
19/08/2020, 20:56:34,-2.0812721,7.7335186,-0.3879932,-2.9927576,-0.95108926,0.00683578,8.018075973447372,3.1402572060106655,stand
19/08/2020, 20:56:34,-2.3614893,7.448511,-1.0418335,-2.9927576,-0.95108926,0.00683578,7.883042987161621,3.1402572060106655,stand
19/08/2020, 20:56:34,-2.3614893,7.448511,-1.0418335,-2.7655158,-1.1905483,0.23407756,7.883042987161621,3.0199793415364242,stand
19/08/2020, 20:56:34,-2.802173,7.3072047,-1.4873072,-2.7655158,-1.1905483,0.23407756,7.966146904647559,3.0199793415364242,stand
19/08/2020, 20:56:34,-2.802173,7.3072047,-1.4873072,-2.7190902,-1.3921337,0.45276722,7.966146904647559,3.0881201523048407,stand
19/08/2020, 20:56:34,-3.0895753,7.479646,-1.5663428,-2.7190902,-1.3921337,0.45276722,8.2428158238189,3.0881201523048407,stand
19/08/2020, 20:56:34,-3.0895753,7.479646,-1.5663428,-2.8290458,-1.6144886,0.6494658,8.2428158238189,3.321427291492023,stand
19/08/2020, 20:56:34,-3.3338673,7.8915896,-1.343606,-2.8290458,-1.6144886,0.6494658,8.671628185742835,3.321427291492023,stand
19/08/2020, 20:56:34,-3.3338673,7.8915896,-1.343606,-2.9426668,-1.7965263,0.82295144,8.671628185742835,3.544579463393149,stand
19/08/2020, 20:56:34,-3.4608033,8.303533,-0.728086,-2.9426668,-1.7965263,0.82295144,9.025293465458976,3.544579463393149,stand
19/08/2020, 20:56:34,-3.4608033,8.303533,-0.728086,-2.873028,-1.879604,0.9732243,9.025293465458976,3.5685244500872675,stand
19/08/2020, 20:56:34,-3.5829494,8.897498,0.16765137,-2.873028,-1.879604,0.9732243,9.593284441319755,3.5685244500872675,stand
19/08/2020, 20:56:34,-3.5829494,8.897498,0.16765137,-2.5944736,-1.9235862,1.08318,9.593284441319755,3.4065754251786733,stand
19/08/2020, 20:56:34,-3.5973196,9.606423,1.0130934,-2.5944736,-1.9235862,1.08318,10.307785241437799,3.4065754251786733,stand
19/08/2020, 20:56:34,-3.5973196,9.606423,1.0130934,-2.0117085,-1.7806438,1.128384,10.307785241437799,2.91391728357149,stand
19/08/2020, 20:56:35,-1.3675562,9.826766,-0.51971924,2.3914065,-2.246123,-2.4683893,9.935071634709498,4.105708184061573,stand
19/08/2020, 20:56:35,-1.6405884,9.611214,-0.76161623,2.3914065,-2.246123,-2.4683893,9.779929348933633,4.105708184061573,stand
19/08/2020, 20:56:35,-1.6405884,9.611214,-0.76161623,2.2997768,-2.2913272,-2.3071208,9.779929348933633,3.982707645974027,stand
19/08/2020, 20:56:35,-1.8537452,9.584868,-1.3603711,2.2997768,-2.2913272,-2.3071208,9.856809004660844,3.982707645974027,stand
19/08/2020, 20:56:35,-1.8537452,9.584868,-1.3603711,2.0248876,-2.1948104,-2.1482959,9.856809004660844,3.6786597387285904,stand
19/08/2020, 20:56:35,-1.7771046,9.70941,-2.1531227,2.0248876,-2.1948104,-2.1482959,10.102805303985223,3.6786597387285904,stand
19/08/2020, 20:56:35,-1.7771046,9.70941,-2.1531227,1.515426,-2.0958502,-2.0065753,10.102805303985223,3.273446025893517,stand
19/08/2020, 20:56:35,-1.9854712,9.529783,-2.955454,1.515426,-2.0958502,-2.0065753,10.17317914188961,3.273446025893517,stand
19/08/2020, 20:56:35,-1.9854712,9.529783,-2.955454,0.83003545,-2.0347638,-1.8734066,10.17317914188961,2.8877110470031164,stand
19/08/2020, 20:56:35,-2.1076174,9.374106,-3.2428565,0.83003545,-2.0347638,-1.8734066,10.140613405604203,2.8877110470031164,stand
19/08/2020, 20:56:35,-2.1076174,9.374106,-3.2428565,0.09088882,-1.9858946,-1.7402381,10.140613405604203,2.642057252663906,stand
19/08/2020, 20:56:35,-2.2058132,9.319021,-3.3410523,0.09088882,-1.9858946,-1.7402381,10.142603155006595,2.642057252663906,stand
19/08/2020, 20:56:35,-2.2058132,9.319021,-3.3410523,-0.61649287,-1.9138124,-1.6107347,10.142603155006595,2.5762778637745702,stand
19/08/2020, 20:56:35,-2.2201831,9.280701,-3.182981,-0.61649287,-1.9138124,-1.6107347,10.059422769940285,2.5762778637745702,stand
19/08/2020, 20:56:35,-2.2201831,9.280701,-3.182981,-1.2151406,-1.7806438,-1.4836748,10.059422769940285,2.616973415138337,stand
19/08/2020, 20:56:35,-2.1627028,9.251961,-2.7494826,-1.2151406,-1.7806438,-1.4836748,9.89119385811996,2.616973415138337,stand
19/08/2020, 20:56:35,-2.1627028,9.251961,-2.7494826,-1.6158681,-1.5741715,-1.3553932,9.89119385811996,2.6317553809966543,stand
19/08/2020, 20:56:35,-2.0333717,9.302257,-2.3423293,-1.6158681,-1.5741715,-1.3553932,9.80576791253204,2.6317553809966543,stand
19/08/2020, 20:56:35,-2.0333717,9.302257,-2.3423293,-1.8223404,-1.3188299,-1.224668,9.80576791253204,2.5612591599878374,stand
19/08/2020, 20:56:35,-2.078877,9.407638,-1.9567311,-1.8223404,-1.3188299,-1.224668,9.831285324363702,2.5612591599878374,stand
19/08/2020, 20:56:35,-2.078877,9.407638,-1.9567311,-1.8516619,-1.0793709,-1.0682867,9.831285324363702,2.394771324289594,stand
19/08/2020, 20:56:35,-2.1004322,9.589659,-1.7914747,-1.8516619,-1.0793709,-1.0682867,9.979115769676158,2.394771324289594,stand
19/08/2020, 20:56:35,-2.1004322,9.589659,-1.7914747,-1.7930189,-0.9058852,-0.8813619,9.979115769676158,2.193705481999595,stand
19/08/2020, 20:56:35,-2.201023,9.860296,-1.7579445,-1.7930189,-0.9058852,-0.8813619,10.254770283206033,2.193705481999595,stand
19/08/2020, 20:56:35,-2.201023,9.860296,-1.7579445,-1.7282672,-0.7837122,-0.65534186,10.254770283206033,2.00763175743736,stand
19/08/2020, 20:56:35,-2.2776637,9.972861,-1.9064356,-1.7282672,-0.7837122,-0.65534186,10.40577777032601,2.00763175743736,stand
19/08/2020, 20:56:35,-2.2776637,9.972861,-1.9064356,-1.7184933,-0.67497826,-0.40244377,10.40577777032601,1.8896497028601318,stand
19/08/2020, 20:56:35,-2.3303542,9.929751,-2.071692,-1.7184933,-0.67497826,-0.40244377,10.407805784713245,1.8896497028601318,stand
19/08/2020, 20:56:35,-2.3303542,9.929751,-2.071692,-1.8174535,-0.5760181,-0.1226676,10.407805784713245,1.9104924560017247,stand
19/08/2020, 20:56:35,-2.2249732,9.608819,-2.1076174,-1.8174535,-0.5760181,-0.1226676,10.085730488547798,1.9104924560017247,stand
19/08/2020, 20:56:36,-2.2201831,8.981323,0.85023195,1.4861045,-0.8997766,-0.49896047,9.290655234733437,1.807502693335132,stand
19/08/2020, 20:56:36,-2.2201831,8.981323,0.85023195,1.841628,-0.8166989,-0.44031742,9.290655234733437,2.0621518048244765,stand
19/08/2020, 20:56:36,-2.1627028,9.045989,0.86939216,1.841628,-0.8166989,-0.44031742,9.341469036915395,2.0621518048244765,stand
19/08/2020, 20:56:36,-2.1627028,9.045989,0.86939216,2.2142558,-0.71163017,-0.37800917,9.341469036915395,2.3563185728052947,stand
19/08/2020, 20:56:36,-2.2920337,9.129815,0.6346802,2.2142558,-0.71163017,-0.37800917,9.434498455978778,2.3563185728052947,stand
19/08/2020, 20:56:36,-2.2920337,9.129815,0.6346802,2.5355706,-0.6652044,-0.297375,9.434498455978778,2.638190130532157,stand
19/08/2020, 20:56:36,-2.4525,9.311836,0.2921924,2.5355706,-0.6652044,-0.297375,9.633816864218035,2.638190130532157,stand
19/08/2020, 20:56:36,-2.4525,9.311836,0.2921924,2.7713647,-0.7018563,-0.21307562,9.633816864218035,2.866786658771648,stand
19/08/2020, 20:56:36,-2.4836354,9.491463,-0.045505375,2.7713647,-0.7018563,-0.21307562,9.81113550994442,2.866786658771648,stand
19/08/2020, 20:56:36,-2.4836354,9.491463,-0.045505375,2.9228592,-0.798373,-0.11167204,9.81113550994442,3.0319920713646553,stand
19/08/2020, 20:56:36,-2.7494826,9.699829,-0.20118165,2.9228592,-0.798373,-0.11167204,10.083987970927424,3.0319920713646553,stand
19/08/2020, 20:56:36,-2.7494826,9.699829,-0.20118165,3.0291495,-0.96575,0.015387891,10.083987970927424,3.179411376073204,stand
19/08/2020, 20:56:36,-3.3386574,8.971744,-0.34009278,3.0291495,-0.96575,0.015387891,9.578855835872677,3.179411376073204,stand
19/08/2020, 20:56:36,-3.3386574,8.971744,-0.34009278,3.1757572,-1.2259784,0.29027715,9.578855835872677,3.416535877383236,stand
19/08/2020, 20:56:36,-3.7290456,8.954978,-0.364043,3.1757572,-1.2259784,0.29027715,9.70721069091574,3.416535877383236,stand
19/08/2020, 20:56:36,-3.7290456,8.954978,-0.364043,3.3186996,-1.6230407,0.48575395,9.70721069091574,3.7261219737775453,stand
19/08/2020, 20:56:36,-3.1302907,9.814791,-0.58677983,3.3186996,-1.6230407,0.48575395,10.31858264106449,3.7261219737775453,stand
19/08/2020, 20:56:36,-3.1302907,9.814791,-0.58677983,3.439651,-2.1373892,0.50530165,10.31858264106449,4.081049052501005,stand
19/08/2020, 20:56:36,-2.0381618,10.921289,-0.81191164,3.439651,-2.1373892,0.50530165,11.139473370506458,4.081049052501005,stand
19/08/2020, 20:56:36,-2.0381618,10.921289,-0.81191164,3.5227284,-2.6016467,0.29882926,11.139473370506458,4.389473768223,stand
19/08/2020, 20:56:36,-2.2489235,11.074571,-0.87897223,3.5227284,-2.6016467,0.29882926,11.334741482950692,4.389473768223,stand
19/08/2020, 20:56:36,-2.2489235,11.074571,-0.87897223,3.51662,-2.645629,0.14000435,11.334741482950692,4.4029046453536616,stand
19/08/2020, 20:56:36,-2.8836036,10.408755,-0.5029541,3.51662,-2.645629,0.14000435,10.812507542815235,4.4029046453536616,stand
19/08/2020, 20:56:36,-2.8836036,10.408755,-0.5029541,3.4237685,-2.051868,0.06181363,10.812507542815235,3.9920137698727376,stand
19/08/2020, 20:56:36,-2.9003687,9.8866415,-0.2706372,3.4237685,-2.051868,0.06181363,10.306845455282136,3.9920137698727376,stand
19/08/2020, 20:56:36,-2.9003687,9.8866415,-0.2706372,3.267387,-1.0586014,-0.02004228,10.306845455282136,3.434655123099584,stand
19/08/2020, 20:56:36,-2.1507277,9.884246,-0.5029541,3.267387,-1.0586014,-0.02004228,10.128025926606298,3.434655123099584,stand
19/08/2020, 20:56:36,-2.1507277,9.884246,-0.5029541,3.0486972,-0.11298243,-0.19230622,10.128025926606298,3.0568450290400824,stand
19/08/2020, 20:56:36,-1.7962648,9.855506,-1.1999048,3.0486972,-0.11298243,-0.19230622,10.089466588559006,3.0568450290400824,stand
19/08/2020, 20:56:36,-1.7962648,9.855506,-1.1999048,2.7005043,0.5968427,-0.35357457,10.089466588559006,2.788182147157636,stand
19/08/2020, 20:56:37,-0.13651612,10.219549,-0.41912845,-0.041058026,-0.37931958,-0.4366522,10.229051311408217,0.5798571026509937,stand
19/08/2020, 20:56:37,-0.24668702,10.31535,-0.44786867,-0.041058026,-0.37931958,-0.4366522,10.32801422211912,0.5798571026509937,stand
19/08/2020, 20:56:37,-0.24668702,10.31535,-0.44786867,-0.19377428,0.23765408,-0.5087343,10.32801422211912,0.5940021091570836,stand
19/08/2020, 20:56:37,-0.2083667,10.281819,-0.5628296,-0.19377428,0.23765408,-0.5087343,10.29932050537123,0.5940021091570836,stand
19/08/2020, 20:56:37,-0.2083667,10.281819,-0.5628296,-0.27685192,0.81064546,-0.5673773,10.29932050537123,1.0274775344302653,stand
19/08/2020, 20:56:37,0.016765138,10.260264,-0.87178713,-0.27685192,0.81064546,-0.5673773,10.297248145056253,1.0274775344302653,stand
19/08/2020, 20:56:37,0.016765138,10.260264,-0.87178713,-0.33793843,1.2345859,-0.63701594,10.297248145056253,1.4297531204518172,stand
19/08/2020, 20:56:37,0.09340577,10.152488,-1.2502003,-0.33793843,1.2345859,-0.63701594,10.229600821560831,1.4297531204518172,stand
19/08/2020, 20:56:37,0.09340577,10.152488,-1.2502003,-0.42223778,1.4935926,-0.68832856,10.229600821560831,1.6979104429900747,stand
19/08/2020, 20:56:37,-0.102985844,9.946517,-1.5471827,-0.42223778,1.4935926,-0.68832856,10.066656871689393,1.6979104429900747,stand
19/08/2020, 20:56:37,-0.102985844,9.946517,-1.5471827,-0.5431891,1.6292046,-0.70298934,10.066656871689393,1.8556821248680904,stand
19/08/2020, 20:56:37,-0.22513184,9.759705,-1.8058448,-0.5431891,1.6292046,-0.70298934,9.927919893376263,1.8556821248680904,stand
19/08/2020, 20:56:37,-0.22513184,9.759705,-1.8058448,-0.70445746,1.6145439,-0.6895503,9.927919893376263,1.8916902383240157,stand
19/08/2020, 20:56:37,-0.23231691,9.74773,-2.196233,-0.70445746,1.6145439,-0.6895503,9.994781429034727,1.8916902383240157,stand
19/08/2020, 20:56:37,-0.23231691,9.74773,-2.196233,-0.90726465,1.4263974,-0.6614505,9.994781429034727,1.8152838843225723,stand
19/08/2020, 20:56:37,-0.2921924,9.711804,-2.3566992,-0.90726465,1.4263974,-0.6614505,9.997927393197863,1.8152838843225723,stand
19/08/2020, 20:56:37,-0.2921924,9.711804,-2.3566992,-1.0978545,1.1441778,-0.60525095,9.997927393197863,1.6972790093863888,stand
19/08/2020, 20:56:37,-0.41194338,9.601634,-2.1363575,-1.0978545,1.1441778,-0.60525095,9.845054437120195,1.6972790093863888,stand
19/08/2020, 20:56:37,-0.41194338,9.601634,-2.1363575,-1.1980364,0.87539715,-0.5282819,9.845054437120195,1.5750216666227,stand
19/08/2020, 20:56:37,-0.44547364,9.489068,-1.7531544,-1.1980364,0.87539715,-0.5282819,9.65993836458459,1.5750216666227,stand
19/08/2020, 20:56:37,-0.44547364,9.489068,-1.7531544,-1.1833756,0.6811421,-0.44886953,9.65993836458459,1.4372947521119959,stand
19/08/2020, 20:56:37,-0.3879932,9.405242,-1.3555812,-1.1833756,0.6811421,-0.44886953,9.510347809084962,1.4372947521119959,stand
19/08/2020, 20:56:37,-0.3879932,9.405242,-1.3555812,-1.0990763,0.5943993,-0.38900474,9.510347809084962,1.3086649041410006,stand
19/08/2020, 20:56:37,-0.34967285,9.417217,-1.1999048,-1.0990763,0.5943993,-0.38900474,9.499790705779889,1.3086649041410006,stand
19/08/2020, 20:56:37,-0.34967285,9.417217,-1.1999048,-1.0587592,0.6005079,-0.35235286,9.499790705779889,1.2671753478875736,stand
19/08/2020, 20:56:37,-0.31853762,9.481883,-1.3004956,-1.0587592,0.6005079,-0.35235286,9.575952236809096,1.2671753478875736,stand
19/08/2020, 20:56:37,-0.31853762,9.481883,-1.3004956,-1.1308413,0.67258996,-0.31447923,9.575952236809096,1.3528031574874948,stand
19/08/2020, 20:56:37,-0.37362307,9.546548,-1.346001,-1.1308413,0.67258996,-0.31447923,9.648206547404454,1.3528031574874948,stand
19/08/2020, 20:56:37,-0.37362307,9.546548,-1.346001,-1.29944,0.76055455,-0.27538386,9.648206547404454,1.5306285894600444,stand
19/08/2020, 20:56:37,-0.4263135,9.546548,-1.4274317,-1.29944,0.76055455,-0.27538386,9.662084716437894,1.5306285894600444,stand
19/08/2020, 20:56:38,0.4526587,9.419612,-2.543511,-2.0556908,-1.3982424,0.14977819,9.76746828031493,2.4906584892100327,stand
19/08/2020, 20:56:38,0.19639161,9.244776,-2.560276,-2.0556908,-1.3982424,0.14977819,9.594762222125748,2.4906584892100327,stand
19/08/2020, 20:56:38,0.19639161,9.244776,-2.560276,-2.2597196,-1.9541296,0.4552107,9.594762222125748,3.021948359528498,stand
19/08/2020, 20:56:38,0.16286133,9.093889,-2.663262,-2.2597196,-1.9541296,0.4552107,9.47725219434937,3.021948359528498,stand
19/08/2020, 20:56:38,0.16286133,9.093889,-2.663262,-2.4087708,-2.8020103,0.75697803,9.47725219434937,3.7717972134585334,stand
19/08/2020, 20:56:38,0.4167334,9.223221,-2.7686427,-2.4087708,-2.8020103,0.75697803,9.638820017475263,3.7717972134585334,stand
19/08/2020, 20:56:38,0.4167334,9.223221,-2.7686427,-2.5187263,-3.803829,1.0257586,9.638820017475263,4.67603228089624,stand
19/08/2020, 20:56:38,0.61073,9.242381,-2.454895,-2.5187263,-3.803829,1.0257586,9.58233317110811,4.67603228089624,stand
19/08/2020, 20:56:38,0.61073,9.242381,-2.454895,-2.578591,-4.679809,1.2530004,9.58233317110811,5.4881467914120226,stand
19/08/2020, 20:56:38,0.7448511,9.259146,-2.0142114,-2.578591,-4.679809,1.2530004,9.504926647916177,5.4881467914120226,stand
19/08/2020, 20:56:38,0.7448511,9.259146,-2.0142114,-2.6164649,-5.2784567,1.4325948,9.504926647916177,6.063029038976407,stand
19/08/2020, 20:56:38,1.0202783,9.465117,-1.6405884,-2.6164649,-5.2784567,1.4325948,9.660276735960911,6.063029038976407,stand
19/08/2020, 20:56:38,1.0202783,9.465117,-1.6405884,-2.6323473,-5.5826674,1.5230027,9.660276735960911,6.357276512257981,stand
19/08/2020, 20:56:38,1.3052857,9.639954,-1.099314,-2.6323473,-5.5826674,1.5230027,9.789840020081204,6.357276512257981,stand
19/08/2020, 20:56:38,1.3052857,9.639954,-1.099314,-2.579813,-5.565563,1.4973464,9.789840020081204,6.314505137606256,stand
19/08/2020, 20:56:38,1.5016773,9.671089,-0.38320315,-2.579813,-5.565563,1.4973464,9.794480336926865,6.314505137606256,stand
19/08/2020, 20:56:38,1.5016773,9.671089,-0.38320315,-2.4710789,-5.200266,1.3873907,9.794480336926865,5.922317883128185,stand
19/08/2020, 20:56:38,1.3627661,9.608819,0.26584718,-2.4710789,-5.200266,1.3873907,9.708615195675833,5.922317883128185,stand
19/08/2020, 20:56:38,1.3627661,9.608819,0.26584718,-2.307367,-4.5026584,1.2273442,9.708615195675833,5.206174115255546,stand
19/08/2020, 20:56:38,1.0585986,9.620794,0.7711963,-2.307367,-4.5026584,1.2273442,9.709534371355389,5.206174115255546,stand
19/08/2020, 20:56:38,1.0585986,9.620794,0.7711963,-2.113112,-3.5985782,1.0086545,9.709534371355389,4.293296079577301,stand
19/08/2020, 20:56:38,1.0059083,9.77647,0.9627979,-2.113112,-3.5985782,1.0086545,9.875130400765793,4.293296079577301,stand
19/08/2020, 20:56:38,1.0059083,9.77647,0.9627979,-1.9298527,-2.5918727,0.7398738,9.875130400765793,3.3150488484880882,stand
19/08/2020, 20:56:38,0.732876,9.826766,1.0777588,-1.9298527,-2.5918727,0.7398738,9.912820059837578,3.3150488484880882,stand
19/08/2020, 20:56:38,0.732876,9.826766,1.0777588,-1.7795799,-1.5705063,0.48941913,9.912820059837578,2.4234120109838893,stand
19/08/2020, 20:56:38,-0.07424561,9.836346,0.9148975,-1.7795799,-1.5705063,0.48941913,9.879081234594798,2.4234120109838893,stand
19/08/2020, 20:56:38,-0.07424561,9.836346,0.9148975,-1.6940588,-0.734843,0.27317291,9.879081234594798,1.866668914234574,stand
19/08/2020, 20:56:38,-0.46942386,10.020762,0.43110353,-1.6940588,-0.734843,0.27317291,10.041010355636717,1.866668914234574,stand
19/08/2020, 20:56:38,-0.46942386,10.020762,0.43110353,-1.6842849,-0.2974637,0.05203979,10.041010355636717,1.7111424528741532,stand
19/08/2020, 20:56:38,-0.2945874,10.109378,-0.20597169,-1.6842849,-0.2974637,0.05203979,10.115766249352232,1.7111424528741532,stand
19/08/2020, 20:56:39,-0.8861573,8.428074,4.4667115,-0.69712704,-0.5601356,0.0850265,9.579625039954502,0.8983137066724391,stand
19/08/2020, 20:56:39,-0.9388477,8.344249,4.598438,-0.69712704,-0.5601356,0.0850265,9.57358619737905,0.8983137066724391,stand
19/08/2020, 20:56:39,-0.9388477,8.344249,4.598438,-0.63359714,-0.5821268,0.08746996,9.57358619737905,0.8648513921990131,stand
19/08/2020, 20:56:39,-0.9268726,8.341853,4.761299,-0.63359714,-0.5821268,0.08746996,9.649641242708478,0.8648513921990131,stand
19/08/2020, 20:56:39,-0.9268726,8.341853,4.761299,-0.5578498,-0.567466,0.07525266,9.649641242708478,0.7992978630724882,stand
19/08/2020, 20:56:39,-0.98195803,8.406519,4.655918,-0.5578498,-0.567466,0.07525266,9.659781351174729,0.7992978630724882,stand
19/08/2020, 20:56:39,-0.98195803,8.406519,4.655918,-0.5688454,-0.54058796,0.04348768,9.659781351174729,0.7859463096948942,stand
19/08/2020, 20:56:39,-0.8430469,8.425679,4.4762917,-0.5688454,-0.54058796,0.04348768,9.578099246322259,0.7859463096948942,stand
19/08/2020, 20:56:39,-0.8430469,8.425679,4.4762917,-0.6372623,-0.5442531,0.0080575105,9.578099246322259,0.8380808980974799,stand
19/08/2020, 20:56:39,-0.65384036,8.406519,4.423601,-0.6372623,-0.5442531,0.0080575105,9.521833593542201,0.8380808980974799,stand
19/08/2020, 20:56:39,-0.65384036,8.406519,4.423601,-0.6775794,-0.5833485,-0.035924774,9.521833593542201,0.8948183747775101,stand
19/08/2020, 20:56:39,-0.6394702,8.183782,4.5481424,-0.6775794,-0.5833485,-0.035924774,9.384498037766708,0.8948183747775101,stand
19/08/2020, 20:56:39,-0.6394702,8.183782,4.5481424,-0.66658384,-0.69086075,-0.043255154,9.384498037766708,0.960985739957604,stand
19/08/2020, 20:56:39,-0.60594,8.119117,4.7133985,-0.66658384,-0.69086075,-0.043255154,9.407621676775088,0.960985739957604,stand
19/08/2020, 20:56:39,-0.60594,8.119117,4.7133985,-0.61404943,-0.7678297,-0.051807262,9.407621676775088,0.9845319566642897,stand
19/08/2020, 20:56:39,-0.4981641,8.176597,4.775669,-0.61404943,-0.7678297,-0.051807262,9.482189379526286,0.9845319566642897,stand
19/08/2020, 20:56:39,-0.4981641,8.176597,4.775669,-0.5737323,-0.8142555,-0.050585534,9.482189379526286,0.9973663556963834,stand
19/08/2020, 20:56:39,-0.5412744,8.111932,4.766089,-0.5737323,-0.8142555,-0.050585534,9.424012921643783,0.9973663556963834,stand
19/08/2020, 20:56:39,-0.5412744,8.111932,4.766089,-0.54807603,-0.8338032,-0.035924774,9.424012921643783,0.9984516341495606,stand
19/08/2020, 20:56:39,-0.45984375,8.0305,4.967271,-0.54807603,-0.8338032,-0.035924774,9.453791453922902,0.9984516341495606,stand
19/08/2020, 20:56:39,-0.45984375,8.0305,4.967271,-0.4918764,-0.8203641,-0.021264011,9.453791453922902,0.9567611144826613,stand
19/08/2020, 20:56:39,-0.4047583,8.068821,5.046306,-0.4918764,-0.8203641,-0.021264011,9.525487202928591,0.9567611144826613,stand
19/08/2020, 20:56:39,-0.4047583,8.068821,5.046306,-0.46499833,-0.8142555,-0.04447688,9.525487202928591,0.9387297930796167,stand
19/08/2020, 20:56:39,-0.19878663,8.277188,4.878655,-0.46499833,-0.8142555,-0.04447688,9.610027912762668,0.9387297930796167,stand
19/08/2020, 20:56:39,-0.19878663,8.277188,4.878655,-0.5187545,-0.88267237,-0.08723743,9.610027912762668,1.0275344735650602,stand
19/08/2020, 20:56:39,-0.038320314,8.504715,4.82357,-0.5187545,-0.88267237,-0.08723743,9.777447032176932,1.0275344735650602,stand
19/08/2020, 20:56:39,-0.038320314,8.504715,4.82357,-0.59450173,-1.0524927,-0.116558954,9.777447032176932,1.2143966667903652,stand
19/08/2020, 20:56:39,-0.081430666,8.617281,4.8451247,-0.59450173,-1.0524927,-0.116558954,9.88632366785306,1.2143966667903652,stand
19/08/2020, 20:56:39,-0.081430666,8.617281,4.8451247,-0.63115364,-1.2418609,-0.1629847,9.88632366785306,1.4025467354813752,stand
19/08/2020, 20:56:39,-0.10538086,8.62207,5.120552,-0.63115364,-1.2418609,-0.1629847,10.02852207604609,1.4025467354813752,stand
19/08/2020, 20:56:40,-0.5987549,8.2197075,4.4547367,-0.9182602,0.033625167,-0.43420875,9.368392485717607,1.0163019810323506,stand
19/08/2020, 20:56:40,-0.47181886,8.083191,4.622388,-0.9182602,0.033625167,-0.43420875,9.323468143677127,1.0163019810323506,stand
19/08/2020, 20:56:40,-0.47181886,8.083191,4.622388,-0.93658614,0.02385133,-0.47086066,9.323468143677127,1.0485572219654509,stand
19/08/2020, 20:56:40,-0.40954837,7.927515,4.6199927,-0.93658614,0.02385133,-0.47086066,9.184637024478768,1.0485572219654509,stand
19/08/2020, 20:56:40,-0.40954837,7.927515,4.6199927,-0.94025135,-0.053117666,-0.49529526,9.184637024478768,1.0640542652544906,stand
19/08/2020, 20:56:40,-0.30416748,7.781419,4.6271777,-0.94025135,-0.053117666,-0.49529526,9.058353603770124,1.0640542652544906,stand
19/08/2020, 20:56:40,-0.30416748,7.781419,4.6271777,-0.9646859,-0.13375185,-0.52950364,9.058353603770124,1.1085497667170798,stand
19/08/2020, 20:56:40,-0.3544629,7.726333,4.526587,-0.9646859,-0.13375185,-0.52950364,8.96168832901377,1.1085497667170798,stand
19/08/2020, 20:56:40,-0.3544629,7.726333,4.526587,-1.0123334,-0.19483835,-0.5747077,8.96168832901377,1.1802837814968374,stand
19/08/2020, 20:56:40,-0.5292993,7.695198,4.8115945,-1.0123334,-0.19483835,-0.5747077,9.091076527967084,1.1802837814968374,stand
19/08/2020, 20:56:40,-0.5292993,7.695198,4.8115945,-1.023329,-0.24248582,-0.60525095,9.091076527967084,1.2133962146924615,stand
19/08/2020, 20:56:40,-0.5221143,7.6449027,4.8259645,-1.023329,-0.24248582,-0.60525095,9.055775703124766,1.2133962146924615,stand
19/08/2020, 20:56:40,-0.5221143,7.6449027,4.8259645,-1.0159986,-0.32312,-0.63823766,9.055775703124766,1.242580780734698,stand
19/08/2020, 20:56:40,-0.7927515,7.807764,5.1780324,-1.0159986,-0.32312,-0.63823766,9.402215374918379,1.242580780734698,stand
19/08/2020, 20:56:40,-0.7927515,7.807764,5.1780324,-1.0599809,-0.38909343,-0.663894,9.402215374918379,1.3098505181062452,stand
19/08/2020, 20:56:40,-1.0370435,8.011341,5.4342995,-1.0599809,-0.38909343,-0.663894,9.73594658883037,1.3098505181062452,stand
19/08/2020, 20:56:40,-1.0370435,8.011341,5.4342995,-1.158941,-0.3671023,-0.68710685,9.73594658883037,1.3964326791996184,stand
19/08/2020, 20:56:40,-1.1831397,7.9802055,5.7480474,-1.158941,-0.3671023,-0.68710685,9.905733100617958,1.3964326791996184,stand
19/08/2020, 20:56:40,-1.1831397,7.9802055,5.7480474,-1.2322448,-0.2974637,-0.72742397,9.905733100617958,1.4615257913084716,stand
19/08/2020, 20:56:40,-1.3579761,7.927515,6.2342362,-1.2322448,-0.2974637,-0.72742397,10.176212216805444,1.4615257913084716,stand
19/08/2020, 20:56:40,-1.3579761,7.927515,6.2342362,-1.2579012,-0.1923949,-0.7506368,10.176212216805444,1.4774257457496736,stand
19/08/2020, 20:56:40,-1.2621753,7.89638,6.423443,-1.2579012,-0.1923949,-0.7506368,10.257022996288757,1.4774257457496736,stand
19/08/2020, 20:56:40,-1.2621753,7.89638,6.423443,-1.2872226,-0.097099945,-0.7836235,10.257022996288757,1.5101113529476788,stand
19/08/2020, 20:56:40,-1.5328126,7.8197393,6.6270194,-1.2872226,-0.097099945,-0.7836235,10.364131609753537,1.5101113529476788,stand
19/08/2020, 20:56:40,-1.5328126,7.8197393,6.6270194,-1.3519744,-0.050674204,-0.78851044,10.364131609753537,1.5659346358364554,stand
19/08/2020, 20:56:40,-1.4106666,7.8484793,6.4928985,-1.3519744,-0.050674204,-0.78851044,10.283303824486191,1.5659346358364554,stand
19/08/2020, 20:56:40,-1.4106666,7.8484793,6.4928985,-1.4167261,-0.038456906,-0.78606695,10.283303824486191,1.6206458774012724,stand
19/08/2020, 20:56:40,-1.6741188,7.6017923,6.5144534,-1.4167261,-0.038456906,-0.78606695,10.150272093447255,1.6206458774012724,stand
19/08/2020, 20:56:40,-1.6741188,7.6017923,6.5144534,-1.4374955,-0.053117666,-0.7591889,10.150272093447255,1.6265246645170475,stand
19/08/2020, 20:56:40,-1.6214283,7.4940166,6.70845,-1.4374955,-0.053117666,-0.7591889,10.187866035029817,1.6265246645170475,stand
19/08/2020, 20:56:41,-1.4849122,7.6425076,5.257068,0.14220148,-0.24737275,-0.23384504,9.394128561116506,0.368914678971255,stand
19/08/2020, 20:56:41,-1.8010547,7.9826,5.503755,0.14220148,-0.24737275,-0.23384504,9.861897604221339,0.368914678971255,stand
19/08/2020, 20:56:41,-1.8010547,7.9826,5.503755,0.17640993,-0.29257676,-0.14954567,9.861897604221339,0.3729417262866704,stand
19/08/2020, 20:56:41,-1.9591261,8.380174,6.1863356,0.17640993,-0.29257676,-0.14954567,10.598878893548392,0.3729417262866704,stand
19/08/2020, 20:56:41,-1.9591261,8.380174,6.1863356,0.248492,-0.3145679,-0.03348131,10.598878893548392,0.4022713428323618,stand
19/08/2020, 20:56:41,-2.2680836,8.638836,6.344407,0.248492,-0.3145679,-0.03348131,10.955600856922945,0.4022713428323618,stand
19/08/2020, 20:56:41,-2.2680836,8.638836,6.344407,0.27414832,-0.30235058,0.08746996,10.955600856922945,0.41740168408773004,stand
19/08/2020, 20:56:41,-1.9303858,8.772957,6.2701616,0.27414832,-0.30235058,0.08746996,10.954729031552153,0.41740168408773004,stand
19/08/2020, 20:56:41,-1.9303858,8.772957,6.2701616,0.31080022,-0.26081178,0.16321722,10.954729031552153,0.43733216423316024,stand
19/08/2020, 20:56:41,-1.5495777,8.296348,6.1384354,0.31080022,-0.26081178,0.16321722,10.436041567771078,0.43733216423316024,stand
19/08/2020, 20:56:41,-1.5495777,8.296348,6.1384354,0.44030362,-0.19483835,0.19253874,10.436041567771078,0.5185560986545276,stand
19/08/2020, 20:56:41,-1.3148658,7.8269243,6.231841,0.44030362,-0.19483835,0.19253874,10.090860213903584,0.5185560986545276,stand
19/08/2020, 20:56:41,-1.3148658,7.8269243,6.231841,0.6834279,-0.17284721,0.20842123,10.090860213903584,0.7351117068775659,stand
19/08/2020, 20:56:41,-1.2981006,7.8915896,6.1695704,0.6834279,-0.17284721,0.20842123,10.100784707282733,0.7351117068775659,stand
19/08/2020, 20:56:41,-1.2981006,7.8915896,6.1695704,0.8251485,-0.1642951,0.22552545,10.100784707282733,0.8710480453190355,stand
19/08/2020, 20:56:41,-1.2717555,8.341853,5.702542,0.8251485,-0.1642951,0.22552545,10.18444201138104,0.8710480453190355,stand
19/08/2020, 20:56:41,-1.2717555,8.341853,5.702542,0.8899002,-0.11298243,0.20964296,10.18444201138104,0.921215273478915,stand
19/08/2020, 20:56:41,-0.8981324,8.293953,5.760022,0.8899002,-0.11298243,0.20964296,10.137758751518508,0.921215273478915,stand
19/08/2020, 20:56:41,-0.8981324,8.293953,5.760022,0.9534302,-0.09343475,0.18032144,10.137758751518508,0.9748204832434482,stand
19/08/2020, 20:56:41,-0.9412427,8.399334,5.3001785,0.9534302,-0.09343475,0.18032144,9.976303980228915,0.9748204832434482,stand
19/08/2020, 20:56:41,-0.9412427,8.399334,5.3001785,0.9070045,-0.0873261,0.15955204,9.976303980228915,0.9250620625500601,stand
19/08/2020, 20:56:41,-1.0370435,8.722662,4.8091993,0.9070045,-0.0873261,0.15955204,10.014424058667624,0.9250620625500601,stand
19/08/2020, 20:56:41,-1.0370435,8.722662,4.8091993,0.7555099,-0.026239602,0.13267396,10.014424058667624,0.7675194629442008,stand
19/08/2020, 20:56:41,-1.2046949,8.665181,4.550537,0.7555099,-0.026239602,0.13267396,9.86123938670245,0.7675194629442008,stand
19/08/2020, 20:56:41,-1.2046949,8.665181,4.550537,0.62234133,0.0043036477,0.12778705,9.86123938670245,0.6353399007401525,stand
19/08/2020, 20:56:41,-1.1304493,8.4448395,4.663103,0.62234133,0.0043036477,0.12778705,9.712762735968747,0.6353399007401525,stand
19/08/2020, 20:56:41,-1.1304493,8.4448395,4.663103,0.57835907,0.071498804,0.11923494,9.712762735968747,0.5948346503054235,stand
19/08/2020, 20:56:41,-1.1663746,8.272398,4.5768824,0.57835907,0.071498804,0.11923494,9.525799198517591,0.5948346503054235,stand
19/08/2020, 20:56:41,-1.1663746,8.272398,4.5768824,0.5307116,0.10326378,0.114348024,9.525799198517591,0.5526243498623552,stand
19/08/2020, 20:56:41,-1.0059083,8.372989,4.3014555,0.5307116,0.10326378,0.114348024,9.466853257177844,0.5526243498623552,stand
19/08/2020, 20:56:42,-1.4058765,5.7815776,8.51669,0.3340131,0.5064347,-0.41832626,10.389280103262253,0.7369109150680165,stand
19/08/2020, 20:56:42,-1.1687696,4.9696655,8.150251,0.3340131,0.5064347,-0.41832626,9.61718230686373,0.7369109150680165,stand
19/08/2020, 20:56:42,-1.1687696,4.9696655,8.150251,0.3132437,0.68480724,-0.5258385,9.61718230686373,0.9184708416193893,stand
19/08/2020, 20:56:42,-1.4920973,4.378096,8.399334,0.3132437,0.68480724,-0.5258385,9.588685550710405,0.9184708416193893,stand
19/08/2020, 20:56:42,-1.4920973,4.378096,8.399334,0.59301984,0.70924187,-0.51728636,9.588685550710405,1.0593779961966272,stand
19/08/2020, 20:56:42,-2.2800586,4.785249,8.519085,0.59301984,0.70924187,-0.51728636,10.033548006432571,1.0593779961966272,stand
19/08/2020, 20:56:42,-2.2800586,4.785249,8.519085,0.6858713,0.4331309,-0.44886953,10.033548006432571,0.9270952831800126,stand
19/08/2020, 20:56:42,-2.4764502,4.761299,8.392149,0.6858713,0.4331309,-0.44886953,9.961472753297285,0.9270952831800126,stand
19/08/2020, 20:56:42,-2.4764502,4.761299,8.392149,0.60645884,0.09837686,-0.3413573,9.961472753297285,0.7028478747319434,stand
19/08/2020, 20:56:42,-2.2058132,4.4116263,7.975415,0.60645884,0.09837686,-0.3413573,9.37738272552245,0.7028478747319434,stand
19/08/2020, 20:56:42,-2.2058132,4.4116263,7.975415,0.5026118,-0.104430325,-0.25094926,9.37738272552245,0.5714016654227769,stand
19/08/2020, 20:56:42,-2.179468,4.655918,7.2832546,0.5026118,-0.104430325,-0.25094926,8.914788380049972,0.5714016654227769,stand
19/08/2020, 20:56:42,-2.179468,4.655918,7.2832546,0.16541436,-0.09099129,-0.25461444,8.914788380049972,0.3169697784927652,stand
19/08/2020, 20:56:42,-2.4022048,4.28469,6.9383717,0.16541436,-0.09099129,-0.25461444,8.501185594169899,0.3169697784927652,stand
19/08/2020, 20:56:42,-2.4022048,4.28469,6.9383717,-0.045944944,0.22543678,-0.2851577,8.501185594169899,0.3663981413725046,stand
19/08/2020, 20:56:42,-2.6057813,4.7014236,7.084468,-0.045944944,0.22543678,-0.2851577,8.892871629293326,0.3663981413725046,stand
19/08/2020, 20:56:42,-2.6057813,4.7014236,7.084468,-0.1620093,0.58218193,-0.2900446,8.892871629293326,0.6703049205115087,stand
19/08/2020, 20:56:42,-2.794988,5.360054,6.615044,-0.1620093,0.58218193,-0.2900446,8.961079465167087,0.6703049205115087,stand
19/08/2020, 20:56:42,-2.794988,5.360054,6.615044,-0.23286963,0.77521527,-0.23017985,8.961079465167087,0.8415282145457826,stand
19/08/2020, 20:56:42,-2.3998096,6.2270513,6.7539554,-0.23286963,0.77521527,-0.23017985,9.494796814250487,0.8415282145457826,stand
19/08/2020, 20:56:42,-2.3998096,6.2270513,6.7539554,-0.33916014,0.6505988,-0.16054124,9.494796814250487,0.7510538741715028,stand
19/08/2020, 20:56:42,-2.6249416,6.607859,7.448511,-0.33916014,0.6505988,-0.16054124,10.297302493393873,0.7510538741715028,stand
19/08/2020, 20:56:42,-2.6249416,6.607859,7.448511,-0.33916014,0.48444355,-0.08479397,10.297302493393873,0.5974154077949577,stand
19/08/2020, 20:56:42,-2.7327175,6.2581863,7.647298,-0.33916014,0.48444355,-0.08479397,10.252502417900219,0.5974154077949577,stand
19/08/2020, 20:56:42,-2.7327175,6.2581863,7.647298,-0.2682998,0.3072927,-0.0066032503,10.252502417900219,0.40799164530778714,stand
19/08/2020, 20:56:42,-2.7183473,5.4438796,7.7862086,-0.2682998,0.3072927,-0.0066032503,9.881815727570428,0.40799164530778714,stand
19/08/2020, 20:56:42,-2.7183473,5.4438796,7.7862086,-0.19010907,0.0959334,0.07769612,9.881815727570428,0.2266745789105634,stand
19/08/2020, 20:56:42,-2.7111623,5.5468655,7.6281376,-0.19010907,0.0959334,0.07769612,9.813592650464146,0.2266745789105634,stand
19/08/2020, 20:56:42,-2.7111623,5.5468655,7.6281376,-0.19010907,-0.08366091,0.14244781,9.813592650464146,0.2518570773426125,stand
19/08/2020, 20:56:42,-2.567461,5.6522465,8.183782,-0.19010907,-0.08366091,0.14244781,10.272002138857466,0.2518570773426125,stand
19/08/2020, 20:56:43,3.8655617,4.1960745,6.466553,-1.87854,-1.032945,1.2664394,8.623567647061574,2.489931119002216,stand
19/08/2020, 20:56:43,3.8655617,4.1960745,6.466553,-1.9200789,-1.0976968,1.2762133,8.623567647061574,2.553499845622548,stand
19/08/2020, 20:56:43,3.539839,4.2080493,6.0450296,-1.9200789,-1.0976968,1.2762133,8.171935058056544,2.553499845622548,stand
19/08/2020, 20:56:43,3.539839,4.2080493,6.0450296,-1.9579525,-0.9681935,1.2065747,8.171935058056544,2.4953554942324327,stand
19/08/2020, 20:56:43,3.2692018,3.8847218,6.318062,-1.9579525,-0.9681935,1.2065747,8.105346908670528,2.4953554942324327,stand
19/08/2020, 20:56:43,3.2692018,3.8847218,6.318062,-2.0251474,-0.7995947,1.0391977,8.105346908670528,2.4125724146005108,stand
19/08/2020, 20:56:43,3.2332766,3.542234,5.6642213,-2.0251474,-0.7995947,1.0391977,7.421920351734771,2.4125724146005108,stand
19/08/2020, 20:56:43,3.2332766,3.542234,5.6642213,-2.248724,-0.7299561,0.7728605,7.421920351734771,2.487349762980301,stand
19/08/2020, 20:56:43,3.2620168,3.539839,5.8821683,-2.248724,-0.7299561,0.7728605,7.600731386478627,2.487349762980301,stand
19/08/2020, 20:56:43,3.2620168,3.539839,5.8821683,-2.2817109,-0.7336213,0.42466745,7.600731386478627,2.4340803427194424,stand
19/08/2020, 20:56:43,3.0799952,3.3697927,6.375542,-2.2817109,-0.7336213,0.42466745,7.841518403958338,2.4340803427194424,stand
19/08/2020, 20:56:43,3.0799952,3.3697927,6.375542,-2.221846,-0.87900716,0.01660962,7.841518403958338,2.389462193961252,stand
19/08/2020, 20:56:43,3.2548318,3.8679566,6.7563505,-2.221846,-0.87900716,0.01660962,8.438204243529151,2.389462193961252,stand
19/08/2020, 20:56:43,3.2548318,3.8679566,6.7563505,-2.1326597,-1.0720404,-0.40488723,8.438204243529151,2.421041440013951,stand
19/08/2020, 20:56:43,3.1614258,4.6846585,7.917935,-2.1326597,-1.0720404,-0.40488723,9.728017875418843,2.421041440013951,stand
19/08/2020, 20:56:43,3.1614258,4.6846585,7.917935,-1.968948,-1.1881047,-0.8202754,9.728017875418843,2.441557068984961,stand
19/08/2020, 20:56:43,2.9410841,5.237908,8.53106,-1.968948,-1.1881047,-0.8202754,10.433822091701789,2.441557068984961,stand
19/08/2020, 20:56:43,2.9410841,5.237908,8.53106,-1.896866,-1.2479696,-1.1635816,10.433822091701789,2.5513625454832227,stand
19/08/2020, 20:56:43,2.8859987,5.5516553,8.746612,-1.896866,-1.2479696,-1.1635816,10.754212176128451,2.5513625454832227,stand
19/08/2020, 20:56:43,2.8859987,5.5516553,8.746612,-1.8614358,-1.2333088,-1.4079275,10.754212176128451,2.6397449854918222,stand
19/08/2020, 20:56:43,2.5291407,5.5780005,9.354947,-1.8614358,-1.2333088,-1.4079275,11.181488178247312,2.6397449854918222,stand
19/08/2020, 20:56:43,2.5291407,5.5780005,9.354947,-1.7991276,-1.1929917,-1.5264354,11.181488178247312,2.643878642371991,stand
19/08/2020, 20:56:43,1.9734962,5.5660257,9.901011,-1.7991276,-1.1929917,-1.5264354,11.528458604095354,2.643878642371991,stand
19/08/2020, 20:56:43,1.9734962,5.5660257,9.901011,-1.8308926,-1.133127,-1.5386527,11.528458604095354,2.6464308643149628,stand
19/08/2020, 20:56:43,1.5950831,5.712122,10.317744,-1.8308926,-1.133127,-1.5386527,11.900776192775906,2.6464308643149628,stand
19/08/2020, 20:56:43,1.5950831,5.712122,10.317744,-1.8834269,-1.0524927,-1.5398744,11.900776192775906,2.6507076682016057,stand
19/08/2020, 20:56:43,1.3627661,6.0402393,10.808723,-1.8834269,-1.0524927,-1.5398744,12.456730124555781,2.6507076682016057,stand
19/08/2020, 20:56:43,1.3627661,6.0402393,10.808723,-1.8797617,-0.96208483,-1.5679742,12.456730124555781,2.6301434134904014,stand
19/08/2020, 20:56:43,1.0873389,6.576724,11.105706,-1.8797617,-0.96208483,-1.5679742,12.952695307545383,2.6301434134904014,stand
19/08/2020, 20:56:43,1.0873389,6.576724,11.105706,-1.7527018,-0.8875593,-1.6070696,12.952695307545383,2.5381878762539984,stand
19/08/2020, 20:56:44,1.6573536,4.368516,7.805369,-1.2847792,0.017742679,0.09968726,9.096952045710202,1.2887629428215142,stand
19/08/2020, 20:56:44,1.6573536,4.368516,7.805369,-1.3837394,-0.031126523,-0.055472452,9.096952045710202,1.385200580533475,stand
19/08/2020, 20:56:44,1.7771046,4.7133985,8.178992,-1.3837394,-0.031126523,-0.055472452,9.60573476644174,1.385200580533475,stand
19/08/2020, 20:56:44,1.7771046,4.7133985,8.178992,-1.4228348,-0.09099129,-0.23506677,9.60573476644174,1.4449894597532884,stand
19/08/2020, 20:56:44,1.9854712,5.225933,8.384964,-1.4228348,-0.09099129,-0.23506677,10.077702797966518,1.4449894597532884,stand
19/08/2020, 20:56:44,1.9854712,5.225933,8.384964,-1.4093957,-0.16918202,-0.42321318,10.077702797966518,1.4812589842318753,stand
19/08/2020, 20:56:44,1.8154249,5.5253105,8.653206,-1.4093957,-0.16918202,-0.42321318,10.426063293263862,1.4812589842318753,stand
19/08/2020, 20:56:44,1.8154249,5.5253105,8.653206,-1.3336484,-0.2534814,-0.5771511,10.426063293263862,1.4751184356515323,stand
19/08/2020, 20:56:44,1.6190332,5.494175,8.646021,-1.3336484,-0.2534814,-0.5771511,10.371157323953714,1.4751184356515323,stand
19/08/2020, 20:56:44,1.6190332,5.494175,8.646021,-1.2566794,-0.40986285,-0.68588513,10.371157323953714,1.4891840450103706,stand
19/08/2020, 20:56:44,1.3052857,5.585186,8.698711,-1.2566794,-0.40986285,-0.68588513,10.419484314629148,1.4891840450103706,stand
19/08/2020, 20:56:44,1.3052857,5.585186,8.698711,-1.2188058,-0.5613574,-0.75185853,10.419484314629148,1.5381485342150572,stand
19/08/2020, 20:56:44,1.096919,5.6522465,9.110655,-1.2188058,-0.5613574,-0.75185853,10.77752999657872,1.5381485342150572,stand
19/08/2020, 20:56:44,1.096919,5.6522465,9.110655,-1.2334665,-0.62610906,-0.7750714,10.77752999657872,1.585619068059476,stand
19/08/2020, 20:56:44,0.9915381,5.8175025,9.395662,-1.2334665,-0.62610906,-0.7750714,11.095267159515222,1.585619068059476,stand
19/08/2020, 20:56:44,0.9915381,5.8175025,9.395662,-1.3434223,-0.62488735,-0.80683637,11.095267159515222,1.6870840460340788,stand
19/08/2020, 20:56:44,0.7831714,6.0210795,9.7740755,-1.3434223,-0.62488735,-0.80683637,11.506489835489521,1.6870840460340788,stand
19/08/2020, 20:56:44,0.7831714,6.0210795,9.7740755,-1.4289434,-0.60411793,-0.8605925,11.506489835489521,1.774107416554476,stand
19/08/2020, 20:56:44,0.39996827,6.212681,10.145303,-1.4289434,-0.60411793,-0.8605925,11.903131768148855,1.774107416554476,stand
19/08/2020, 20:56:44,0.39996827,6.212681,10.145303,-1.4008436,-0.55402696,-0.89480096,11.903131768148855,1.7521351210026161,stand
19/08/2020, 20:56:44,0.026345216,6.2917166,10.684182,-1.4008436,-0.55402696,-0.89480096,12.399118521779442,1.7521351210026161,stand
19/08/2020, 20:56:44,0.026345216,6.2917166,10.684182,-1.3373137,-0.5650225,-0.92778766,12.399118521779442,1.7229185140914332,stand
19/08/2020, 20:56:44,-0.33769777,6.588699,10.497371,-1.3373137,-0.5650225,-0.92778766,12.39837830275195,1.7229185140914332,stand
19/08/2020, 20:56:44,-0.33769777,6.588699,10.497371,-1.2737837,-0.70429975,-0.98887414,12.39837830275195,1.7596690221833386,stand
19/08/2020, 20:56:44,-0.5125342,6.6174393,10.38241,-1.2737837,-0.70429975,-0.98887414,12.322647127724677,1.7596690221833386,stand
19/08/2020, 20:56:44,-0.5125342,6.6174393,10.38241,-1.2114754,-0.9009983,-1.0524042,12.322647127724677,1.8403871960067673,stand
19/08/2020, 20:56:44,-0.62031007,6.464158,10.171648,-1.2114754,-0.9009983,-1.0524042,12.06783110324715,1.8403871960067673,stand
19/08/2020, 20:56:44,-0.62031007,6.464158,10.171648,-1.1552758,-1.0586014,-1.1037167,12.06783110324715,1.9166350010043331,stand
19/08/2020, 20:56:44,-0.8047266,6.219866,10.662627,-1.1552758,-1.0586014,-1.1037167,12.370365180329323,1.9166350010043331,stand
19/08/2020, 20:56:44,-0.8047266,6.219866,10.662627,-1.0477636,-1.1355704,-1.1379253,12.370365180329323,1.9189066144748632,stand
19/08/2020, 20:56:45,1.0274634,8.54064,8.784932,-2.1412117,-0.43796262,-0.44642606,12.295252875405664,2.2306714770460827,stand
19/08/2020, 20:56:45,1.0274634,8.54064,8.784932,-2.0630212,-0.6151135,-0.73597604,12.295252875405664,2.2751003818456894,stand
19/08/2020, 20:56:45,0.847837,8.576566,8.952583,-2.0630212,-0.6151135,-0.73597604,12.426787816695409,2.2751003818456894,stand
19/08/2020, 20:56:45,0.847837,8.576566,8.952583,-2.072795,-0.721404,-1.0768387,12.426787816695409,2.444684880527567,stand
19/08/2020, 20:56:45,0.8334668,8.509504,9.268726,-2.072795,-0.721404,-1.0768387,12.610139524431279,2.444684880527567,stand
19/08/2020, 20:56:45,0.8334668,8.509504,9.268726,-2.3672318,-0.77271664,-1.428697,12.610139524431279,2.8708975441911564,stand
19/08/2020, 20:56:45,0.5604346,8.6077,9.7812605,-2.3672318,-0.77271664,-1.428697,13.041458851636856,2.8708975441911564,stand
19/08/2020, 20:56:45,0.5604346,8.6077,9.7812605,-2.8314893,-0.79592955,-1.8868457,13.041458851636856,3.4944273308943186,stand
19/08/2020, 20:56:45,-0.11496094,8.777747,9.862691,-2.8314893,-0.79592955,-1.8868457,13.203587899317228,3.4944273308943186,stand
19/08/2020, 20:56:45,-0.11496094,8.777747,9.862691,-3.1918998,-0.85823774,-2.3120077,13.203587899317228,4.033630579647382,stand
19/08/2020, 20:56:45,-1.1855347,8.480764,10.128538,-3.1918998,-0.85823774,-2.3120077,13.26333826266885,4.033630579647382,stand
19/08/2020, 20:56:45,-1.1855347,8.480764,10.128538,-2.9573276,-0.9852977,-2.479385,13.26333826266885,3.9829571370047776,stand
19/08/2020, 20:56:45,-2.0070264,8.420889,10.655442,-2.9573276,-0.9852977,-2.479385,13.728728064525336,3.9829571370047776,stand
19/08/2020, 20:56:45,-2.0070264,8.420889,10.655442,-2.2511675,-1.2088742,-2.3999724,13.728728064525336,3.505566983324724,stand
19/08/2020, 20:56:45,-2.5818312,8.238868,10.626702,-2.2511675,-1.2088742,-2.3999724,13.692026743721117,3.505566983324724,stand
19/08/2020, 20:56:45,-2.5818312,8.238868,10.626702,-1.5486729,-1.5509586,-2.12997,13.692026743721117,3.0562449171438604,stand
19/08/2020, 20:56:45,-3.1302907,7.558682,10.375225,-1.5486729,-1.5509586,-2.12997,13.212785035665418,3.0562449171438604,stand
19/08/2020, 20:56:45,-3.1302907,7.558682,10.375225,-1.1894842,-1.8343999,-1.7487903,13.212785035665418,2.7996719944532034,stand
19/08/2020, 20:56:45,-3.163821,7.278465,10.552457,-1.1894842,-1.8343999,-1.7487903,13.203793343535565,2.7996719944532034,stand
19/08/2020, 20:56:45,-3.163821,7.278465,10.552457,-1.3153225,-1.8405086,-1.4323622,13.203793343535565,2.677537418922448,stand
19/08/2020, 20:56:45,-2.931504,6.861731,10.839859,-1.3153225,-1.8405086,-1.4323622,13.159772495498952,2.677537418922448,stand
19/08/2020, 20:56:45,-2.931504,6.861731,10.839859,-1.6500765,-1.757431,-1.1586946,13.159772495498952,2.6746755960150135,stand
19/08/2020, 20:56:45,-2.9913795,6.4210477,11.318863,-1.6500765,-1.757431,-1.1586946,13.352709927375422,2.6746755960150135,stand
19/08/2020, 20:56:45,-2.9913795,6.4210477,11.318863,-1.742928,-1.6572491,-0.92656595,13.352709927375422,2.5773624344090162,stand
19/08/2020, 20:56:45,-3.1063404,5.831873,11.469749,-1.742928,-1.6572491,-0.92656595,13.23688955846105,2.5773624344090162,stand
19/08/2020, 20:56:45,-3.1063404,5.831873,11.469749,-1.5291252,-1.5778366,-0.7457499,13.23688955846105,2.3203308510108194,stand
19/08/2020, 20:56:45,-3.0799952,5.3025737,10.741663,-1.5291252,-1.5778366,-0.7457499,12.368790618130218,2.3203308510108194,stand
19/08/2020, 20:56:45,-3.0799952,5.3025737,10.741663,-1.2432404,-1.5228589,-0.65167665,12.368790618130218,2.0710934667575005,stand
19/08/2020, 20:56:45,-2.6345215,4.766089,10.018367,-1.2432404,-1.5228589,-0.65167665,11.402805841706627,2.0710934667575005,stand
19/08/2020, 20:56:45,-2.6345215,4.766089,10.018367,-0.99400747,-1.4605505,-0.68710685,11.402805841706627,1.8956198370019768,stand
19/08/2020, 20:56:46,-0.20597169,4.5577226,10.722503,-0.8278522,-1.1062489,-0.96321785,11.652781800076378,1.6843142264585997,stand
19/08/2020, 20:56:46,-0.53169435,4.1936793,10.667418,-0.8278522,-1.1062489,-0.96321785,11.474469134110297,1.6843142264585997,stand
19/08/2020, 20:56:46,-0.53169435,4.1936793,10.667418,-0.8498433,-1.0952533,-1.1318166,11.474469134110297,1.7896431055063389,stand
19/08/2020, 20:56:46,-1.0202783,3.8583767,10.578802,-0.8498433,-1.0952533,-1.1318166,11.306595111488768,1.7896431055063389,stand
19/08/2020, 20:56:46,-1.0202783,3.8583767,10.578802,-0.85106504,-1.0830361,-1.2368853,11.306595111488768,1.851260135194917,stand
19/08/2020, 20:56:46,-1.4178516,3.6284547,10.593172,-0.85106504,-1.0830361,-1.2368853,11.286774607714143,1.851260135194917,stand
19/08/2020, 20:56:46,-1.4178516,3.6284547,10.593172,-0.8302956,-1.0427189,-1.2918632,11.286774607714143,1.8562230560672548,stand
19/08/2020, 20:56:46,-1.7339942,3.539839,10.7871685,-0.8302956,-1.0427189,-1.2918632,11.48478126500172,1.8562230560672548,stand
19/08/2020, 20:56:46,-1.7339942,3.539839,10.7871685,-0.78264815,-0.9877411,-1.333402,11.48478126500172,1.8347020521987385,stand
19/08/2020, 20:56:46,-1.9112257,3.6883302,10.933265,-0.78264815,-0.9877411,-1.333402,11.695847158852269,1.8347020521987385,stand
19/08/2020, 20:56:46,-1.9112257,3.6883302,10.933265,-0.7240051,-0.94375885,-1.3737191,11.695847158852269,1.8171318891837196,stand
19/08/2020, 20:56:46,-2.0261867,3.8392165,11.067386,-0.7240051,-0.94375885,-1.3737191,11.888315327142804,1.8171318891837196,stand
19/08/2020, 20:56:46,-2.0261867,3.8392165,11.067386,-0.6629186,-0.90710694,-1.3932668,11.888315327142804,1.7898314075566386,stand
19/08/2020, 20:56:46,-2.318379,3.9493873,11.2374325,-0.6629186,-0.90710694,-1.3932668,12.134761213985097,1.7898314075566386,stand
19/08/2020, 20:56:46,-2.318379,3.9493873,11.2374325,-0.5883931,-0.91199386,-1.3590584,12.134761213985097,1.73924665138478,stand
19/08/2020, 20:56:46,-2.5411158,3.9589674,11.361973,-0.5883931,-0.91199386,-1.3590584,12.297362264616092,1.73924665138478,stand
19/08/2020, 20:56:46,-2.5411158,3.9589674,11.361973,-0.47355044,-0.96697176,-1.2723155,12.297362264616092,1.6667546700818403,stand
19/08/2020, 20:56:46,-2.8668385,3.906277,11.436219,-0.47355044,-0.96697176,-1.2723155,12.420341066688465,1.6667546700818403,stand
19/08/2020, 20:56:46,-2.8668385,3.906277,11.436219,-0.34282532,-1.1062489,-1.1464773,12.420341066688465,1.6296398460220183,stand
19/08/2020, 20:56:46,-3.166216,3.774551,11.5751295,-0.34282532,-1.1062489,-1.1464773,12.579975391929446,1.6296398460220183,stand
19/08/2020, 20:56:46,-3.166216,3.774551,11.5751295,-0.22676098,-1.2601869,-1.0230826,12.579975391929446,1.6389599227256493,stand
19/08/2020, 20:56:46,-3.3434474,3.652405,11.53681,-0.22676098,-1.2601869,-1.0230826,12.55454843653459,1.6389599227256493,stand
19/08/2020, 20:56:46,-3.3434474,3.652405,11.53681,-0.14979199,-1.377473,-0.92412245,12.55454843653459,1.6654944621089562,stand
19/08/2020, 20:56:46,-3.2572267,3.5925295,11.57034,-0.14979199,-1.377473,-0.92412245,12.54545996014915,1.6654944621089562,stand
19/08/2020, 20:56:46,-3.2572267,3.5925295,11.57034,-0.09725761,-1.4214553,-0.8691446,12.54545996014915,1.6689537074941645,stand
19/08/2020, 20:56:46,-3.1853762,3.547024,11.61824,-0.09725761,-1.4214553,-0.8691446,12.558324316813616,1.6689537074941645,stand
19/08/2020, 20:56:46,-3.1853762,3.547024,11.61824,-0.055718787,-1.4080162,-0.831271,12.558324316813616,1.6360396326797297,stand
19/08/2020, 20:56:46,-3.3338673,3.3817677,11.479329,-0.055718787,-1.4080162,-0.831271,12.422802468089673,1.6360396326797297,stand
19/08/2020, 20:56:46,-3.3338673,3.3817677,11.479329,-0.038614567,-1.359147,-0.79339737,12.422802468089673,1.574246138828838,stand
19/08/2020, 20:56:46,-3.3745828,3.1350808,11.316468,-0.038614567,-1.359147,-0.79339737,12.217978309346286,1.574246138828838,stand
19/08/2020, 20:56:47,-0.33769777,1.2478052,6.1623855,-1.0428767,-0.1765124,-0.35601804,6.296511121366185,1.1160185149070665,stand
19/08/2020, 20:56:47,-0.2562671,0.7664063,6.191126,-1.0428767,-0.1765124,-0.35601804,6.24364404615325,1.1160185149070665,stand
19/08/2020, 20:56:47,-0.2562671,0.7664063,6.191126,-1.0514288,-0.2168295,-0.5075125,6.24364404615325,1.1874706259955168,stand
19/08/2020, 20:56:47,-0.3520679,0.4406836,7.2593045,-1.0514288,-0.2168295,-0.5075125,7.281185068397659,1.1874706259955168,stand
19/08/2020, 20:56:47,-0.3520679,0.4406836,7.2593045,-1.0917459,-0.24126409,-0.68588513,7.281185068397659,1.3116995780222227,stand
19/08/2020, 20:56:47,-0.5963599,0.90771246,8.102351,-1.0917459,-0.24126409,-0.68588513,8.17481998787651,1.3116995780222227,stand
19/08/2020, 20:56:47,-0.5963599,0.90771246,8.102351,-1.1564976,-0.21805122,-0.86181426,8.17481998787651,1.4586832588829155,stand
19/08/2020, 20:56:47,-0.58198977,1.9854712,9.034014,-1.1564976,-0.21805122,-0.86181426,9.267913064330514,1.4586832588829155,stand
19/08/2020, 20:56:47,-0.58198977,1.9854712,9.034014,-1.1821539,-0.17406894,-0.9974263,9.267913064330514,1.5564854969093265,stand
19/08/2020, 20:56:47,-0.7879615,2.8428884,9.944121,-1.1821539,-0.17406894,-0.9974263,10.372485099388518,1.5564854969093265,stand
19/08/2020, 20:56:47,-0.7879615,2.8428884,9.944121,-1.1577193,-0.16307338,-1.0389651,10.372485099388518,1.5640828909090632,stand
19/08/2020, 20:56:47,-1.0657837,3.3458424,10.279425,-1.1577193,-0.16307338,-1.0389651,10.862648276460005,1.5640828909090632,stand
19/08/2020, 20:56:47,-1.0657837,3.3458424,10.279425,-1.0917459,-0.21072084,-1.0010915,10.862648276460005,1.4961605634098991,stand
19/08/2020, 20:56:47,-1.463357,3.2165112,10.123748,-1.0917459,-0.21072084,-1.0010915,10.722762157297504,1.4961605634098991,stand
19/08/2020, 20:56:47,-1.463357,3.2165112,10.123748,-1.0221072,-0.30357233,-0.92412245,10.722762157297504,1.4109789802126331,stand
19/08/2020, 20:56:47,-1.5399976,2.9961696,9.592053,-1.0221072,-0.30357233,-0.92412245,10.166420869678479,1.4109789802126331,stand
19/08/2020, 20:56:47,-1.5399976,2.9961696,9.592053,-0.92314714,-0.38542825,-0.8654794,10.166420869678479,1.3228039121642088,stand
19/08/2020, 20:56:47,-1.3986914,2.3902297,9.426797,-0.92314714,-0.38542825,-0.8654794,9.825173573358182,1.3228039121642088,stand
19/08/2020, 20:56:47,-1.3986914,2.3902297,9.426797,-0.90359944,-0.35732844,-0.8960227,9.825173573358182,1.3217534587538613,stand
19/08/2020, 20:56:47,-0.76880133,3.5087037,10.688972,-0.90359944,-0.35732844,-0.8960227,11.276355339118822,1.3217534587538613,stand
19/08/2020, 20:56:47,-0.76880133,3.5087037,10.688972,-2.1680899,0.29385367,-1.537431,11.276355339118822,2.674071377932453,stand
19/08/2020, 20:56:47,-0.86939216,7.084468,11.024276,-2.1680899,0.29385367,-1.537431,13.133171149564435,2.674071377932453,stand
19/08/2020, 20:56:47,-0.86939216,7.084468,11.024276,-3.610953,0.79354125,-2.1421874,13.133171149564435,4.272897919287063,stand
19/08/2020, 20:56:47,-2.914739,1.1687696,13.2492485,-3.610953,0.79354125,-2.1421874,13.61632516974494,4.272897919287063,stand
19/08/2020, 20:56:47,-2.914739,1.1687696,13.2492485,-2.484518,0.94870096,-2.2668037,13.61632516974494,3.4944617137267744,stand
19/08/2020, 20:56:47,-3.908672,-0.9268726,14.683866,-2.484518,0.94870096,-2.2668037,15.223426611176734,3.4944617137267744,stand
19/08/2020, 20:56:47,-3.908672,-0.9268726,14.683866,-0.81441313,2.1081226,-1.9320498,15.223426611176734,2.973258453428723,stand
19/08/2020, 20:56:47,-5.9228835,0.852627,13.562996,-0.81441313,2.1081226,-1.9320498,14.82438463876635,2.973258453428723,stand
19/08/2020, 20:56:47,-5.9228835,0.852627,13.562996,-0.17544833,2.7922914,-0.7457499,14.82438463876635,2.8954820486003894,stand
19/08/2020, 20:56:47,-5.127737,1.4370118,11.2374325,-0.17544833,2.7922914,-0.7457499,12.435376108804727,2.8954820486003894,stand
19/08/2020, 20:56:48,-2.4764502,2.1363575,9.393267,0.0078111757,0.005525378,-0.0029380603,9.946370597466581,0.010008819419766276,stand
19/08/2020, 20:56:48,-2.42376,2.1315675,9.366921,0.0078111757,0.005525378,-0.0029380603,9.907442108195097,0.010008819419766276,stand
19/08/2020, 20:56:48,-2.42376,2.1315675,9.366921,0.002924255,0.010412297,-4.946003E-4,9.907442108195097,0.010826441267390114,stand
19/08/2020, 20:56:48,-2.4453151,2.1746778,9.4435625,0.002924255,0.010412297,-4.946003E-4,9.99448160889157,0.010826441267390114,stand
19/08/2020, 20:56:48,-2.4453151,2.1746778,9.4435625,0.0017025247,0.015299217,-0.0017163303,9.99448160889157,0.015489041809111209,stand
19/08/2020, 20:56:48,-2.4668703,2.1770728,9.448353,0.0017025247,0.015299217,-0.0017163303,10.004822128652673,0.015489041809111209,stand
19/08/2020, 20:56:48,-2.4668703,2.1770728,9.448353,-0.0019626655,0.018964408,-0.0041597905,10.004822128652673,0.01951421743055054,stand
19/08/2020, 20:56:48,-2.4836354,2.1627028,9.436378,-0.0019626655,0.018964408,-0.0041597905,9.994545968867465,0.01951421743055054,stand
19/08/2020, 20:56:48,-2.4836354,2.1627028,9.436378,-0.003184395,0.022629598,-0.0029380603,9.994545968867465,0.023040644133656002,stand
19/08/2020, 20:56:48,-2.4501052,2.1291726,9.419612,-0.003184395,0.022629598,-0.0029380603,9.96320632008428,0.023040644133656002,stand
19/08/2020, 20:56:48,-2.4501052,2.1291726,9.419612,-0.0044061244,0.025073059,-0.0029380603,9.96320632008428,0.025626244614499808,stand
19/08/2020, 20:56:48,-2.4812403,2.1435425,9.474698,-0.0044061244,0.025073059,-0.0029380603,10.026027693724389,0.025626244614499808,stand
19/08/2020, 20:56:48,-2.4812403,2.1435425,9.474698,-0.003184395,0.02751652,-0.0017163303,10.026027693724389,0.02775328835174595,stand
19/08/2020, 20:56:48,-2.42855,2.1004322,9.422008,-0.003184395,0.02751652,-0.0017163303,9.954089453554712,0.02775328835174595,stand
19/08/2020, 20:56:48,-2.42855,2.1004322,9.422008,4.8079528E-4,0.02873825,-0.0017163303,9.954089453554712,0.028793470001742875,stand
19/08/2020, 20:56:48,-2.4812403,2.1195924,9.388477,4.8079528E-4,0.02873825,-0.0017163303,9.939453296936898,0.028793470001742875,stand
19/08/2020, 20:56:48,-2.4812403,2.1195924,9.388477,0.0041459855,0.029959979,-4.946003E-4,9.939453296936898,0.030249531216294822,stand
19/08/2020, 20:56:48,-2.4525,2.1124072,9.426797,0.0041459855,0.029959979,-4.946003E-4,9.967021672321367,0.030249531216294822,stand
19/08/2020, 20:56:48,-2.4525,2.1124072,9.426797,-0.0019626655,0.037290357,-0.0041597905,9.967021672321367,0.03757295093021617,stand
19/08/2020, 20:56:48,-2.4668703,2.1028273,9.383687,-0.0019626655,0.037290357,-0.0041597905,9.927784943845118,0.03757295093021617,stand
19/08/2020, 20:56:48,-2.4668703,2.1028273,9.383687,-0.0019626655,0.054394577,-0.0066032503,9.927784943845118,0.0548290520090874,stand
19/08/2020, 20:56:48,-2.430945,2.1483326,9.321417,-0.0019626655,0.054394577,-0.0066032503,9.869834766924171,0.0548290520090874,stand
19/08/2020, 20:56:48,-2.430945,2.1483326,9.321417,0.0041459855,0.05317285,-0.0029380603,9.869834766924171,0.05341510345747096,stand
19/08/2020, 20:56:48,-2.5363257,2.1315675,9.369317,0.0041459855,0.05317285,-0.0029380603,9.937838296534613,0.05341510345747096,stand
19/08/2020, 20:56:48,-2.5363257,2.1315675,9.369317,0.0017025247,0.04950766,-0.0066032503,9.937838296534613,0.04997509176862193,stand
19/08/2020, 20:56:48,-2.459685,2.1650977,9.369317,0.0017025247,0.04950766,-0.0066032503,9.925814873827258,0.04997509176862193,stand
19/08/2020, 20:56:48,-2.459685,2.1650977,9.369317,0.0041459855,0.060503226,-0.0053815204,9.925814873827258,0.060883415525346,stand
19/08/2020, 20:56:48,-2.4812403,2.1435425,9.321417,0.0041459855,0.060503226,-0.0053815204,9.881302547843651,0.060883415525346,stand
19/08/2020, 20:56:48,-2.4812403,2.1435425,9.321417,0.0017025247,0.06905534,-0.0053815204,9.881302547843651,0.06928563702527832,stand
19/08/2020, 20:56:48,-2.5243506,2.1100123,9.366921,0.0017025247,0.06905534,-0.0053815204,9.927926018320694,0.06928563702527832,stand
19/08/2020, 20:56:49,-2.5530908,2.1076174,9.369317,-0.003184395,-5.832724E-4,-4.946003E-4,9.937022983444638,0.0032749361984552514,stand
19/08/2020, 20:56:49,-2.574646,2.0429518,9.371712,-0.003184395,-5.832724E-4,-4.946003E-4,9.931336008892258,0.0032749361984552514,stand
19/08/2020, 20:56:49,-2.574646,2.0429518,9.371712,-0.0044061244,-5.832724E-4,0.0019488598,9.931336008892258,0.004853060165143055,stand
19/08/2020, 20:56:49,-2.5938063,2.1028273,9.335787,-0.0044061244,-5.832724E-4,0.0019488598,9.914969953863867,0.004853060165143055,stand
19/08/2020, 20:56:49,-2.5938063,2.1028273,9.335787,-0.0044061244,6.384576E-4,0.0019488598,9.914969953863867,0.004860001475873336,stand
19/08/2020, 20:56:49,-2.5962012,2.066902,9.340576,-0.0044061244,6.384576E-4,0.0019488598,9.912553018928277,0.004860001475873336,stand
19/08/2020, 20:56:49,-2.5962012,2.066902,9.340576,4.8079528E-4,0.0030819178,7.2712987E-4,9.912553018928277,0.0032028267266216146,stand
19/08/2020, 20:56:49,-2.6201515,2.1195924,9.366921,4.8079528E-4,0.0030819178,7.2712987E-4,9.954751781330557,0.0032028267266216146,stand
19/08/2020, 20:56:49,-2.6201515,2.1195924,9.366921,0.0017025247,0.0043036477,0.0019488598,9.954751781330557,0.005021755482623402,stand
19/08/2020, 20:56:49,-2.5842261,2.0549269,9.357342,0.0017025247,0.0043036477,0.0019488598,9.92274125839929,0.005021755482623402,stand
19/08/2020, 20:56:49,-2.5842261,2.0549269,9.357342,0.002924255,0.005525378,7.2712987E-4,9.92274125839929,0.006293630767992129,stand
19/08/2020, 20:56:49,-2.5962012,2.1052222,9.362132,0.002924255,0.005525378,7.2712987E-4,9.940912339104871,0.006293630767992129,stand
19/08/2020, 20:56:49,-2.5962012,2.1052222,9.362132,4.8079528E-4,0.0018601877,7.2712987E-4,9.940912339104871,0.0020543077582795654,stand
19/08/2020, 20:56:49,-2.574646,2.083667,9.3309965,4.8079528E-4,0.0018601877,7.2712987E-4,9.901412337172346,0.0020543077582795654,stand
19/08/2020, 20:56:49,-2.574646,2.083667,9.3309965,0.002924255,-5.832724E-4,0.0019488598,9.901412337172346,0.003562236518242325,stand
19/08/2020, 20:56:49,-2.5890162,2.1076174,9.359736,0.002924255,-5.832724E-4,0.0019488598,9.937289477850493,0.003562236518242325,stand
19/08/2020, 20:56:49,-2.5890162,2.1076174,9.359736,0.005367715,-0.0018050025,0.0043923203,9.937289477850493,0.00716678971062518,stand
19/08/2020, 20:56:49,-2.5938063,2.0525317,9.400452,0.005367715,-0.0018050025,0.0043923203,9.96540058516966,0.00716678971062518,stand
19/08/2020, 20:56:49,-2.5938063,2.0525317,9.400452,0.0078111757,-0.0042484626,0.0031705897,9.96540058516966,0.009440155651971713,stand
19/08/2020, 20:56:49,-2.572251,2.1004322,9.364527,0.0078111757,-0.0042484626,0.0031705897,9.935927339748037,0.009440155651971713,stand
19/08/2020, 20:56:49,-2.572251,2.1004322,9.364527,0.0078111757,-0.0054701925,0.0031705897,9.935927339748037,0.010049383582511869,stand
19/08/2020, 20:56:49,-2.548301,2.078877,9.402847,0.0078111757,-0.0054701925,0.0031705897,9.961380653190403,0.010049383582511869,stand
19/08/2020, 20:56:49,-2.548301,2.078877,9.402847,0.0041459855,-0.0042484626,0.0043923203,9.961380653190403,0.00738451810575305,stand
19/08/2020, 20:56:49,-2.562671,2.1171973,9.400452,0.0041459855,-0.0042484626,0.0043923203,9.970872484140017,0.00738451810575305,stand
19/08/2020, 20:56:49,-2.562671,2.1171973,9.400452,0.002924255,-0.0018050025,0.0031705897,9.970872484140017,0.004675675422437163,stand
19/08/2020, 20:56:49,-2.579436,2.1148024,9.395662,0.002924255,-0.0018050025,0.0031705897,9.970172999113622,0.004675675422437163,stand
19/08/2020, 20:56:49,-2.579436,2.1148024,9.395662,0.002924255,6.384576E-4,0.0031705897,9.970172999113622,0.0043602218874933,stand
19/08/2020, 20:56:49,-2.555486,2.1267774,9.419612,0.002924255,6.384576E-4,0.0031705897,9.98913307514172,0.0043602218874933,stand
19/08/2020, 20:56:49,-2.555486,2.1267774,9.419612,0.002924255,0.0043036477,7.2712987E-4,9.98913307514172,0.005253700503666168,stand
19/08/2020, 20:56:49,-2.550696,2.1076174,9.381292,0.002924255,0.0043036477,7.2712987E-4,9.947700568227711,0.005253700503666168,stand
19/08/2020, 20:56:50,-2.9482691,2.6776319,9.678274,0.14220148,0.22910197,-0.057915915,10.465705605434392,0.27579562731604984,stand
19/08/2020, 20:56:50,-2.8931837,2.7231374,9.77168,0.14220148,0.22910197,-0.057915915,10.548540979456563,0.27579562731604984,stand
19/08/2020, 20:56:50,-2.8931837,2.7231374,9.77168,0.21550527,0.20955428,-0.06280283,10.548540979456563,0.30708258810697386,stand
19/08/2020, 20:56:50,-2.914739,2.9171338,9.740545,0.21550527,0.20955428,-0.06280283,10.57750418028274,0.30708258810697386,stand
19/08/2020, 20:56:50,-2.914739,2.9171338,9.740545,0.2448268,0.20344564,-0.051807262,10.57750418028274,0.3225124509642088,stand
19/08/2020, 20:56:50,-2.8500733,2.8572583,9.544153,0.2448268,0.20344564,-0.051807262,10.362321347005295,0.3225124509642088,stand
19/08/2020, 20:56:50,-2.8500733,2.8572583,9.544153,0.27170488,0.17290239,-0.055472452,10.362321347005295,0.32679653097271055,stand
19/08/2020, 20:56:50,-2.7566676,2.9746144,9.455538,0.27170488,0.17290239,-0.055472452,10.28857337371459,0.32679653097271055,stand
19/08/2020, 20:56:50,-2.7566676,2.9746144,9.455538,0.2900308,0.11059416,-0.061581105,10.28857337371459,0.316450896768224,stand
19/08/2020, 20:56:50,-2.7758276,3.0129347,9.316627,0.2900308,0.11059416,-0.061581105,10.177550038466933,0.316450896768224,stand
19/08/2020, 20:56:50,-2.7758276,3.0129347,9.316627,0.27781352,0.07027707,-0.0774636,10.177550038466933,0.296849844043499,stand
19/08/2020, 20:56:50,-2.6057813,2.9458742,9.311836,0.27781352,0.07027707,-0.0774636,10.108341375660833,0.296849844043499,stand
19/08/2020, 20:56:50,-2.6057813,2.9458742,9.311836,0.23871815,0.039733816,-0.095789544,10.108341375660833,0.26027056890776207,stand
19/08/2020, 20:56:50,-2.543511,2.9171338,9.4507475,0.23871815,0.039733816,-0.095789544,10.212528851456987,0.26027056890776207,stand
19/08/2020, 20:56:50,-2.543511,2.9171338,9.4507475,0.21794873,0.037290357,-0.110450305,10.212528851456987,0.24716693063034623,stand
19/08/2020, 20:56:50,-2.5459058,3.0177248,9.599238,0.21794873,0.037290357,-0.110450305,10.379483462397348,0.24716693063034623,stand
19/08/2020, 20:56:50,-2.5459058,3.0177248,9.599238,0.16419262,0.048285928,-0.12022415,10.379483462397348,0.20915207872424413,stand
19/08/2020, 20:56:50,-2.5075855,3.0728102,9.81,0.16419262,0.048285928,-0.12022415,10.58141085867787,0.20915207872424413,stand
19/08/2020, 20:56:50,-2.5075855,3.0728102,9.81,0.09088882,0.09471167,-0.13488491,10.58141085867787,0.18821534616918695,stand
19/08/2020, 20:56:50,-2.5195606,3.2117214,9.948912,0.09088882,0.09471167,-0.13488491,10.753798553546607,0.18821534616918695,stand
19/08/2020, 20:56:50,-2.5195606,3.2117214,9.948912,0.040797886,0.1411374,-0.14465874,10.753798553546607,0.20618047243088813,stand
19/08/2020, 20:56:50,-2.5770411,3.2692018,9.79563,0.040797886,0.1411374,-0.14465874,10.643457953782463,0.20618047243088813,stand
19/08/2020, 20:56:50,-2.5770411,3.2692018,9.79563,0.04690654,0.1570199,-0.14465874,10.643457953782463,0.21859008236728528,stand
19/08/2020, 20:56:50,-2.7327175,3.2476466,9.798025,0.04690654,0.1570199,-0.14465874,10.677839188179762,0.21859008236728528,stand
19/08/2020, 20:56:50,-2.7327175,3.2476466,9.798025,0.13609283,0.15579817,-0.13610664,10.677839188179762,0.24762742942314675,stand
19/08/2020, 20:56:50,-2.8500733,3.1973512,9.821976,0.13609283,0.15579817,-0.13610664,10.715277861292929,0.24762742942314675,stand
19/08/2020, 20:56:50,-2.8500733,3.1973512,9.821976,0.24604854,0.14968951,-0.13732837,10.715277861292929,0.31907039209497323,stand
19/08/2020, 20:56:50,-2.931504,3.056045,9.836346,0.24604854,0.14968951,-0.13732837,10.709193402820112,0.31907039209497323,stand
19/08/2020, 20:56:50,-2.931504,3.056045,9.836346,0.30469158,0.14602433,-0.13732837,10.709193402820112,0.36471790149326044,stand
19/08/2020, 20:56:50,-3.0225148,2.9410841,9.81,0.30469158,0.14602433,-0.13732837,10.678093464068791,0.36471790149326044,stand
19/08/2020, 20:56:51,-3.7482057,-9.867481,8.076006,-0.8461781,-0.62244385,-2.5343626,13.290526829800838,2.743437134619438,stand
19/08/2020, 20:56:51,-3.7482057,-9.867481,8.076006,1.985792,-0.46728414,-0.6968807,13.290526829800838,2.1557753146385665,stand
19/08/2020, 20:56:51,-6.998247,-1.0777588,7.2114043,1.985792,-0.46728414,-0.6968807,10.106501840424533,2.1557753146385665,stand
19/08/2020, 20:56:51,-6.998247,-1.0777588,7.2114043,1.20755,-0.8069251,0.49064088,10.106501840424533,1.5329819758445367,stand
19/08/2020, 20:56:51,-3.0057497,2.3375392,0.19878663,1.20755,-0.8069251,0.49064088,3.8128908837597293,1.5329819758445367,stand
19/08/2020, 20:56:51,-3.0057497,2.3375392,0.19878663,-1.2163624,-2.292549,0.43321955,3.8128908837597293,2.6311588700725776,stand
19/08/2020, 20:56:51,-2.8476784,1.5232325,13.943805,-1.2163624,-2.292549,0.43321955,14.312903275722206,2.6311588700725776,stand
19/08/2020, 20:56:51,-2.8476784,1.5232325,13.943805,-0.61404943,-3.6230128,1.3495171,14.312903275722206,3.9146487380923203,stand
19/08/2020, 20:56:51,-7.726333,5.0606766,26.860146,-0.61404943,-3.6230128,1.3495171,28.40376896090097,3.9146487380923203,stand
19/08/2020, 20:56:51,-7.726333,5.0606766,26.860146,2.1348433,-4.9937935,1.1772531,28.40376896090097,5.557108461085421,stand
19/08/2020, 20:56:51,-14.741345,11.326048,29.904215,2.1348433,-4.9937935,1.1772531,35.21148522390315,5.557108461085421,stand
19/08/2020, 20:56:51,-14.741345,11.326048,29.904215,2.773808,-4.457454,1.816218,35.21148522390315,5.555317876698009,stand
19/08/2020, 20:56:51,-15.890955,16.868124,27.650501,2.773808,-4.457454,1.816218,36.077780930918756,5.555317876698009,stand
19/08/2020, 20:56:51,-15.890955,16.868124,27.650501,2.0676482,-1.9822294,2.249932,36.077780930918756,3.642333922287969,stand
19/08/2020, 20:56:51,-13.002562,17.19145,19.821182,2.0676482,-1.9822294,2.249932,29.282961434635137,3.642333922287969,stand
19/08/2020, 20:56:51,-13.002562,17.19145,19.821182,0.5502593,-0.23271199,1.874861,29.282961434635137,1.96775098362684,stand
19/08/2020, 20:56:51,-5.000801,17.361498,8.5598,0.5502593,-0.23271199,1.874861,19.99249355841783,1.96775098362684,stand
19/08/2020, 20:56:51,-5.000801,17.361498,8.5598,-1.4374955,0.8130889,1.001324,19.99249355841783,1.9313613447669686,stand
19/08/2020, 20:56:51,-2.7159522,12.147539,7.2257743,-1.4374955,0.8130889,1.001324,14.392738353649822,1.9313613447669686,stand
19/08/2020, 20:56:51,-2.7159522,12.147539,7.2257743,-2.1790855,0.29018846,0.22186026,14.392738353649822,2.209489738438167,stand
19/08/2020, 20:56:51,-3.0296998,2.6584718,10.782378,-2.1790855,0.29018846,0.22186026,11.511135169998362,2.209489738438167,stand
19/08/2020, 20:56:51,-3.0296998,2.6584718,10.782378,-0.49920675,0.41969186,-0.419548,11.511135169998362,0.7754799592074085,stand
19/08/2020, 20:56:51,-3.396138,0.72569096,9.230406,-0.49920675,0.41969186,-0.419548,9.862087595242096,0.7754799592074085,stand
19/08/2020, 20:56:51,-3.396138,0.72569096,9.230406,-0.37214684,0.18878488,-0.58936846,9.862087595242096,0.7221413924143968,stand
19/08/2020, 20:56:51,-2.7854078,0.85023195,6.67013,-0.37214684,0.18878488,-0.58936846,7.278188105543278,0.7221413924143968,stand
19/08/2020, 20:56:51,-2.7854078,0.85023195,6.67013,-1.1784887,-0.09587821,-0.4317653,7.278188105543278,1.2587492148446138,stand
19/08/2020, 20:56:51,-2.7662477,2.7901978,7.9826,-1.1784887,-0.09587821,-0.4317653,8.89714767748242,1.2587492148446138,stand
19/08/2020, 20:56:51,-2.7662477,2.7901978,7.9826,-1.0086682,-0.15696472,-0.29248807,8.89714767748242,1.061884503703478,stand
19/08/2020, 20:56:51,-3.3745828,2.2608986,10.533297,-1.0086682,-0.15696472,-0.29248807,11.289367043311158,1.061884503703478,stand
19/08/2020, 20:56:51,-3.3745828,2.2608986,10.533297,-0.15590066,0.18389796,-0.15565431,11.289367043311158,0.2869699255351049,stand
19/08/2020, 20:56:52,-3.2524366,3.6955154,9.690249,0.72863185,-0.0018050025,-0.097011276,10.869043765707966,0.735063823332602,stand
19/08/2020, 20:56:52,-3.307522,3.7314405,9.733359,0.72863185,-0.0018050025,-0.097011276,10.936253228690669,0.735063823332602,stand
19/08/2020, 20:56:52,-3.307522,3.7314405,9.733359,0.8031574,0.005525378,-0.083572246,10.936253228690669,0.8075126264617489,stand
19/08/2020, 20:56:52,-3.3290772,3.7985013,9.769285,0.8031574,0.005525378,-0.083572246,10.997740696332432,0.8075126264617489,stand
19/08/2020, 20:56:52,-3.3290772,3.7985013,9.769285,0.827592,-0.017687492,-0.09334608,10.997740696332432,0.8330275398043314,stand
19/08/2020, 20:56:52,-3.515889,3.9350173,9.642349,0.827592,-0.017687492,-0.09334608,10.991848589506056,0.8330275398043314,stand
19/08/2020, 20:56:52,-3.515889,3.9350173,9.642349,0.8080443,-0.050674204,-0.0774636,10.991848589506056,0.8133290218647551,stand
19/08/2020, 20:56:52,-3.5254688,3.9565725,9.513018,0.8080443,-0.050674204,-0.0774636,10.889485825538666,0.8133290218647551,stand
19/08/2020, 20:56:52,-3.5254688,3.9565725,9.513018,0.7542882,-0.07999572,-0.046920344,10.889485825538666,0.7599681030472412,stand
19/08/2020, 20:56:52,-3.5781593,3.784131,9.536968,0.7542882,-0.07999572,-0.046920344,10.866307332967141,0.7599681030472412,stand
19/08/2020, 20:56:52,-3.5781593,3.784131,9.536968,0.7384057,-0.08366091,-0.050585534,10.866307332967141,0.744849668230564,stand
19/08/2020, 20:56:52,-3.652405,3.6811452,9.606423,0.7384057,-0.08366091,-0.050585534,10.916696500868838,0.744849668230564,stand
19/08/2020, 20:56:52,-3.652405,3.6811452,9.606423,0.7494013,-0.049452476,-0.067689754,10.916696500868838,0.754075404518278,stand
19/08/2020, 20:56:52,-3.535049,3.7649708,9.465117,0.7494013,-0.049452476,-0.067689754,10.782394194198812,0.754075404518278,stand
19/08/2020, 20:56:52,-3.535049,3.7649708,9.465117,0.76161855,-0.0018050025,-0.10189819,10.782394194198812,0.7684070031843574,stand
19/08/2020, 20:56:52,-3.542234,3.915857,9.402847,0.76161855,-0.0018050025,-0.10189819,10.78401108670146,0.7684070031843574,stand
19/08/2020, 20:56:52,-3.542234,3.915857,9.402847,0.80926603,0.012855758,-0.13610664,10.78401108670146,0.8207324756461104,stand
19/08/2020, 20:56:52,-3.6068995,4.021238,9.515413,0.80926603,0.012855758,-0.13610664,10.941808251892848,0.8207324756461104,stand
19/08/2020, 20:56:52,-3.6068995,4.021238,9.515413,0.8715743,0.0030819178,-0.13610664,10.941808251892848,0.882142984933134,stand
19/08/2020, 20:56:52,-3.5637891,4.181704,9.448353,0.8715743,0.0030819178,-0.13610664,10.929712373380294,0.882142984933134,stand
19/08/2020, 20:56:52,-3.5637891,4.181704,9.448353,0.86546564,-0.012800573,-0.11289377,10.929712373380294,0.8728915357838591,stand
19/08/2020, 20:56:52,-3.7122805,4.3182206,9.465117,0.86546564,-0.012800573,-0.11289377,11.046108106925502,0.8728915357838591,stand
19/08/2020, 20:56:52,-3.7122805,4.3182206,9.465117,0.79338354,-0.043343823,-0.08723743,11.046108106925502,0.7993412889312643,stand
19/08/2020, 20:56:52,-3.7003052,4.375701,9.333391,0.79338354,-0.043343823,-0.08723743,10.952223913604083,0.7993412889312643,stand
19/08/2020, 20:56:52,-3.7003052,4.375701,9.333391,0.6883148,-0.08366091,-0.053028993,10.952223913604083,0.6954052626792653,stand
19/08/2020, 20:56:52,-3.6308498,4.267925,9.309442,0.6883148,-0.08366091,-0.053028993,10.865723850857659,0.6954052626792653,stand
19/08/2020, 20:56:52,-3.6308498,4.267925,9.309442,0.6345587,-0.10931724,-0.0053815204,10.865723850857659,0.6439285176251033,stand
19/08/2020, 20:56:52,-3.6164796,4.129014,9.357342,0.6345587,-0.10931724,-0.0053815204,10.848388203885975,0.6439285176251033,stand
19/08/2020, 20:56:52,-3.6164796,4.129014,9.357342,0.6895365,-0.11542589,0.02149654,10.848388203885975,0.6994611061767011,stand
19/08/2020, 20:56:52,-3.3147073,3.9733377,9.398057,0.6895365,-0.11542589,0.02149654,10.72838158827463,0.6994611061767011,stand
19/08/2020, 20:56:53,-2.1435425,-1.8585353,10.241104,-0.54685426,0.5284258,0.02027481,10.626812396593444,0.7607197161425311,stand
19/08/2020, 20:56:53,-2.2944288,-1.3867164,9.453142,-0.54685426,0.5284258,0.02027481,9.825949456777947,0.7607197161425311,stand
19/08/2020, 20:56:53,-2.2944288,-1.3867164,9.453142,-0.5248631,0.4624524,0.07769612,9.825949456777947,0.7038325221779139,stand
19/08/2020, 20:56:53,-2.5411158,-1.1807446,8.5598,-0.5248631,0.4624524,0.07769612,9.006753344430594,0.7038325221779139,stand
19/08/2020, 20:56:53,-2.5411158,-1.1807446,8.5598,-0.4674418,0.24864966,0.06792228,9.006753344430594,0.5337995144738117,stand
19/08/2020, 20:56:53,-2.1818628,-1.2382251,8.284373,-0.4674418,0.24864966,0.06792228,8.655897845779046,0.5337995144738117,stand
19/08/2020, 20:56:53,-2.1818628,-1.2382251,8.284373,-0.3745903,-0.033569984,0.02516173,8.655897845779046,0.37693229491714453,stand
19/08/2020, 20:56:53,-2.806963,-1.5591577,8.54064,-0.3745903,-0.033569984,0.02516173,9.12428317382118,0.37693229491714453,stand
19/08/2020, 20:56:53,-2.806963,-1.5591577,8.54064,-0.23653483,-0.23637718,0.0056140497,9.12428317382118,0.33444643256085593,stand
19/08/2020, 20:56:53,-2.5985963,-1.5807129,9.079519,-0.23653483,-0.23637718,0.0056140497,9.575438707198952,0.33444643256085593,stand
19/08/2020, 20:56:53,-2.5985963,-1.5807129,9.079519,-0.11924874,-0.39520207,-0.075020134,9.575438707198952,0.41956281908816845,stand
19/08/2020, 20:56:53,-2.5938063,-1.719624,9.010064,-0.11924874,-0.39520207,-0.075020134,9.532376059246987,0.41956281908816845,stand
19/08/2020, 20:56:53,-2.5938063,-1.719624,9.010064,-0.103366256,-0.4538451,-0.103119925,9.532376059246987,0.4767532787038926,stand
19/08/2020, 20:56:53,-2.1603076,-1.7986598,9.244776,-0.103366256,-0.4538451,-0.103119925,9.662711073103303,0.4767532787038926,stand
19/08/2020, 20:56:53,-2.1603076,-1.7986598,9.244776,-0.06549262,-0.34999806,-0.12999798,9.662711073103303,0.3790612076807038,stand
19/08/2020, 20:56:53,-2.066902,-1.8250049,9.750125,-0.06549262,-0.34999806,-0.12999798,10.132505255191854,0.3790612076807038,stand
19/08/2020, 20:56:53,-2.066902,-1.8250049,9.750125,-0.103366256,-0.16185164,-0.09090263,10.132505255191854,0.21247076309373772,stand
19/08/2020, 20:56:53,-2.5171657,-2.0381618,9.874666,-0.103366256,-0.16185164,-0.09090263,10.392269200701636,0.21247076309373772,stand
19/08/2020, 20:56:53,-2.5171657,-2.0381618,9.874666,-0.16689622,-0.029904792,-0.059137642,10.392269200701636,0.17957145354739484,stand
19/08/2020, 20:56:53,-2.7015822,-1.8250049,10.243499,-0.16689622,-0.029904792,-0.059137642,10.749811955176972,0.17957145354739484,stand
19/08/2020, 20:56:53,-2.7015822,-1.8250049,10.243499,-0.23409137,-0.017687492,-0.11533722,10.749811955176972,0.26156125947566194,stand
19/08/2020, 20:56:53,-2.8668385,-1.3675562,9.841136,-0.23409137,-0.017687492,-0.11533722,10.34103138370699,0.26156125947566194,stand
19/08/2020, 20:56:53,-2.8668385,-1.3675562,9.841136,-0.2927344,-0.08488264,-0.20452352,10.34103138370699,0.367053632995339,stand
19/08/2020, 20:56:53,-2.9219239,-1.1280543,9.536968,-0.2927344,-0.08488264,-0.20452352,10.038122762508436,0.367053632995339,stand
19/08/2020, 20:56:53,-2.9219239,-1.1280543,9.536968,-0.28173885,-0.14841262,-0.3059271,10.038122762508436,0.4415817836632771,stand
19/08/2020, 20:56:53,-2.8788135,-0.9915381,10.018367,-0.28173885,-0.14841262,-0.3059271,10.47083514477327,0.4415817836632771,stand
19/08/2020, 20:56:53,-2.8788135,-0.9915381,10.018367,-0.20354813,-0.117869355,-0.3914482,10.47083514477327,0.45668010738784953,stand
19/08/2020, 20:56:53,-2.9003687,-1.2957057,10.008787,-0.20354813,-0.117869355,-0.3914482,10.500800543621647,0.45668010738784953,stand
19/08/2020, 20:56:53,-2.9003687,-1.2957057,10.008787,-0.1339095,-0.10198686,-0.42199147,10.500800543621647,0.4543235315154206,stand
19/08/2020, 20:56:53,-3.0416749,-1.7292042,9.910591,-0.1339095,-0.10198686,-0.42199147,10.510078470347914,0.4543235315154206,stand
19/08/2020, 20:56:54,-2.8213332,-3.307522,18.106348,0.20695317,1.7868078,-2.0249012,18.620941498383,2.708456444964652,stand
19/08/2020, 20:56:54,-7.9394903,-0.97237796,23.792126,0.20695317,1.7868078,-2.0249012,25.100722515870228,2.708456444964652,stand
19/08/2020, 20:56:54,-7.9394903,-0.97237796,23.792126,1.425018,2.555276,-1.6058478,25.100722515870228,3.337492838842451,stand
19/08/2020, 20:56:54,-8.871153,0.78556645,17.732725,1.425018,2.555276,-1.6058478,19.843487824473193,3.337492838842451,stand
19/08/2020, 20:56:54,-8.871153,0.78556645,17.732725,1.262528,1.6157656,-1.0695083,19.843487824473193,2.3126874458817626,stand
19/08/2020, 20:56:54,-10.590776,1.4346168,16.228653,1.262528,1.6157656,-1.0695083,19.43172271712271,2.3126874458817626,stand
19/08/2020, 20:56:54,-10.590776,1.4346168,16.228653,1.1843371,0.717794,-0.75185853,19.43172271712271,1.5758089795169776,stand
19/08/2020, 20:56:54,-9.16095,-1.3220508,18.21173,1.1843371,0.717794,-0.75185853,20.428849523594366,1.5758089795169776,stand
19/08/2020, 20:56:54,-9.16095,-1.3220508,18.21173,0.9265521,-0.050674204,-0.20574525,20.428849523594366,0.9504724131183642,stand
19/08/2020, 20:56:54,-4.967271,-3.4679885,16.405884,0.9265521,-0.050674204,-0.20574525,17.488674814944524,0.9504724131183642,stand
19/08/2020, 20:56:54,-4.967271,-3.4679885,16.405884,0.5465941,-0.7470603,0.07036574,17.488674814944524,0.9283401961331345,stand
19/08/2020, 20:56:54,-1.7339942,-4.24637,14.3749075,0.5465941,-0.7470603,0.07036574,15.088948217154863,0.9283401961331345,stand
19/08/2020, 20:56:54,-1.7339942,-4.24637,14.3749075,0.35966942,-1.2785128,0.191317,15.088948217154863,1.3418492304724394,stand
19/08/2020, 20:56:54,-0.728086,-2.7710378,12.937896,0.35966942,-1.2785128,0.191317,13.251336041306033,1.3418492304724394,stand
19/08/2020, 20:56:54,-0.728086,-2.7710378,12.937896,0.40976036,-1.5216371,0.14733472,13.251336041306033,1.582716171655974,stand
19/08/2020, 20:56:54,0.47900394,-2.6536818,12.933106,0.40976036,-1.5216371,0.14733472,13.211234361772425,1.582716171655974,stand
19/08/2020, 20:56:54,0.47900394,-2.6536818,12.933106,0.27781352,-1.752544,-0.0041597905,13.211234361772425,1.7744318215177042,stand
19/08/2020, 20:56:54,0.5843848,-2.315984,10.784774,0.27781352,-1.752544,-0.0041597905,11.04611397831859,1.7744318215177042,stand
19/08/2020, 20:56:54,0.5843848,-2.315984,10.784774,-7.4093416E-4,-2.178928,0.06303536,11.04611397831859,2.179839625347517,stand
19/08/2020, 20:56:54,0.91729254,-3.2236965,10.418335,-7.4093416E-4,-2.178928,0.06303536,10.944192427310005,2.179839625347517,stand
19/08/2020, 20:56:54,0.91729254,-3.2236965,10.418335,0.023693666,-2.0628636,0.08013958,10.944192427310005,2.0645556242776966,stand
19/08/2020, 20:56:54,1.5471827,-2.7422974,10.085427,0.023693666,-2.0628636,0.08013958,10.565501068980856,2.0645556242776966,stand
19/08/2020, 20:56:54,1.5471827,-2.7422974,10.085427,0.07134114,-1.8014133,0.12778705,10.565501068980856,1.8073485990743214,stand
19/08/2020, 20:56:54,1.4202466,-1.9998415,9.251961,0.07134114,-1.8014133,0.12778705,9.571585241772825,1.8073485990743214,stand
19/08/2020, 20:56:54,1.4202466,-1.9998415,9.251961,0.3914344,-1.404351,0.14855646,9.571585241772825,1.46543223354956,stand
19/08/2020, 20:56:54,1.8992506,-1.3795313,7.9682302,0.3914344,-1.404351,0.14855646,8.306801594406485,1.46543223354956,stand
19/08/2020, 20:56:54,1.8992506,-1.3795313,7.9682302,0.44030362,-1.1233531,0.10579591,8.306801594406485,1.2111904460323544,stand
19/08/2020, 20:56:54,2.565066,-1.3507911,8.464,0.44030362,-1.1233531,0.10579591,8.946702879721784,1.2111904460323544,stand
19/08/2020, 20:56:54,2.565066,-1.3507911,8.464,0.52704644,-0.85823774,-0.01759882,8.946702879721784,1.0073031791430942,stand
19/08/2020, 20:56:54,2.9338992,-0.81909674,9.026829,0.52704644,-0.85823774,-0.01759882,9.526926122844953,1.0073031791430942,stand
19/08/2020, 20:56:55,-1.477727,3.276387,9.960887,0.47817725,2.5222893,-0.41466108,10.58950696700679,2.6004885089713032,stand
19/08/2020, 20:56:55,-1.477727,3.276387,9.960887,0.49405974,2.7568612,-0.41221762,10.58950696700679,2.830954277702936,stand
19/08/2020, 20:56:55,-1.6693287,3.6068995,10.027947,0.49405974,2.7568612,-0.41221762,10.786849023307292,2.830954277702936,stand
19/08/2020, 20:56:55,-1.6693287,3.6068995,10.027947,0.44885573,3.233336,-0.39755687,10.786849023307292,3.2884623210616444,stand
19/08/2020, 20:56:55,-1.8992506,4.311035,10.097403,0.44885573,3.233336,-0.39755687,11.142249134475469,3.2884623210616444,stand
19/08/2020, 20:56:55,-1.8992506,4.311035,10.097403,0.3340131,3.7916667,-0.36823535,11.142249134475469,3.824120649306555,stand
19/08/2020, 20:56:55,-2.2249732,4.4403663,9.465117,0.3340131,3.7916667,-0.36823535,10.689050789098825,3.824120649306555,stand
19/08/2020, 20:56:55,-2.2249732,4.4403663,9.465117,0.15075359,4.1154256,-0.25217098,10.689050789098825,4.125899248279149,stand
19/08/2020, 20:56:55,-2.7015822,4.1721244,8.459209,0.15075359,4.1154256,-0.25217098,9.811390962773602,4.125899248279149,stand
19/08/2020, 20:56:55,-2.7015822,4.1721244,8.459209,-0.10580972,4.039678,-0.09212435,9.811390962773602,4.0421135211626416,stand
19/08/2020, 20:56:55,-3.2668068,4.3349857,7.965835,-0.10580972,4.039678,-0.09212435,9.6394323999561,4.0421135211626416,stand
19/08/2020, 20:56:55,-3.2668068,4.3349857,7.965835,-0.33671668,3.522886,0.01783135,9.6394323999561,3.5389860294008852,stand
19/08/2020, 20:56:55,-3.6763551,4.718189,7.2497244,-0.33671668,3.522886,0.01783135,9.398691180058336,3.5389860294008852,stand
19/08/2020, 20:56:55,-3.6763551,4.718189,7.2497244,-0.5541847,2.6004798,-0.01882055,9.398691180058336,2.6589415698758594,stand
19/08/2020, 20:56:55,-3.412903,4.8091993,6.71803,-0.5541847,2.6004798,-0.01882055,8.939140470516245,2.6589415698758594,stand
19/08/2020, 20:56:55,-3.412903,4.8091993,6.71803,-0.6922402,1.6609696,-0.14099355,8.939140470516245,1.8049641846870288,stand
19/08/2020, 20:56:55,-2.7614577,4.9217653,6.5551686,-0.6922402,1.6609696,-0.14099355,8.649835733509443,1.8049641846870288,stand
19/08/2020, 20:56:55,-2.7614577,4.9217653,6.5551686,-0.71300954,1.2003773,-0.25094926,8.649835733509443,1.4185428799610036,stand
19/08/2020, 20:56:55,-2.8764186,4.3014555,7.0030375,-0.71300954,1.2003773,-0.25094926,8.70740126966573,1.4185428799610036,stand
19/08/2020, 20:56:55,-2.8764186,4.3014555,7.0030375,-0.6739142,1.0024571,-0.42199147,8.70740126966573,1.2795145411209907,stand
19/08/2020, 20:56:55,-2.8931837,4.2224197,6.449788,-0.6739142,1.0024571,-0.42199147,8.23402130623969,1.2795145411209907,stand
19/08/2020, 20:56:55,-2.8931837,4.2224197,6.449788,-0.61893636,0.94503576,-0.5795946,8.23402130623969,1.2696868556506735,stand
19/08/2020, 20:56:55,-3.3721876,3.8272414,7.079678,-0.61893636,0.94503576,-0.5795946,8.725896378792687,1.2696868556506735,stand
19/08/2020, 20:56:55,-3.3721876,3.8272414,7.079678,-0.48943296,0.94014883,-0.7103197,8.725896378792687,1.2759226150355687,stand
19/08/2020, 20:56:55,-3.7458107,3.3985329,7.3551054,-0.48943296,0.94014883,-0.7103197,8.92629258151548,1.2759226150355687,stand
19/08/2020, 20:56:55,-3.7458107,3.3985329,7.3551054,-0.30128652,0.7153505,-0.8324927,8.92629258151548,1.138219674474781,stand
19/08/2020, 20:56:55,-3.9014869,3.2021413,7.6592727,-0.30128652,0.7153505,-0.8324927,9.172773107335088,1.138219674474781,stand
19/08/2020, 20:56:55,-3.9014869,3.2021413,7.6592727,-0.15101373,0.35371843,-0.8996879,9.172773107335088,0.978447835843026,stand
19/08/2020, 20:56:55,-4.631968,3.1398706,7.4772515,-0.15101373,0.35371843,-0.8996879,9.339336477938403,0.978447835843026,stand
19/08/2020, 20:56:55,-4.631968,3.1398706,7.4772515,-0.10580972,0.040955547,-0.9583309,9.339336477938403,0.9650239496328644,stand
19/08/2020, 20:56:56,-1.3244458,3.2572267,9.83874,0.19473585,2.070249,0.17543451,10.448181385086073,2.08677516233686,stand
19/08/2020, 20:56:56,-0.79035646,3.4847536,10.109378,0.19473585,2.070249,0.17543451,10.722298810413948,2.08677516233686,stand
19/08/2020, 20:56:56,-0.79035646,3.4847536,10.109378,0.26926142,2.1777613,0.14855646,10.722298810413948,2.199366973371838,stand
19/08/2020, 20:56:56,-0.88376224,3.4703834,9.22801,0.26926142,2.1777613,0.14855646,9.898523552436863,2.199366973371838,stand
19/08/2020, 20:56:56,-0.88376224,3.4703834,9.22801,0.41709074,2.0629187,0.12900878,9.898523552436863,2.1086112409314235,stand
19/08/2020, 20:56:56,-1.0322535,3.2739918,8.964559,0.41709074,2.0629187,0.12900878,9.599368764248432,2.1086112409314235,stand
19/08/2020, 20:56:56,-1.0322535,3.2739918,8.964559,0.4427471,1.7709253,0.09846553,9.599368764248432,1.828085556783022,stand
19/08/2020, 20:56:56,-0.7448511,3.1614258,8.677156,0.4427471,1.7709253,0.09846553,9.265120640381921,1.828085556783022,stand
19/08/2020, 20:56:56,-0.7448511,3.1614258,8.677156,0.2533789,1.5375749,0.05692671,9.265120640381921,1.5593518044509467,stand
19/08/2020, 20:56:56,-0.91729254,3.04407,8.629255,0.2533789,1.5375749,0.05692671,9.196294619901835,1.5593518044509467,stand
19/08/2020, 20:56:56,-0.91729254,3.04407,8.629255,-0.032505915,1.3726413,-0.04081169,9.196294619901835,1.373632569404561,stand
19/08/2020, 20:56:56,-1.3603711,2.8213332,8.849598,-0.032505915,1.3726413,-0.04081169,9.387540357256894,1.373632569404561,stand
19/08/2020, 20:56:56,-1.3603711,2.8213332,8.849598,-0.23286963,1.1319605,-0.17764546,9.387540357256894,1.1692393983273541,stand
19/08/2020, 20:56:56,-1.8082398,2.42376,9.551338,-0.23286963,1.1319605,-0.17764546,10.018602936646474,1.1692393983273541,stand
19/08/2020, 20:56:56,-1.8082398,2.42376,9.551338,-0.38802934,0.63838154,-0.29248807,10.018602936646474,0.8022761544773783,stand
19/08/2020, 20:56:56,-2.0166066,2.2393434,9.608819,-0.38802934,0.63838154,-0.29248807,10.070291141067493,0.8022761544773783,stand
19/08/2020, 20:56:56,-2.0166066,2.2393434,9.608819,-0.52852833,-0.07266534,-0.41832626,10.070291141067493,0.6779522910743205,stand
19/08/2020, 20:56:56,-1.707649,2.2704787,9.924961,-0.52852833,-0.07266534,-0.41832626,10.323564857360157,0.6779522910743205,stand
19/08/2020, 20:56:56,-1.707649,2.2704787,9.924961,-0.60305387,-0.7543907,-0.58570325,10.323564857360157,1.1295253968630323,stand
19/08/2020, 20:56:56,-1.104104,2.6512868,9.965676,-0.60305387,-0.7543907,-0.58570325,10.371261828503872,1.1295253968630323,stand
19/08/2020, 20:56:56,-1.104104,2.6512868,9.965676,-0.5639585,-1.2601869,-0.831271,10.371261828503872,1.6115618920105634,stand
19/08/2020, 20:56:56,-1.0777588,2.8979738,10.552457,-0.5639585,-1.2601869,-0.831271,10.996097567135578,1.6115618920105634,stand
19/08/2020, 20:56:56,-1.0777588,2.8979738,10.552457,-0.45400277,-1.5509586,-1.1244862,10.996097567135578,1.9687712989722665,stand
19/08/2020, 20:56:56,-0.8430469,2.308799,10.679393,-0.45400277,-1.5509586,-1.1244862,10.958590781871356,1.9687712989722665,stand
19/08/2020, 20:56:56,-0.8430469,2.308799,10.679393,-0.31472555,-1.9077038,-1.4018189,10.958590781871356,2.3881963789926792,stand
19/08/2020, 20:56:56,-0.6346802,1.9040406,10.2315235,-0.31472555,-1.9077038,-1.4018189,10.42651729464805,2.3881963789926792,stand
19/08/2020, 20:56:56,-0.6346802,1.9040406,10.2315235,-0.07037955,-2.301101,-1.6376128,10.42651729464805,2.8252070187648783,stand
19/08/2020, 20:56:56,-0.2706372,2.3543043,10.032737,-0.07037955,-2.301101,-1.6376128,10.30882149253027,2.8252070187648783,stand
19/08/2020, 20:56:56,-0.2706372,2.3543043,10.032737,0.24116161,-2.6114204,-1.7732248,10.30882149253027,3.165754521952398,stand
19/08/2020, 20:56:56,-0.15088624,2.5123756,9.707015,0.24116161,-2.6114204,-1.7732248,10.028007714242117,3.165754521952398,stand
19/08/2020, 20:56:57,0.050295413,4.2990603,8.844808,-1.4607084,-2.8899748,-0.038368233,9.834382105444131,3.238378548689458,stand
19/08/2020, 20:56:57,0.68018556,4.996011,8.552615,-1.4607084,-2.8899748,-0.038368233,9.928242658250744,3.238378548689458,stand
19/08/2020, 20:56:57,0.68018556,4.996011,8.552615,-2.0703516,-2.4513738,-0.17398027,9.928242658250744,3.2133873819859793,stand
19/08/2020, 20:56:57,0.40954837,4.512217,8.265213,-2.0703516,-2.4513738,-0.17398027,9.42558107884696,3.2133873819859793,stand
19/08/2020, 20:56:57,0.40954837,4.512217,8.265213,-2.7032077,-2.1984756,-0.33647037,9.42558107884696,3.500548429291929,stand
19/08/2020, 20:56:57,0.52690434,3.8535867,8.095166,-2.7032077,-2.1984756,-0.33647037,8.981061983357296,3.500548429291929,stand
19/08/2020, 20:56:57,0.52690434,3.8535867,8.095166,-3.4533498,-2.0763028,-0.4561999,8.981061983357296,4.055215972136838,stand
19/08/2020, 20:56:57,0.92208254,3.1853762,7.8197393,-3.4533498,-2.0763028,-0.4561999,8.493831933625172,4.055215972136838,stand
19/08/2020, 20:56:57,0.92208254,3.1853762,7.8197393,-4.169284,-1.9981118,-0.5282819,8.493831933625172,4.653435365247812,stand
19/08/2020, 20:56:57,0.8909473,2.076482,8.868757,-4.169284,-1.9981118,-0.5282819,9.15207189208531,4.653435365247812,stand
19/08/2020, 20:56:57,0.8909473,2.076482,8.868757,-4.3806434,-2.0420942,-0.6296855,9.15207189208531,4.8740834028503235,stand
19/08/2020, 20:56:57,1.0681788,1.5304176,9.927357,-4.3806434,-2.0420942,-0.6296855,10.101267012069355,4.8740834028503235,stand
19/08/2020, 20:56:57,1.0681788,1.5304176,9.927357,-4.021455,-2.142276,-0.79217565,10.101267012069355,4.624822994207495,stand
19/08/2020, 20:56:57,1.3867164,1.4034815,9.874666,-4.021455,-2.142276,-0.79217565,10.06984485438239,4.624822994207495,stand
19/08/2020, 20:56:57,1.3867164,1.4034815,9.874666,-3.6011791,-2.0677505,-1.0279695,10.06984485438239,4.277943929752267,stand
19/08/2020, 20:56:57,2.3806496,1.5974782,9.908196,-3.6011791,-2.0677505,-1.0279695,10.314639386845403,4.277943929752267,stand
19/08/2020, 20:56:57,2.3806496,1.5974782,9.908196,-3.4276936,-1.5619541,-1.3456193,10.314639386845403,3.9999344428239625,stand
19/08/2020, 20:56:57,2.9051588,1.6022681,10.020762,-3.4276936,-1.5619541,-1.3456193,10.555704165219554,3.9999344428239625,stand
19/08/2020, 20:56:57,2.9051588,1.6022681,10.020762,-3.3800461,-0.6933042,-1.6082913,10.555704165219554,3.806833766672274,stand
19/08/2020, 20:56:57,2.44292,0.86220706,9.671089,-3.3800461,-0.6933042,-1.6082913,10.012053973252502,3.806833766672274,stand
19/08/2020, 20:56:57,2.44292,0.86220706,9.671089,-3.0489573,-0.16673855,-1.4225883,10.012053973252502,3.3686347774386984,stand
19/08/2020, 20:56:57,3.6380348,0.22992188,9.917776,-3.0489573,-0.16673855,-1.4225883,10.566477386030533,3.3686347774386984,stand
19/08/2020, 20:56:57,3.6380348,0.22992188,9.917776,-2.2377286,0.17901103,-1.4665706,10.566477386030533,2.6814741447144135,stand
19/08/2020, 20:56:57,3.8440065,0.059875492,10.097403,-2.2377286,0.17901103,-1.4665706,10.804513411326244,2.6814741447144135,stand
19/08/2020, 20:56:57,3.8440065,0.059875492,10.097403,-1.5853248,0.2791929,-1.5667524,10.804513411326244,2.2463117480316113,stand
19/08/2020, 20:56:57,3.2213013,-0.8167017,10.3393,-1.5853248,0.2791929,-1.5667524,10.860244544584804,2.2463117480316113,stand
19/08/2020, 20:56:57,3.2213013,-0.8167017,10.3393,-1.0489854,0.2462062,-1.5691959,10.860244544584804,1.9035134482193605,stand
19/08/2020, 20:56:57,3.4009278,-1.3675562,10.461446,-1.0489854,0.2462062,-1.5691959,11.085051564176466,1.9035134482193605,stand
19/08/2020, 20:56:57,3.4009278,-1.3675562,10.461446,-0.5358587,0.04217728,-1.6901472,11.085051564176466,1.773561638832311,stand
19/08/2020, 20:56:57,2.7854078,-1.2909156,9.316627,-0.5358587,0.04217728,-1.6901472,9.809408232254448,1.773561638832311,stand
19/08/2020, 20:56:58,1.8034497,0.8981324,8.5598,0.96809095,-1.409238,-0.28027079,8.793705211873496,1.7325424929540365,stand
19/08/2020, 20:56:58,2.2129982,0.62510014,7.697593,0.96809095,-1.409238,-0.28027079,8.033744597568028,1.7325424929540365,stand
19/08/2020, 20:56:58,2.2129982,0.62510014,7.697593,0.79582703,-1.4947591,-0.21918428,8.033744597568028,1.7075383238557782,stand
19/08/2020, 20:56:58,2.42855,0.79993653,7.7646537,0.79582703,-1.4947591,-0.21918428,8.174815006822854,1.7075383238557782,stand
19/08/2020, 20:56:58,2.42855,0.79993653,7.7646537,0.4109821,-1.444668,-0.12755452,8.174815006822854,1.5073958445069335,stand
19/08/2020, 20:56:58,2.8357031,1.092129,8.138277,0.4109821,-1.444668,-0.12755452,8.687088776311057,1.5073958445069335,stand
19/08/2020, 20:56:58,2.8357031,1.092129,8.138277,0.028580585,-1.1819961,-0.043255154,8.687088776311057,1.183132560375843,stand
19/08/2020, 20:56:58,3.3482375,1.4370118,8.919053,0.028580585,-1.1819961,-0.043255154,9.63458381450399,1.183132560375843,stand
19/08/2020, 20:56:58,3.3482375,1.4370118,8.919053,-0.037392836,-0.7372865,0.02027481,9.63458381450399,0.7385124827185886,stand
19/08/2020, 20:56:58,3.8679566,1.5543678,9.872271,-0.037392836,-0.7372865,0.02027481,10.716290134160015,0.7385124827185886,stand
19/08/2020, 20:56:58,3.8679566,1.5543678,9.872271,0.21672702,-0.18262105,0.078917846,10.716290134160015,0.294192239338887,stand
19/08/2020, 20:56:58,4.064348,1.3819263,10.454261,0.21672702,-0.18262105,0.078917846,11.301336919761999,0.294192239338887,stand
19/08/2020, 20:56:58,4.064348,1.3819263,10.454261,0.5710287,0.332949,0.14977819,11.301336919761999,0.6777627441017473,stand
19/08/2020, 20:56:58,3.9972878,1.2549903,10.650652,0.5710287,0.332949,0.14977819,11.445073030850278,0.6777627441017473,stand
19/08/2020, 20:56:58,3.9972878,1.2549903,10.650652,0.88623506,0.6444902,0.17299107,11.445073030850278,1.1093719318173763,stand
19/08/2020, 20:56:58,3.8128712,1.2837305,10.38241,0.88623506,0.6444902,0.17299107,11.134648147651323,1.1093719318173763,stand
19/08/2020, 20:56:58,3.8128712,1.2837305,10.38241,1.0279558,0.6835855,0.14122608,11.134648147651323,1.2425486075025234,stand
19/08/2020, 20:56:58,3.5087037,1.0346485,9.515413,1.0279558,0.6835855,0.14122608,10.194341042096998,1.2425486075025234,stand
19/08/2020, 20:56:58,3.5087037,1.0346485,9.515413,0.9253304,0.5601908,0.13145225,10.194341042096998,1.0896466272507725,stand
19/08/2020, 20:56:58,3.647615,1.1759547,9.074729,0.9253304,0.5601908,0.13145225,9.850820784271002,1.0896466272507725,stand
19/08/2020, 20:56:58,3.647615,1.1759547,9.074729,0.7176363,0.3769313,0.09480034,9.850820784271002,0.816128762554845,stand
19/08/2020, 20:56:58,3.4895437,1.1783496,8.657996,0.7176363,0.3769313,0.09480034,9.408842686276358,0.816128762554845,stand
19/08/2020, 20:56:58,3.4895437,1.1783496,8.657996,0.5429289,0.23276716,0.06547882,9.408842686276358,0.5943397943523004,stand
19/08/2020, 20:56:58,3.3099172,1.2022998,8.854387,0.5429289,0.23276716,0.06547882,9.52896904179347,0.5943397943523004,stand
19/08/2020, 20:56:58,3.3099172,1.2022998,8.854387,0.43786016,0.2388758,0.06303536,9.52896904179347,0.5027490709040462,stand
19/08/2020, 20:56:58,3.2404616,1.336421,9.079519,0.43786016,0.2388758,0.06303536,9.732640064970177,0.5027490709040462,stand
19/08/2020, 20:56:58,3.2404616,1.336421,9.079519,0.4268646,0.29629713,0.08991342,9.732640064970177,0.5273422000650324,stand
19/08/2020, 20:56:58,3.2620168,1.4585669,9.354947,0.4268646,0.29629713,0.08991342,10.014150283569858,0.5273422000650324,stand
19/08/2020, 20:56:58,3.2620168,1.4585669,9.354947,0.4512992,0.36960092,0.11068283,10.014150283569858,0.5937394122980542,stand
19/08/2020, 20:56:58,3.288362,1.465752,9.477093,0.4512992,0.36960092,0.11068283,10.1379011937979,0.5937394122980542,stand
19/08/2020, 20:56:59,-5.8845634,4.526587,5.5732107,0.23871815,-2.3438616,-0.21185389,9.283251294248396,2.365492661839199,stand
19/08/2020, 20:56:59,-5.142107,4.641548,5.613926,0.23871815,-2.3438616,-0.21185389,8.916355655932211,2.365492661839199,stand
19/08/2020, 20:56:59,-5.142107,4.641548,5.613926,0.3828823,-2.9412875,0.10579591,8.916355655932211,2.967989873526734,stand
19/08/2020, 20:56:59,-6.047425,1.9184108,4.045188,0.3828823,-2.9412875,0.10579591,7.524306751799023,2.967989873526734,stand
19/08/2020, 20:56:59,-6.047425,1.9184108,4.045188,0.5954633,-3.8588068,0.33425942,7.524306751799023,3.9187620707909874,stand
19/08/2020, 20:56:59,-3.4751735,3.661985,4.5840673,0.5954633,-3.8588068,0.33425942,6.819137602977589,3.9187620707909874,stand
19/08/2020, 20:56:59,-3.4751735,3.661985,4.5840673,1.0145167,-4.812978,0.3745765,6.819137602977589,4.9329815460344095,stand
19/08/2020, 20:56:59,-1.5328126,3.0871804,4.373306,1.0145167,-4.812978,0.3745765,5.568303217850358,4.9329815460344095,stand
