DATE,TIME,ax,ay,az,gx,gy,gz,ma,mg,label
19/08/2020, 20:44:28,-7.510782,6.334827,-0.32093263,-0.18277872,0.13625048,0.8009603,9.830812423760186,0.8327722729384727,stand
19/08/2020, 20:44:28,-7.326365,6.4018874,-0.46702883,-0.18277872,0.13625048,0.8009603,9.740528858777413,0.8327722729384727,stand
19/08/2020, 20:44:28,-7.326365,6.4018874,-0.46702883,-0.20476985,0.11914627,0.82295144,9.740528858777413,0.8563735118059567,stand
19/08/2020, 20:44:28,-7.117998,6.5623536,-0.42152345,-0.20476985,0.11914627,0.82295144,9.690617329023148,0.8563735118059567,stand
19/08/2020, 20:44:28,-7.117998,6.5623536,-0.42152345,-0.23531309,0.114259355,0.83394706,9.690617329023148,0.8740109567024353,stand
19/08/2020, 20:44:28,-7.060518,6.564749,-0.29937744,-0.23531309,0.114259355,0.83394706,9.645541178238044,0.8740109567024353,stand
19/08/2020, 20:44:28,-7.060518,6.564749,-0.29937744,-0.24508694,0.11914627,0.83150357,9.645541178238044,0.8750209303575873,stand
19/08/2020, 20:44:28,-6.943162,6.6749196,-0.06945557,-0.24508694,0.11914627,0.83150357,9.631556150339772,0.8750209303575873,stand
19/08/2020, 20:44:28,-6.943162,6.6749196,-0.06945557,-0.2230958,0.1411374,0.82295144,9.631556150339772,0.8642572368726179,stand
19/08/2020, 20:44:28,-6.952742,6.715635,0.0,-0.2230958,0.1411374,0.82295144,9.666456112744575,0.8642572368726179,stand
19/08/2020, 20:44:28,-6.952742,6.715635,0.0,-0.20965677,0.18511969,0.82295144,9.666456112744575,0.8691802623516567,stand
19/08/2020, 20:44:28,-6.8904715,6.799461,0.05508545,-0.20965677,0.18511969,0.82295144,9.680614634028073,0.8691802623516567,stand
19/08/2020, 20:44:28,-6.8904715,6.799461,0.05508545,-0.2194306,0.24131927,0.8327253,9.680614634028073,0.8943244258172993,stand
19/08/2020, 20:44:28,-6.861731,6.7803006,0.06466553,-0.2194306,0.24131927,0.8327253,9.646761691186086,0.8943244258172993,stand
19/08/2020, 20:44:28,-6.861731,6.7803006,0.06466553,-0.3049517,0.3072927,0.8534947,9.646761691186086,0.9570149165940747,stand
19/08/2020, 20:44:28,-6.8018556,6.835386,-0.081430666,-0.3049517,0.3072927,0.8534947,9.643358807762608,0.9570149165940747,stand
19/08/2020, 20:44:28,-6.8018556,6.835386,-0.081430666,-0.26952153,0.41236147,0.884038,9.643358807762608,1.0120311145726744,stand
19/08/2020, 20:44:28,-7.0078273,6.8186207,-0.09101075,-0.26952153,0.41236147,0.884038,9.77811403962578,1.0120311145726744,stand
19/08/2020, 20:44:28,-7.0078273,6.8186207,-0.09101075,-0.30617344,0.59928614,0.8889249,9.77811403962578,1.1149320724149334,stand
19/08/2020, 20:44:28,-7.927515,6.940767,-0.045505375,-0.30617344,0.59928614,0.8889249,10.53668872171689,1.1149320724149334,stand
19/08/2020, 20:44:28,-7.927515,6.940767,-0.045505375,-0.15467891,0.51743025,0.9206899,10.53668872171689,1.0673937799811632,stand
19/08/2020, 20:44:28,-4.373306,7.556287,-4.543352,-0.15467891,0.51743025,0.9206899,9.842018214387407,1.0673937799811632,stand
19/08/2020, 20:44:28,-4.373306,7.556287,-4.543352,-0.22676098,0.6102817,0.91335946,9.842018214387407,1.1216460284644325,stand
19/08/2020, 20:44:28,-7.8580594,7.544312,-3.3147073,-0.22676098,0.6102817,0.91335946,11.386528247755708,1.1216460284644325,stand
19/08/2020, 20:44:28,-7.8580594,7.544312,-3.3147073,-0.3049517,0.72023743,0.89503354,11.386528247755708,1.1886221156548125,stand
19/08/2020, 20:44:28,-9.82437,7.110813,-0.80233157,-0.3049517,0.72023743,0.89503354,12.154244234576023,1.1886221156548125,stand
19/08/2020, 20:44:28,-9.82437,7.110813,-0.80233157,-0.16811794,0.7226809,0.8852597,12.154244234576023,1.1550827148675469,stand
19/08/2020, 20:44:28,-9.441168,7.048543,-4.8666797,-0.16811794,0.7226809,0.8852597,12.747634255264781,1.1550827148675469,stand
19/08/2020, 20:44:28,-9.441168,7.048543,-4.8666797,-0.0044061244,0.5980644,0.91946816,12.747634255264781,1.0968692597326855,stand
19/08/2020, 20:44:28,-4.737349,8.037686,-8.878338,-0.0044061244,0.5980644,0.91946816,12.879121121033789,1.0968692597326855,stand
19/08/2020, 20:44:29,-3.4991236,9.139395,-0.50534916,0.022471935,0.0348469,0.08380477,9.799376517693199,0.09350151789154873,stand
19/08/2020, 20:44:29,-3.4991236,9.139395,-0.50534916,0.026137125,0.04584247,0.06914401,9.799376517693199,0.08698031630301212,stand
19/08/2020, 20:44:29,-3.5542092,9.11784,-0.5412744,0.026137125,0.04584247,0.06914401,9.801039951645592,0.08698031630301212,stand
19/08/2020, 20:44:29,-3.5542092,9.11784,-0.5412744,0.027358856,0.0592815,0.06547882,9.801039951645592,0.09246771576956092,stand
19/08/2020, 20:44:29,-3.5877395,9.129815,-0.5939649,0.027358856,0.0592815,0.06547882,9.827420442302632,0.09246771576956092,stand
19/08/2020, 20:44:29,-3.5877395,9.129815,-0.5939649,0.027358856,0.06416842,0.06670055,9.827420442302632,0.09651454119763701,stand
19/08/2020, 20:44:29,-3.6332448,9.1202345,-0.58198977,0.027358856,0.06416842,0.06670055,9.834523713098948,0.09651454119763701,stand
19/08/2020, 20:44:29,-3.6332448,9.1202345,-0.58198977,0.031024046,0.06294669,0.07403093,9.834523713098948,0.10200664605657932,stand
19/08/2020, 20:44:29,-3.657195,9.038804,-0.56522465,0.031024046,0.06294669,0.07403093,9.767012520158003,0.10200664605657932,stand
19/08/2020, 20:44:29,-3.657195,9.038804,-0.56522465,0.042019617,0.058059767,0.09357861,9.767012520158003,0.11787086318120175,stand
19/08/2020, 20:44:29,-3.671565,8.966953,-0.60354495,0.042019617,0.058059767,0.09357861,9.708290660513747,0.11787086318120175,stand
19/08/2020, 20:44:29,-3.671565,8.966953,-0.60354495,0.057902105,0.048285928,0.11801321,9.708290660513747,0.14004036011959056,stand
19/08/2020, 20:44:29,-3.63564,8.995694,-0.60594,0.057902105,0.048285928,0.11801321,9.721499586933437,0.14004036011959056,stand
19/08/2020, 20:44:29,-3.63564,8.995694,-0.60594,0.072562866,0.037290357,0.14000435,9.721499586933437,0.1620406083160221,stand
19/08/2020, 20:44:29,-3.5829494,9.036409,-0.6658155,0.072562866,0.037290357,0.14000435,9.743589230560149,0.1620406083160221,stand
19/08/2020, 20:44:29,-3.5829494,9.036409,-0.6658155,0.0737846,0.039733816,0.15344338,9.743589230560149,0.17483653550317535,stand
19/08/2020, 20:44:29,-3.532654,9.0891,-0.6586304,0.0737846,0.039733816,0.15344338,9.773698137528704,0.17483653550317535,stand
19/08/2020, 20:44:29,-3.532654,9.0891,-0.6586304,0.07744978,0.04584247,0.15222165,9.773698137528704,0.17683730270032727,stand
19/08/2020, 20:44:29,-3.417693,9.163345,-0.6945557,0.07744978,0.04584247,0.15222165,9.804587198877446,0.17683730270032727,stand
19/08/2020, 20:44:29,-3.417693,9.163345,-0.6945557,0.08355844,0.047064196,0.13511743,9.804587198877446,0.16569179355990332,stand
19/08/2020, 20:44:29,-3.3314724,9.19448,-0.75203615,0.08355844,0.047064196,0.13511743,9.808298941104127,0.16569179355990332,stand
19/08/2020, 20:44:29,-3.3314724,9.19448,-0.75203615,0.08722363,0.048285928,0.10823937,9.808298941104127,0.14715723752456625,stand
19/08/2020, 20:44:29,-3.3841627,9.242381,-0.79035646,0.08722363,0.048285928,0.10823937,9.874149512251456,0.14715723752456625,stand
19/08/2020, 20:44:29,-3.3841627,9.242381,-0.79035646,0.086001895,0.054394577,0.08136131,9.874149512251456,0.13028721554128322,stand
19/08/2020, 20:44:29,-3.432063,9.148975,-0.79035646,0.086001895,0.054394577,0.08136131,9.803441785096389,0.13028721554128322,stand
19/08/2020, 20:44:29,-3.432063,9.148975,-0.79035646,0.09088882,0.058059767,0.06670055,9.803441785096389,0.12680961057343007,stand
19/08/2020, 20:44:29,-3.417693,9.134604,-0.82388675,0.09088882,0.058059767,0.06670055,9.787768523458094,0.12680961057343007,stand
19/08/2020, 20:44:29,-3.417693,9.134604,-0.82388675,0.10310612,0.054394577,0.05814844,9.787768523458094,0.13027234075936805,stand
19/08/2020, 20:44:29,-3.527864,9.079519,-0.855022,0.10310612,0.054394577,0.05814844,9.77826963770498,0.13027234075936805,stand
19/08/2020, 20:44:29,-3.527864,9.079519,-0.855022,0.112879954,0.04217728,0.0605919,9.77826963770498,0.1348784086166117,stand
19/08/2020, 20:44:30,-3.537444,9.177715,-1.1496094,0.057902105,-0.13619532,0.11190456,9.902806213377044,0.18553826833950054,stand
19/08/2020, 20:44:30,-3.537444,9.177715,-1.1496094,0.034689236,-0.1276432,0.10823937,9.902806213377044,0.17091486114971136,stand
19/08/2020, 20:44:30,-3.439248,9.045989,-1.1711646,0.034689236,-0.1276432,0.10823937,9.748331735983001,0.17091486114971136,stand
19/08/2020, 20:44:30,-3.439248,9.045989,-1.1711646,0.032245778,-0.103208594,0.10090899,9.748331735983001,0.147900060015796,stand
19/08/2020, 20:44:30,-3.4608033,9.06994,-0.9699829,0.032245778,-0.103208594,0.10090899,9.756117605625343,0.147900060015796,stand
19/08/2020, 20:44:30,-3.4608033,9.06994,-0.9699829,0.035910964,-0.07999572,0.09235688,9.756117605625343,0.1273526860442337,stand
19/08/2020, 20:44:30,-3.4344583,9.067544,-1.0585986,0.035910964,-0.07999572,0.09235688,9.753793542928408,0.1273526860442337,stand
19/08/2020, 20:44:30,-3.4344583,9.067544,-1.0585986,0.048128266,-0.062891506,0.08013958,9.753793542928408,0.11266775636976377,stand
19/08/2020, 20:44:30,-3.396138,9.177715,-1.0490186,0.048128266,-0.062891506,0.08013958,9.841984109835552,0.11266775636976377,stand
19/08/2020, 20:44:30,-3.396138,9.177715,-1.0490186,0.045684807,-0.033569984,0.06303536,9.841984109835552,0.08477913789009278,stand
19/08/2020, 20:44:30,-3.4584084,9.125025,-1.0609937,0.045684807,-0.033569984,0.06303536,9.815924482428036,0.08477913789009278,stand
19/08/2020, 20:44:30,-3.4584084,9.125025,-1.0609937,0.028580585,0.007968837,0.05692671,9.815924482428036,0.06419503404839101,stand
19/08/2020, 20:44:30,-3.4727786,9.057964,-1.0801538,0.028580585,0.007968837,0.05692671,9.76082173339896,0.06419503404839101,stand
19/08/2020, 20:44:30,-3.4727786,9.057964,-1.0801538,0.020028476,0.03851209,0.05570498,9.76082173339896,0.07062128365836388,stand
19/08/2020, 20:44:30,-3.5637891,9.067544,-1.0681788,0.020028476,0.03851209,0.05570498,9.80111997379454,0.07062128365836388,stand
19/08/2020, 20:44:30,-3.5637891,9.067544,-1.0681788,0.028580585,0.040955547,0.059370168,9.80111997379454,0.0775823659895781,stand
19/08/2020, 20:44:30,-3.5877395,9.05557,-1.1591895,0.028580585,0.040955547,0.059370168,9.809125157785473,0.0775823659895781,stand
19/08/2020, 20:44:30,-3.5877395,9.05557,-1.1591895,0.050571725,0.010412297,0.06547882,9.809125157785473,0.08338699363057875,stand
19/08/2020, 20:44:30,-3.5829494,9.036409,-1.1615845,0.050571725,0.010412297,0.06547882,9.789969325428713,0.08338699363057875,stand
19/08/2020, 20:44:30,-3.5829494,9.036409,-1.1615845,0.06767595,-0.017687492,0.07158747,9.789969325428713,0.10008819933167355,stand
19/08/2020, 20:44:30,-3.5661843,9.053174,-1.2406201,0.06767595,-0.017687492,0.07158747,9.80901465355208,0.10008819933167355,stand
19/08/2020, 20:44:30,-3.5661843,9.053174,-1.2406201,0.06889768,-0.036013443,0.07158747,9.80901465355208,0.10568171376491685,stand
19/08/2020, 20:44:30,-3.5063088,9.086704,-1.2765454,0.06889768,-0.036013443,0.07158747,9.823032308480155,0.10568171376491685,stand
19/08/2020, 20:44:30,-3.5063088,9.086704,-1.2765454,0.059123836,-0.034791715,0.06181363,9.823032308480155,0.09234184520014357,stand
19/08/2020, 20:44:30,-3.5134938,9.065149,-1.2621753,0.059123836,-0.034791715,0.06181363,9.803808291750974,0.09234184520014357,stand
19/08/2020, 20:44:30,-3.5134938,9.065149,-1.2621753,0.039576158,-0.018909222,0.0483746,9.803808291750974,0.06529879729607867,stand
19/08/2020, 20:44:30,-3.530259,9.038804,-1.2046949,0.039576158,-0.018909222,0.0483746,9.778240962087283,0.06529879729607867,stand
19/08/2020, 20:44:30,-3.530259,9.038804,-1.2046949,0.031024046,0.010412297,0.03737903,9.778240962087283,0.04967996852393739,stand
19/08/2020, 20:44:30,-3.5206788,9.024434,-1.1879297,0.031024046,0.010412297,0.03737903,9.759444997014757,0.04967996852393739,stand
19/08/2020, 20:44:30,-3.5206788,9.024434,-1.1879297,0.033467505,0.0348469,0.034935568,9.759444997014757,0.05962276486289729,stand
19/08/2020, 20:44:31,-3.9901028,8.828042,-1.3843213,0.002924255,0.0018601877,-0.032259583,9.786296119486574,0.03244521986593988,stand
19/08/2020, 20:44:31,-3.9901028,8.828042,-1.3843213,0.0041459855,-0.0054701925,-0.02615093,9.786296119486574,0.02703670425246785,stand
19/08/2020, 20:44:31,-3.9613624,8.897498,-1.4585669,0.0041459855,-0.0054701925,-0.02615093,9.84811058851105,0.02703670425246785,stand
19/08/2020, 20:44:31,-3.9613624,8.897498,-1.4585669,-0.0019626655,-0.011578843,-0.02248574,9.84811058851105,0.025367896758760885,stand
19/08/2020, 20:44:31,-3.9445972,8.847202,-1.4705421,-0.0019626655,-0.011578843,-0.02248574,9.797720651453158,0.025367896758760885,stand
19/08/2020, 20:44:31,-3.9445972,8.847202,-1.4705421,-0.011736505,-0.007913653,-0.02248574,9.797720651453158,0.026570283573540014,stand
19/08/2020, 20:44:31,-3.9613624,8.772957,-1.3819263,-0.011736505,-0.007913653,-0.02248574,9.724550576517254,0.026570283573540014,stand
19/08/2020, 20:44:31,-3.9613624,8.772957,-1.3819263,-0.012958236,-0.0054701925,-0.024929201,9.724550576517254,0.02862348618681541,stand
19/08/2020, 20:44:31,-3.9829175,8.832832,-1.4465919,-0.012958236,-0.0054701925,-0.024929201,9.796692669658707,0.02862348618681541,stand
19/08/2020, 20:44:31,-3.9829175,8.832832,-1.4465919,-0.010514775,-0.009135383,-0.02248574,9.796692669658707,0.02645041115655619,stand
19/08/2020, 20:44:31,-3.9853127,8.854387,-1.331631,-0.010514775,-0.009135383,-0.02248574,9.800823049942617,0.02645041115655619,stand
19/08/2020, 20:44:31,-3.9853127,8.854387,-1.331631,4.8079528E-4,-0.018909222,-0.013933631,9.800823049942617,0.023493315768112442,stand
19/08/2020, 20:44:31,-3.9278321,8.787327,-1.334026,4.8079528E-4,-0.018909222,-0.013933631,9.717232272700866,0.023493315768112442,stand
19/08/2020, 20:44:31,-3.9278321,8.787327,-1.334026,0.0065894453,-0.021352682,-0.0053815204,9.717232272700866,0.022985181976518377,stand
19/08/2020, 20:44:31,-3.9469924,8.830438,-1.3819263,0.0065894453,-0.021352682,-0.0053815204,9.770624266078839,0.022985181976518377,stand
19/08/2020, 20:44:31,-3.9469924,8.830438,-1.3819263,0.0017025247,-0.018909222,7.2712987E-4,9.770624266078839,0.01899963069581206,stand
19/08/2020, 20:44:31,-3.9206471,8.890313,-1.4010864,0.0017025247,-0.018909222,7.2712987E-4,9.816933591907882,0.01899963069581206,stand
19/08/2020, 20:44:31,-3.9206471,8.890313,-1.4010864,-0.010514775,-0.012800573,-4.946003E-4,9.816933591907882,0.016572863587445117,stand
19/08/2020, 20:44:31,-3.915857,8.907078,-1.3603711,-0.010514775,-0.012800573,-4.946003E-4,9.824488839327683,0.016572863587445117,stand
19/08/2020, 20:44:31,-3.915857,8.907078,-1.3603711,-0.022732075,-5.832724E-4,-0.0041597905,9.824488839327683,0.023116905308541078,stand
19/08/2020, 20:44:31,-3.8727467,8.832832,-1.3172607,-0.022732075,-5.832724E-4,-0.0041597905,9.734077768089803,0.023116905308541078,stand
19/08/2020, 20:44:31,-3.8727467,8.832832,-1.3172607,-0.022732075,0.0043036477,-0.0066032503,9.734077768089803,0.02405974948234356,stand
19/08/2020, 20:44:31,-3.899092,8.875943,-1.3196558,-0.022732075,0.0043036477,-0.0066032503,9.784006177212408,0.02405974948234356,stand
19/08/2020, 20:44:31,-3.899092,8.875943,-1.3196558,-0.015401695,-5.832724E-4,-0.0127119,9.784006177212408,0.019978609114152748,stand
19/08/2020, 20:44:31,-3.899092,8.940608,-1.346001,-0.015401695,-5.832724E-4,-0.0127119,9.846273849753276,0.019978609114152748,stand
19/08/2020, 20:44:31,-3.899092,8.940608,-1.346001,-0.008071315,-0.007913653,-0.013933631,9.846273849753276,0.017942075760383203,stand
19/08/2020, 20:44:31,-3.9134622,8.902288,-1.3771362,-0.008071315,-0.007913653,-0.013933631,9.82152888833475,0.017942075760383203,stand
19/08/2020, 20:44:31,-3.9134622,8.902288,-1.3771362,-0.006849585,-0.012800573,-0.0127119,9.82152888833475,0.019296732976907493,stand
19/08/2020, 20:44:31,-3.894302,8.899893,-1.4178516,-0.006849585,-0.012800573,-0.0127119,9.817534428959732,0.019296732976907493,stand
19/08/2020, 20:44:31,-3.894302,8.899893,-1.4178516,-0.008071315,-0.021352682,-0.00904671,9.817534428959732,0.0245545539938409,stand
19/08/2020, 20:44:32,-3.8775368,8.835227,-1.3028907,0.0065894453,-0.047009014,0.015387891,9.736223696265718,0.04990045423950283,stand
19/08/2020, 20:44:32,-3.8559816,8.842413,-1.3052857,0.0065894453,-0.047009014,0.015387891,9.734507255214206,0.04990045423950283,stand
19/08/2020, 20:44:32,-3.8559816,8.842413,-1.3052857,-0.011736505,-0.025017872,0.0080575105,9.734507255214206,0.028784769593696486,stand
19/08/2020, 20:44:32,-3.8440065,8.842413,-1.3196558,-0.011736505,-0.025017872,0.0080575105,9.731708194767466,0.028784769593696486,stand
19/08/2020, 20:44:32,-3.8440065,8.842413,-1.3196558,-0.017845154,-0.009135383,-4.946003E-4,9.731708194767466,0.02005366225286005,stand
19/08/2020, 20:44:32,-3.8775368,8.911868,-1.1975098,-0.017845154,-0.009135383,-4.946003E-4,9.79238040620321,0.02005366225286005,stand
19/08/2020, 20:44:32,-3.8775368,8.911868,-1.1975098,-0.010514775,-0.0054701925,-0.0029380603,9.79238040620321,0.012211294122602974,stand
19/08/2020, 20:44:32,-3.9517825,8.902288,-1.2573853,-0.010514775,-0.0054701925,-0.0029380603,9.820811664055674,0.012211294122602974,stand
19/08/2020, 20:44:32,-3.9517825,8.902288,-1.2573853,0.0017025247,-0.011578843,-0.0041597905,9.820811664055674,0.012420630108490448,stand
19/08/2020, 20:44:32,-3.9350173,8.899893,-1.3004956,0.0017025247,-0.011578843,-0.0041597905,9.817522211306645,0.012420630108490448,stand
19/08/2020, 20:44:32,-3.9350173,8.899893,-1.3004956,0.002924255,-0.018909222,-0.0017163303,9.817522211306645,0.0192108228835021,stand
19/08/2020, 20:44:32,-3.999683,8.899893,-1.341211,0.002924255,-0.018909222,-0.0017163303,9.849081284358672,0.0192108228835021,stand
19/08/2020, 20:44:32,-3.999683,8.899893,-1.341211,-0.0019626655,-0.016465763,0.0056140497,9.849081284358672,0.01750688290739067,stand
19/08/2020, 20:44:32,-3.9972878,8.883128,-1.3004956,-0.0019626655,-0.016465763,0.0056140497,9.827490231224786,0.01750688290739067,stand
19/08/2020, 20:44:32,-3.9972878,8.883128,-1.3004956,-0.006849585,-0.015244033,0.01294443,9.827490231224786,0.021138960116988265,stand
19/08/2020, 20:44:32,-3.9589674,8.871153,-1.3100758,-0.006849585,-0.015244033,0.01294443,9.802401497934545,0.021138960116988265,stand
19/08/2020, 20:44:32,-3.9589674,8.871153,-1.3100758,-0.006849585,-0.021352682,0.01660962,9.802401497934545,0.02790579406634144,stand
19/08/2020, 20:44:32,-3.9829175,8.835227,-1.3124708,-0.006849585,-0.021352682,0.01660962,9.779951336134626,0.02790579406634144,stand
19/08/2020, 20:44:32,-3.9829175,8.835227,-1.3124708,4.8079528E-4,-0.032348253,0.01783135,9.779951336134626,0.0369404610039387,stand
19/08/2020, 20:44:32,-3.891907,8.873548,-1.3148658,4.8079528E-4,-0.032348253,0.01783135,9.778325943286832,0.0369404610039387,stand
19/08/2020, 20:44:32,-3.891907,8.873548,-1.3148658,0.0041459855,-0.029904792,0.01660962,9.778325943286832,0.03445816698233448,stand
19/08/2020, 20:44:32,-3.9254372,8.856783,-1.2909156,0.0041459855,-0.029904792,0.01660962,9.773337402596841,0.03445816698233448,stand
19/08/2020, 20:44:32,-3.9254372,8.856783,-1.2909156,0.0017025247,-0.025017872,0.01416616,9.773337402596841,0.02880056612352902,stand
19/08/2020, 20:44:32,-3.911067,8.868757,-1.2430152,0.0017025247,-0.025017872,0.01416616,9.772225283136969,0.02880056612352902,stand
19/08/2020, 20:44:32,-3.911067,8.868757,-1.2430152,-0.0019626655,-0.012800573,0.01050097,9.772225283136969,0.01667264560727148,stand
19/08/2020, 20:44:32,-3.894302,8.840017,-1.214275,-0.0019626655,-0.012800573,0.01050097,9.735807988955376,0.01667264560727148,stand
19/08/2020, 20:44:32,-3.894302,8.840017,-1.214275,-0.003184395,6.384576E-4,0.01050097,9.735807988955376,0.010991741273406297,stand
19/08/2020, 20:44:32,-3.8847218,8.868757,-1.2981006,-0.003184395,6.384576E-4,0.01050097,9.768878307544078,0.010991741273406297,stand
19/08/2020, 20:44:32,-3.8847218,8.868757,-1.2981006,-0.008071315,0.015299217,0.00927924,9.768878307544078,0.01962947905697255,stand
19/08/2020, 20:44:32,-3.894302,8.813672,-1.2981006,-0.008071315,0.015299217,0.00927924,9.722729433996314,0.01962947905697255,stand
19/08/2020, 20:44:33,-3.8559816,8.969349,-1.3076807,-0.0044061244,0.033625167,0.01294443,9.850271200075229,0.03629909157736757,stand
19/08/2020, 20:44:33,-3.8535867,8.988508,-1.334026,-0.0044061244,0.033625167,0.01294443,9.870310819140151,0.03629909157736757,stand
19/08/2020, 20:44:33,-3.8535867,8.988508,-1.334026,0.012698095,0.012855758,0.00927924,9.870310819140151,0.020312962124967332,stand
19/08/2020, 20:44:33,-3.894302,8.976534,-1.2885206,0.012698095,0.012855758,0.00927924,9.869348163180797,0.020312962124967332,stand
19/08/2020, 20:44:33,-3.894302,8.976534,-1.2885206,0.027358856,0.0067471075,0.00927924,9.869348163180797,0.02966706519813606,stand
19/08/2020, 20:44:33,-3.8487966,8.945398,-1.3292359,0.027358856,0.0067471075,0.00927924,9.828542858308477,0.02966706519813606,stand
19/08/2020, 20:44:33,-3.8487966,8.945398,-1.3292359,0.042019617,0.009190568,0.011722701,9.828542858308477,0.04458179498396301,stand
19/08/2020, 20:44:33,-3.8368216,8.885523,-1.3531861,0.042019617,0.009190568,0.011722701,9.772657189325184,0.04458179498396301,stand
19/08/2020, 20:44:33,-3.8368216,8.885523,-1.3531861,0.042019617,0.02018614,0.011722701,9.772657189325184,0.04806818206181835,stand
19/08/2020, 20:44:33,-3.8104763,8.851993,-1.3675562,0.042019617,0.02018614,0.011722701,9.733843679261522,0.04806818206181835,stand
19/08/2020, 20:44:33,-3.8104763,8.851993,-1.3675562,0.024915395,0.047064196,0.0080575105,9.733843679261522,0.05385850883025064,stand
19/08/2020, 20:44:33,-3.8703518,8.919053,-1.4154567,0.024915395,0.047064196,0.0080575105,9.82510296777336,0.05385850883025064,stand
19/08/2020, 20:44:33,-3.8703518,8.919053,-1.4154567,0.002924255,0.047064196,7.2712987E-4,9.82510296777336,0.047160561497959164,stand
19/08/2020, 20:44:33,-3.911067,8.878338,-1.3891114,0.002924255,0.047064196,7.2712987E-4,9.80055910586363,0.047160561497959164,stand
19/08/2020, 20:44:33,-3.911067,8.878338,-1.3891114,0.0017025247,0.033625167,7.2712987E-4,9.80055910586363,0.03367609173953985,stand
19/08/2020, 20:44:33,-3.8272414,8.856783,-1.4106666,0.0017025247,0.033625167,7.2712987E-4,9.750915889203071,0.03367609173953985,stand
19/08/2020, 20:44:33,-3.8272414,8.856783,-1.4106666,0.015141555,0.015299217,0.0080575105,9.750915889203071,0.022983824796506284,stand
19/08/2020, 20:44:33,-3.8799317,8.854387,-1.4058765,0.015141555,0.015299217,0.0080575105,9.768855247721554,0.022983824796506284,stand
19/08/2020, 20:44:33,-3.8799317,8.854387,-1.4058765,0.022471935,-0.0066919224,0.01660962,9.768855247721554,0.02873411135214868,stand
19/08/2020, 20:44:33,-3.8176613,8.892708,-1.4585669,0.022471935,-0.0066919224,0.01660962,9.786838486421093,0.02873411135214868,stand
19/08/2020, 20:44:33,-3.8176613,8.892708,-1.4585669,0.021250205,-0.021352682,0.01294443,9.786838486421093,0.03278820715080159,stand
19/08/2020, 20:44:33,-3.8176613,8.931028,-1.4489869,0.021250205,-0.021352682,0.01294443,9.820252968601537,0.03278820715080159,stand
19/08/2020, 20:44:33,-3.8176613,8.931028,-1.4489869,0.0065894453,-0.017687492,0.00683578,9.820252968601537,0.020074761633764437,stand
19/08/2020, 20:44:33,-3.772156,8.947793,-1.4010864,0.0065894453,-0.017687492,0.00683578,9.810973642965509,0.020074761633764437,stand
19/08/2020, 20:44:33,-3.772156,8.947793,-1.4010864,-0.003184395,-0.0054701925,-4.946003E-4,9.810973642965509,0.006348858688450089,stand
19/08/2020, 20:44:33,-3.8080812,8.950189,-1.346001,-0.003184395,-0.0054701925,-4.946003E-4,9.819321638965393,0.006348858688450089,stand
19/08/2020, 20:44:33,-3.8080812,8.950189,-1.346001,-7.4093416E-4,-5.832724E-4,-0.0041597905,9.819321638965393,0.004265330803247689,stand
19/08/2020, 20:44:33,-3.8176613,8.928633,-1.3052857,-7.4093416E-4,-5.832724E-4,-0.0041597905,9.797897272700734,0.004265330803247689,stand
19/08/2020, 20:44:33,-3.8176613,8.928633,-1.3052857,0.0065894453,0.0018601877,-0.007824981,9.797897272700734,0.010397663671452373,stand
19/08/2020, 20:44:33,-3.8440065,8.8951025,-1.3124708,0.0065894453,0.0018601877,-0.007824981,9.778640721151685,0.010397663671452373,stand
19/08/2020, 20:44:34,-3.8464015,8.842413,-1.4897022,0.016363285,0.02385133,0.0043923203,9.757165757015082,0.02925637548192998,stand
19/08/2020, 20:44:34,-3.8631666,8.847202,-1.5328126,0.016363285,0.02385133,0.0043923203,9.774792016226106,0.02925637548192998,stand
19/08/2020, 20:44:34,-3.8631666,8.847202,-1.5328126,0.020028476,0.01652095,0.0080575105,9.774792016226106,0.027184647715344554,stand
19/08/2020, 20:44:34,-3.8727467,8.823253,-1.5567628,0.020028476,0.01652095,0.0080575105,9.760710288086552,0.027184647715344554,stand
19/08/2020, 20:44:34,-3.8727467,8.823253,-1.5567628,0.021250205,0.009190568,0.01416616,9.760710288086552,0.027142546488362364,stand
19/08/2020, 20:44:34,-3.8392165,8.823253,-1.5567628,0.021250205,0.009190568,0.01416616,9.747455123676698,0.027142546488362364,stand
19/08/2020, 20:44:34,-3.8392165,8.823253,-1.5567628,0.016363285,0.0067471075,0.02149654,9.747455123676698,0.02784567830748293,stand
19/08/2020, 20:44:34,-3.8535867,8.832832,-1.5639478,0.016363285,0.0067471075,0.02149654,9.762939621169034,0.02784567830748293,stand
19/08/2020, 20:44:34,-3.8535867,8.832832,-1.5639478,0.0041459855,0.010412297,0.022718271,9.762939621169034,0.0253322911892024,stand
19/08/2020, 20:44:34,-3.8368216,8.849598,-1.5567628,0.0041459855,0.010412297,0.022718271,9.770368143150979,0.0253322911892024,stand
19/08/2020, 20:44:34,-3.8368216,8.849598,-1.5567628,0.002924255,0.015299217,0.02149654,9.770368143150979,0.026546535237284848,stand
19/08/2020, 20:44:34,-3.8344264,8.861572,-1.4968873,0.002924255,0.015299217,0.02149654,9.770924241172244,0.026546535237284848,stand
19/08/2020, 20:44:34,-3.8344264,8.861572,-1.4968873,0.005367715,0.02385133,0.015387891,9.770924241172244,0.02888746208220461,stand
19/08/2020, 20:44:34,-3.8320315,8.849598,-1.4801221,0.005367715,0.02385133,0.015387891,9.756567545323232,0.02888746208220461,stand
19/08/2020, 20:44:34,-3.8320315,8.849598,-1.4801221,0.0065894453,0.026294788,0.01050097,9.756567545323232,0.029070725145491836,stand
19/08/2020, 20:44:34,-3.8248463,8.928633,-1.4944923,0.0065894453,0.026294788,0.01050097,9.82768735367818,0.029070725145491836,stand
19/08/2020, 20:44:34,-3.8248463,8.928633,-1.4944923,4.8079528E-4,0.026294788,0.0056140497,9.82768735367818,0.026891720150380553,stand
19/08/2020, 20:44:34,-3.781736,8.911868,-1.5328126,4.8079528E-4,0.026294788,0.0056140497,9.801654645896933,0.026891720150380553,stand
19/08/2020, 20:44:34,-3.781736,8.911868,-1.5328126,-0.010514775,0.02385133,0.0031705897,9.801654645896933,0.026258314024483604,stand
19/08/2020, 20:44:34,-3.8152664,8.909473,-1.5184424,-0.010514775,0.02385133,0.0031705897,9.81023146444978,0.026258314024483604,stand
19/08/2020, 20:44:34,-3.8152664,8.909473,-1.5184424,-0.033727646,0.054394577,0.01783135,9.81023146444978,0.06644005647318174,stand
19/08/2020, 20:44:34,-3.7649708,8.770562,-1.3962965,-0.033727646,0.054394577,0.01783135,9.64610852628274,0.06644005647318174,stand
19/08/2020, 20:44:34,-3.7649708,8.770562,-1.3962965,-0.011736505,0.03118171,0.011722701,9.64610852628274,0.03531948871330839,stand
19/08/2020, 20:44:34,-3.9829175,9.0004835,-1.5136524,-0.011736505,0.03118171,0.011722701,9.958086130099401,0.03531948871330839,stand
19/08/2020, 20:44:34,-3.9829175,9.0004835,-1.5136524,-0.010514775,-0.0018050025,0.01294443,9.958086130099401,0.016774289976611692,stand
19/08/2020, 20:44:34,-3.8368216,8.931028,-1.4418018,-0.010514775,-0.0018050025,0.01294443,9.826660659680005,0.016774289976611692,stand
19/08/2020, 20:44:34,-3.8368216,8.931028,-1.4418018,-0.0044061244,-0.009135383,7.2712987E-4,9.826660659680005,0.010168474592106982,stand
19/08/2020, 20:44:34,-3.7601807,8.842413,-1.3867164,-0.0044061244,-0.009135383,7.2712987E-4,9.708254632935969,0.010168474592106982,stand
19/08/2020, 20:44:34,-3.7601807,8.842413,-1.3867164,-0.012958236,0.021407869,0.0019488598,9.708254632935969,0.0251000155079166,stand
19/08/2020, 20:44:34,-3.8056862,8.851993,-1.3986914,-0.012958236,0.021407869,0.0019488598,9.73639350661061,0.0251000155079166,stand
19/08/2020, 20:44:35,-3.7434156,8.969349,-1.6190332,-0.027618997,-0.007913653,-0.0127119,9.853103505659838,0.03141699052790958,stand
19/08/2020, 20:44:35,-3.7458107,8.928633,-1.5447876,-0.027618997,-0.007913653,-0.0127119,9.804996153017319,0.03141699052790958,stand
19/08/2020, 20:44:35,-3.7458107,8.928633,-1.5447876,-0.031284187,-0.012800573,-0.016377091,9.804996153017319,0.03756014053729051,stand
19/08/2020, 20:44:35,-3.7482057,8.935819,-1.4968873,-0.031284187,-0.012800573,-0.016377091,9.805027929205286,0.03756014053729051,stand
19/08/2020, 20:44:35,-3.7482057,8.935819,-1.4968873,-0.026397265,-0.010357113,-0.01515536,9.805027929205286,0.03215229925364616,stand
19/08/2020, 20:44:35,-3.7482057,8.854387,-1.4322218,-0.026397265,-0.010357113,-0.01515536,9.721135687014455,0.03215229925364616,stand
19/08/2020, 20:44:35,-3.7482057,8.854387,-1.4322218,-0.026397265,-0.0066919224,-0.016377091,9.721135687014455,0.03177745386891166,stand
19/08/2020, 20:44:35,-3.8248463,8.8879175,-1.4058765,-0.026397265,-0.0066919224,-0.016377091,9.777577183082743,0.03177745386891166,stand
19/08/2020, 20:44:35,-3.8248463,8.8879175,-1.4058765,-0.023953807,-5.832724E-4,-0.0102684405,9.777577183082743,0.026068485331329938,stand
19/08/2020, 20:44:35,-3.8008962,8.871153,-1.4082716,-0.023953807,-5.832724E-4,-0.0102684405,9.753327320520842,0.026068485331329938,stand
19/08/2020, 20:44:35,-3.8008962,8.871153,-1.4082716,-0.019066885,0.007968837,-0.0066032503,9.753327320520842,0.021694501414717182,stand
19/08/2020, 20:44:35,-3.8320315,8.904683,-1.3723463,-0.019066885,0.007968837,-0.0066032503,9.790872330423912,0.021694501414717182,stand
19/08/2020, 20:44:35,-3.8320315,8.904683,-1.3723463,-0.019066885,0.015299217,-0.0041597905,9.790872330423912,0.024797499887810884,stand
19/08/2020, 20:44:35,-3.8440065,8.878338,-1.4058765,-0.019066885,0.015299217,-0.0041597905,9.776387789326606,0.024797499887810884,stand
19/08/2020, 20:44:35,-3.8440065,8.878338,-1.4058765,-0.011736505,0.018964408,-4.946003E-4,9.776387789326606,0.02230782244583989,stand
19/08/2020, 20:44:35,-3.7937112,8.859178,-1.4058765,-0.011736505,0.018964408,-4.946003E-4,9.739289548080615,0.02230782244583989,stand
19/08/2020, 20:44:35,-3.7937112,8.859178,-1.4058765,0.0017025247,0.010412297,7.2712987E-4,9.739289548080615,0.010575596507719425,stand
19/08/2020, 20:44:35,-3.8176613,8.914263,-1.4585669,0.0017025247,0.010412297,7.2712987E-4,9.806428292958454,0.010575596507719425,stand
19/08/2020, 20:44:35,-3.8176613,8.914263,-1.4585669,0.011476366,-0.0042484626,-0.0017163303,9.806428292958454,0.012357273057302597,stand
19/08/2020, 20:44:35,-3.8320315,8.909473,-1.4825171,0.011476366,-0.0042484626,-0.0017163303,9.8112710163425,0.012357273057302597,stand
19/08/2020, 20:44:35,-3.8320315,8.909473,-1.4825171,0.015141555,-0.011578843,-0.0029380603,9.8112710163425,0.019286484768219044,stand
19/08/2020, 20:44:35,-3.8248463,8.885523,-1.5040723,0.015141555,-0.011578843,-0.0029380603,9.790005039007825,0.019286484768219044,stand
19/08/2020, 20:44:35,-3.8248463,8.885523,-1.5040723,0.018806746,-0.011578843,-0.007824981,9.790005039007825,0.023430613119091608,stand
19/08/2020, 20:44:35,-3.8008962,8.863968,-1.465752,0.018806746,-0.011578843,-0.007824981,9.75526357780773,0.023430613119091608,stand
19/08/2020, 20:44:35,-3.8008962,8.863968,-1.465752,0.024915395,-0.010357113,-0.007824981,9.75526357780773,0.028094074594410195,stand
19/08/2020, 20:44:35,-3.8344264,8.885523,-1.4585669,0.024915395,-0.010357113,-0.007824981,9.786866681270197,0.028094074594410195,stand
19/08/2020, 20:44:35,-3.8344264,8.885523,-1.4585669,0.028580585,-0.009135383,-0.00904671,9.786866681270197,0.03133924148175057,stand
19/08/2020, 20:44:35,-3.8655617,8.837623,-1.5447876,0.028580585,-0.009135383,-0.00904671,9.768956458114175,0.03133924148175057,stand
19/08/2020, 20:44:35,-3.8655617,8.837623,-1.5447876,0.031024046,6.384576E-4,-0.0066032503,9.768956458114175,0.03172541548356064,stand
19/08/2020, 20:44:35,-3.8176613,8.808882,-1.5447876,0.031024046,6.384576E-4,-0.0066032503,9.724058021969062,0.03172541548356064,stand
19/08/2020, 20:44:36,-3.791316,8.962164,-1.4513819,-0.044723216,0.037290357,-0.0127119,9.838748343263829,0.059601419674127416,stand
19/08/2020, 20:44:36,-4.1314087,9.182506,-1.3483961,-0.044723216,0.037290357,-0.0127119,10.15899202438096,0.059601419674127416,stand
19/08/2020, 20:44:36,-4.1314087,9.182506,-1.3483961,0.005367715,0.009190568,-0.028594391,10.15899202438096,0.030510950820971012,stand
19/08/2020, 20:44:36,-3.8727467,8.844808,-0.76880133,0.005367715,0.009190568,-0.028594391,9.686064446216998,0.030510950820971012,stand
19/08/2020, 20:44:36,-3.8727467,8.844808,-0.76880133,0.09821919,-0.014022303,-0.032259583,9.686064446216998,0.10432792376648506,stand
19/08/2020, 20:44:36,-4.2056546,8.471185,-1.7723145,0.09821919,-0.014022303,-0.032259583,9.622349005816762,0.10432792376648506,stand
19/08/2020, 20:44:36,-4.2056546,8.471185,-1.7723145,0.11654515,-0.07877399,-0.0029380603,9.622349005816762,0.14070090728061832,stand
19/08/2020, 20:44:36,-3.891907,8.5430355,-2.308799,0.11654515,-0.07877399,-0.0029380603,9.667520289408582,0.14070090728061832,stand
19/08/2020, 20:44:36,-3.891907,8.5430355,-2.308799,0.07989325,-0.1923949,0.031270377,9.667520289408582,0.21065745613491973,stand
19/08/2020, 20:44:36,-4.045188,8.971744,-2.0405567,0.07989325,-0.1923949,0.031270377,10.050850710440425,0.21065745613491973,stand
19/08/2020, 20:44:36,-4.045188,8.971744,-2.0405567,0.039576158,-0.22049469,0.06792228,10.050850710440425,0.2340889051925353,stand
19/08/2020, 20:44:36,-3.887117,8.933423,-1.2981006,0.039576158,-0.22049469,0.06792228,9.828570102547207,0.2340889051925353,stand
19/08/2020, 20:44:36,-3.887117,8.933423,-1.2981006,0.049349997,-0.18995143,0.10457418,9.828570102547207,0.22237969588173118,stand
19/08/2020, 20:44:36,-3.8344264,8.801697,-1.0250684,0.049349997,-0.18995143,0.10457418,9.655229527569558,0.22237969588173118,stand
19/08/2020, 20:44:36,-3.8344264,8.801697,-1.0250684,0.1226538,-0.17895587,0.13878262,9.655229527569558,0.2575456704526671,stand
19/08/2020, 20:44:36,-3.8583767,8.713081,-1.4154567,0.1226538,-0.17895587,0.13878262,9.633710365054148,0.2575456704526671,stand
19/08/2020, 20:44:36,-3.8583767,8.713081,-1.4154567,0.1348711,-0.21560776,0.16321722,9.633710365054148,0.3021866631677855,stand
19/08/2020, 20:44:36,-3.6332448,8.976534,-1.5615528,0.1348711,-0.21560776,0.16321722,9.809030285412708,0.3021866631677855,stand
19/08/2020, 20:44:36,-3.6332448,8.976534,-1.5615528,0.13731456,-0.24492928,0.1338957,9.809030285412708,0.31108471375697,stand
19/08/2020, 20:44:36,-3.2452517,9.206455,-1.5232325,0.13731456,-0.24492928,0.1338957,9.879813426903418,0.31108471375697,stand
19/08/2020, 20:44:36,-3.2452517,9.206455,-1.5232325,0.12509726,-0.24737275,0.07647439,9.879813426903418,0.2875603112242267,stand
19/08/2020, 20:44:36,-3.1111305,9.16574,-2.0357666,0.12509726,-0.24737275,0.07647439,9.891120688924806,0.2875603112242267,stand
19/08/2020, 20:44:36,-3.1111305,9.16574,-2.0357666,0.056680378,-0.18995143,0.02027481,9.891120688924806,0.19926183954502702,stand
19/08/2020, 20:44:36,-3.3386574,8.998089,-2.0812721,0.056680378,-0.18995143,0.02027481,9.820587022539819,0.19926183954502702,stand
19/08/2020, 20:44:36,-3.3386574,8.998089,-2.0812721,-0.008071315,-0.18017758,-0.02737266,9.820587022539819,0.18242360187490214,stand
19/08/2020, 20:44:36,-3.3673975,9.14658,-1.9279908,-0.008071315,-0.18017758,-0.02737266,9.93561451169937,0.18242360187490214,stand
19/08/2020, 20:44:36,-3.3673975,9.14658,-1.9279908,0.033467505,-0.24492928,-0.07257667,9.93561451169937,0.25763889707398974,stand
19/08/2020, 20:44:36,-3.3458424,9.038804,-1.5687379,0.033467505,-0.24492928,-0.07257667,9.7650180914571,0.25763889707398974,stand
19/08/2020, 20:44:36,-3.3458424,9.038804,-1.5687379,0.08722363,-0.291355,-0.104341656,9.7650180914571,0.3215320921999889,stand
19/08/2020, 20:44:36,-3.5087037,8.952583,-1.6453785,0.08722363,-0.291355,-0.104341656,9.755358527599366,0.3215320921999889,stand
19/08/2020, 20:44:37,-3.547024,9.172925,-0.4766089,-0.017845154,-0.8545726,-0.37678745,9.846374376198963,0.9341207382466756,stand
19/08/2020, 20:44:37,-3.647615,9.15137,-0.45744875,-0.017845154,-0.8545726,-0.37678745,9.862146216269155,0.9341207382466756,stand
19/08/2020, 20:44:37,-3.647615,9.15137,-0.45744875,-0.043501485,-0.8276945,-0.46475202,9.862146216269155,0.9502446857978541,stand
19/08/2020, 20:44:37,-3.923042,8.998089,-0.06466553,-0.043501485,-0.8276945,-0.46475202,9.816315161000539,0.9502446857978541,stand
19/08/2020, 20:44:37,-3.923042,8.998089,-0.06466553,-0.05694052,-0.77516013,-0.52095157,9.816315161000539,0.9356847722638999,stand
19/08/2020, 20:44:37,-4.006868,9.0004835,0.0023950196,-0.05694052,-0.77516013,-0.52095157,9.852091120888222,0.9356847722638999,stand
19/08/2020, 20:44:37,-4.006868,9.0004835,0.0023950196,-0.066714354,-0.67375654,-0.54538614,9.852091120888222,0.8693933038873507,stand
19/08/2020, 20:44:37,-3.9901028,8.875943,0.13891114,-0.066714354,-0.67375654,-0.54538614,9.73255278990015,0.8693933038873507,stand
19/08/2020, 20:44:37,-3.9901028,8.875943,0.13891114,-0.059383973,-0.6114483,-0.5392775,9.73255278990015,0.8174446040222659,stand
19/08/2020, 20:44:37,-4.248765,8.844808,-0.045505375,-0.059383973,-0.6114483,-0.5392775,9.812476579047232,0.8174446040222659,stand
19/08/2020, 20:44:37,-4.248765,8.844808,-0.045505375,-0.049610138,-0.60656136,-0.4891866,9.812476579047232,0.7808209760321609,stand
19/08/2020, 20:44:37,-4.358936,8.751402,-0.06706055,-0.049610138,-0.60656136,-0.4891866,9.777108670299043,0.7808209760321609,stand
19/08/2020, 20:44:37,-4.358936,8.751402,-0.06706055,-0.028840724,-0.65543056,-0.4354305,9.777108670299043,0.7874139431826157,stand
19/08/2020, 20:44:37,-4.2008643,8.866363,-0.18920656,-0.028840724,-0.65543056,-0.4354305,9.813024272215367,0.7874139431826157,stand
19/08/2020, 20:44:37,-4.2008643,8.866363,-0.18920656,0.016363285,-0.74339515,-0.39755687,9.813024272215367,0.8431818140471848,stand
19/08/2020, 20:44:37,-4.3445654,8.813672,-0.33769777,0.016363285,-0.74339515,-0.39755687,9.832095580819349,0.8431818140471848,stand
19/08/2020, 20:44:37,-4.3445654,8.813672,-0.33769777,0.020028476,-0.84113353,-0.37800917,9.832095580819349,0.9223869557898575,stand
19/08/2020, 20:44:37,-4.380491,8.904683,-0.43589357,0.020028476,-0.84113353,-0.37800917,9.933382305018341,0.9223869557898575,stand
19/08/2020, 20:44:37,-4.380491,8.904683,-0.43589357,-0.0044061244,-0.9217677,-0.3914482,9.933382305018341,1.0014523559508406,stand
19/08/2020, 20:44:37,-4.2990603,8.801697,-0.13891114,-0.0044061244,-0.9217677,-0.3914482,9.796483160465076,1.0014523559508406,stand
19/08/2020, 20:44:37,-4.2990603,8.801697,-0.13891114,0.011476366,-0.9535327,-0.4281001,9.796483160465076,1.0452875261322787,stand
19/08/2020, 20:44:37,-4.351751,8.729847,0.19160157,0.011476366,-0.9535327,-0.4281001,9.756263345973794,1.0452875261322787,stand
19/08/2020, 20:44:37,-4.351751,8.729847,0.19160157,0.059123836,-0.9413154,-0.46597373,9.756263345973794,1.0519989807329035,stand
19/08/2020, 20:44:37,-4.3445654,8.693921,0.28979737,0.059123836,-0.9413154,-0.46597373,9.72334792441751,1.0519989807329035,stand
19/08/2020, 20:44:37,-4.3445654,8.693921,0.28979737,0.112879954,-0.933985,-0.49040833,9.72334792441751,1.0609289259990096,stand
19/08/2020, 20:44:37,-4.373306,8.749006,0.17004639,0.112879954,-0.933985,-0.49040833,9.782628997866762,1.0609289259990096,stand
19/08/2020, 20:44:37,-4.373306,8.749006,0.17004639,0.1348711,-0.94742405,-0.49896047,9.782628997866762,1.07924237156396,stand
19/08/2020, 20:44:37,-4.505032,8.823253,-0.035925295,0.1348711,-0.94742405,-0.49896047,9.9068861066251,1.07924237156396,stand
19/08/2020, 20:44:37,-4.505032,8.823253,-0.035925295,0.057902105,-0.92665464,-0.50384736,9.9068861066251,1.0563633998722588,stand
19/08/2020, 20:44:37,-4.4595265,8.772957,0.045505375,0.057902105,-0.92665464,-0.50384736,9.841454137942591,1.0563633998722588,stand
19/08/2020, 20:44:38,-3.187771,6.847361,7.32876,-0.35626435,-0.7018563,-0.14221528,10.524208456273684,0.7998448365322053,stand
19/08/2020, 20:44:38,-3.5613942,6.471343,7.460486,-0.35626435,-0.7018563,-0.14221528,10.498602758885418,0.7998448365322053,stand
19/08/2020, 20:44:38,-3.5613942,6.471343,7.460486,-0.20476985,-0.26447695,-0.17031507,10.498602758885418,0.3753478051096011,stand
19/08/2020, 20:44:38,-3.887117,6.595884,7.086863,-0.20476985,-0.26447695,-0.17031507,10.432592647032495,0.3753478051096011,stand
19/08/2020, 20:44:38,-3.887117,6.595884,7.086863,-0.1620093,0.012855758,-0.17764546,10.432592647032495,0.24076999976770194,stand
19/08/2020, 20:44:38,-4.112249,6.1528053,6.1623855,-0.1620093,0.012855758,-0.17764546,9.630295894084998,0.24076999976770194,stand
19/08/2020, 20:44:38,-4.112249,6.1528053,6.1623855,-0.30983862,0.27308425,-0.21063216,9.630295894084998,0.4636171787318706,stand
19/08/2020, 20:44:38,-3.772156,6.368357,5.7767873,-0.30983862,0.27308425,-0.21063216,9.389164253090014,0.4636171787318706,stand
19/08/2020, 20:44:38,-3.772156,6.368357,5.7767873,-0.40391183,0.3280621,-0.19719313,9.389164253090014,0.5564661980557088,stand
19/08/2020, 20:44:38,-4.133804,6.744375,6.303692,-0.40391183,0.3280621,-0.19719313,10.114912879940807,0.5564661980557088,stand
19/08/2020, 20:44:38,-4.133804,6.744375,6.303692,-0.47355044,0.2388758,-0.19108449,10.114912879940807,0.5637596571570128,stand
19/08/2020, 20:44:38,-3.9781277,6.6509695,6.1767554,-0.47355044,0.2388758,-0.19108449,9.910257470029167,0.5637596571570128,stand
19/08/2020, 20:44:38,-3.9781277,6.6509695,6.1767554,-0.4796591,0.19245006,-0.1715368,9.910257470029167,0.5445500556581631,stand
19/08/2020, 20:44:38,-4.1074586,6.2725563,6.248606,-0.4796591,0.19245006,-0.1715368,9.760187405173255,0.5445500556581631,stand
19/08/2020, 20:44:38,-4.1074586,6.2725563,6.248606,-0.43323335,0.14846778,-0.19719313,9.760187405173255,0.49861703571185256,stand
19/08/2020, 20:44:38,-3.9757326,6.1073003,6.2653713,-0.43323335,0.14846778,-0.19719313,9.610434119590167,0.49861703571185256,stand
19/08/2020, 20:44:38,-3.9757326,6.1073003,6.2653713,-0.35870782,0.050729387,-0.25950137,9.610434119590167,0.4456295854010564,stand
19/08/2020, 20:44:38,-4.021238,6.1216702,6.217471,-0.35870782,0.050729387,-0.25950137,9.607400668870035,0.4456295854010564,stand
19/08/2020, 20:44:38,-4.021238,6.1216702,6.217471,-0.29151267,-0.08121745,-0.35601804,9.607400668870035,0.4672523437310169,stand
19/08/2020, 20:44:38,-3.9398074,6.2653713,6.2725563,-0.29151267,-0.08121745,-0.35601804,9.701645369541776,0.4672523437310169,stand
19/08/2020, 20:44:38,-3.9398074,6.2653713,6.2725563,-0.31594726,-0.15940818,-0.45009124,9.701645369541776,0.5725519794722393,stand
19/08/2020, 20:44:38,-4.145779,6.109695,6.351592,-0.31594726,-0.15940818,-0.45009124,9.7395368904847,0.5725519794722393,stand
19/08/2020, 20:44:38,-4.145779,6.109695,6.351592,-0.3831424,-0.19728181,-0.52095157,9.7395368904847,0.6760981856293918,stand
19/08/2020, 20:44:38,-4.1218286,5.999524,6.337222,-0.3831424,-0.19728181,-0.52095157,9.651121396300336,0.6760981856293918,stand
19/08/2020, 20:44:38,-4.1218286,5.999524,6.337222,-0.45400277,-0.27058563,-0.53194714,9.651121396300336,0.7498685550048186,stand
19/08/2020, 20:44:38,-4.4283915,5.982759,6.1791506,-0.45400277,-0.27058563,-0.53194714,9.673983566174453,0.7498685550048186,stand
19/08/2020, 20:44:38,-4.4283915,5.982759,6.1791506,-0.502872,-0.40253246,-0.52950364,9.673983566174453,0.8338385497290203,stand
19/08/2020, 20:44:38,-4.4523416,5.965994,5.879773,-0.502872,-0.40253246,-0.52950364,9.486208963770244,0.8338385497290203,stand
19/08/2020, 20:44:38,-4.4523416,5.965994,5.879773,-0.579841,-0.5967875,-0.51239944,9.486208963770244,0.9772021908013488,stand
19/08/2020, 20:44:38,-4.536167,5.853428,5.621111,-0.579841,-0.5967875,-0.51239944,9.297113440457577,0.9772021908013488,stand
19/08/2020, 20:44:39,-2.560276,4.150569,8.686736,-0.049610138,-0.49538395,-0.41832626,9.962008846463206,0.6502793864895773,stand
19/08/2020, 20:44:39,-2.560276,4.150569,8.686736,-0.017845154,-0.5137099,-0.43909568,9.962008846463206,0.6760335245721503,stand
19/08/2020, 20:44:39,-2.5866213,4.026028,8.598121,-0.017845154,-0.5137099,-0.43909568,9.840080882485973,0.6760335245721503,stand
19/08/2020, 20:44:39,-2.5866213,4.026028,8.598121,0.032245778,-0.5466966,-0.46230856,9.840080882485973,0.7166911238683039,stand
19/08/2020, 20:44:39,-2.5818312,3.9469924,8.440049,0.032245778,-0.5466966,-0.46230856,9.668455483321598,0.7166911238683039,stand
19/08/2020, 20:44:39,-2.5818312,3.9469924,8.440049,0.04690654,-0.599231,-0.49773872,9.668455483321598,0.7803985217349205,stand
19/08/2020, 20:44:39,-2.4764502,4.0739284,8.533455,0.04690654,-0.599231,-0.49773872,9.774945028676221,0.7803985217349205,stand
19/08/2020, 20:44:39,-2.4764502,4.0739284,8.533455,0.061567295,-0.63954806,-0.55393827,9.774945028676221,0.8483276864767293,stand
19/08/2020, 20:44:39,-2.3423293,4.258345,8.677156,0.061567295,-0.63954806,-0.55393827,9.945504191867776,0.8483276864767293,stand
19/08/2020, 20:44:39,-2.3423293,4.258345,8.677156,0.07500633,-0.6432133,-0.6089161,9.945504191867776,0.8888914918216179,stand
19/08/2020, 20:44:39,-2.1722827,4.26553,8.911868,0.07500633,-0.6432133,-0.6089161,10.116073950617396,0.8888914918216179,stand
19/08/2020, 20:44:39,-2.1722827,4.26553,8.911868,0.08722363,-0.5980093,-0.6651157,10.116073950617396,0.8986667808834048,stand
19/08/2020, 20:44:39,-2.1674929,4.169729,9.05557,0.08722363,-0.5980093,-0.6651157,10.202353104279194,0.8986667808834048,stand
19/08/2020, 20:44:39,-2.1674929,4.169729,9.05557,0.11654515,-0.5271489,-0.70054585,10.202353104279194,0.8844394955099266,stand
19/08/2020, 20:44:39,-2.2824538,4.045188,9.057964,0.11654515,-0.5271489,-0.70054585,10.179383994174906,0.8844394955099266,stand
19/08/2020, 20:44:39,-2.2824538,4.045188,9.057964,0.14708841,-0.45873204,-0.72131526,10.179383994174906,0.867390220351472,stand
19/08/2020, 20:44:39,-2.315984,3.9206471,8.921448,0.14708841,-0.45873204,-0.72131526,10.016360915708173,0.867390220351472,stand
19/08/2020, 20:44:39,-2.315984,3.9206471,8.921448,0.16907954,-0.38909343,-0.7335326,10.016360915708173,0.8473792977754655,stand
19/08/2020, 20:44:39,-2.318379,3.9182522,8.995694,0.16907954,-0.38909343,-0.7335326,10.082167168095303,0.8473792977754655,stand
19/08/2020, 20:44:39,-2.318379,3.9182522,8.995694,0.20206624,-0.3267852,-0.7457499,10.082167168095303,0.8389053805115972,stand
19/08/2020, 20:44:39,-2.4261549,3.9350173,8.902288,0.20206624,-0.3267852,-0.7457499,10.031018308371095,0.8389053805115972,stand
19/08/2020, 20:44:39,-2.4261549,3.9350173,8.902288,0.24971372,-0.32312,-0.7652976,10.031018308371095,0.8674352300527436,stand
19/08/2020, 20:44:39,-2.44771,3.9278321,8.610096,0.24971372,-0.32312,-0.7652976,9.77511648973505,0.8674352300527436,stand
19/08/2020, 20:44:39,-2.44771,3.9278321,8.610096,0.29613948,-0.38054132,-0.7909539,9.77511648973505,0.9263467613700666,stand
19/08/2020, 20:44:39,-2.4860303,4.0020776,8.420889,0.29613948,-0.38054132,-0.7909539,9.64926638058983,0.9263467613700666,stand
19/08/2020, 20:44:39,-2.4860303,4.0020776,8.420889,0.29980466,-0.47094935,-0.81783193,9.64926638058983,0.9902147222577808,stand
19/08/2020, 20:44:39,-2.44771,4.1242237,8.193362,0.29980466,-0.47094935,-0.81783193,9.493771134791816,0.9902147222577808,stand
19/08/2020, 20:44:39,-2.44771,4.1242237,8.193362,0.280257,-0.5906789,-0.8642577,9.493771134791816,1.0836913154703147,stand
19/08/2020, 20:44:39,-2.3447242,4.232,8.262817,0.280257,-0.5906789,-0.8642577,9.575056423258765,1.0836913154703147,stand
19/08/2020, 20:44:39,-2.3447242,4.232,8.262817,0.2973612,-0.70429975,-0.9412267,9.575056423258765,1.2125879577433807,stand
19/08/2020, 20:44:40,-4.8666797,3.666775,7.8341093,0.038354427,-0.058004584,-0.42932186,9.924871708621193,0.4349170602188737,stand
19/08/2020, 20:44:40,-4.840335,3.5542092,7.8532696,0.038354427,-0.058004584,-0.42932186,9.886105815030758,0.4349170602188737,stand
19/08/2020, 20:44:40,-4.840335,3.5542092,7.8532696,0.038354427,0.0030819178,-0.40977415,9.886105815030758,0.4115767460548274,stand
19/08/2020, 20:44:40,-4.768484,3.551814,7.9059596,0.038354427,0.0030819178,-0.40977415,9.892321330655507,0.4115767460548274,stand
19/08/2020, 20:44:40,-4.768484,3.551814,7.9059596,0.015141555,0.08005091,-0.39022648,9.892321330655507,0.3986403427542213,stand
19/08/2020, 20:44:40,-4.7804594,3.5781593,7.91075,0.015141555,0.08005091,-0.39022648,9.911406585077357,0.3986403427542213,stand
19/08/2020, 20:44:40,-4.7804594,3.5781593,7.91075,-0.030062456,0.165572,-0.3755657,9.911406585077357,0.4115427560429556,stand
19/08/2020, 20:44:40,-4.773274,3.6164796,7.810159,-0.030062456,0.165572,-0.3755657,9.841831939933204,0.4115427560429556,stand
19/08/2020, 20:44:40,-4.773274,3.6164796,7.810159,-0.10458799,0.25231484,-0.3670136,9.841831939933204,0.4574936158166877,stand
19/08/2020, 20:44:40,-4.8355446,3.7122805,7.7359133,-0.10458799,0.25231484,-0.3670136,9.849257447536477,0.4574936158166877,stand
19/08/2020, 20:44:40,-4.8355446,3.7122805,7.7359133,-0.1339095,0.29874057,-0.374344,9.849257447536477,0.49730383262821465,stand
19/08/2020, 20:44:40,-4.90979,3.6116896,7.7502837,-0.1339095,0.29874057,-0.374344,9.85988019558703,0.49730383262821465,stand
19/08/2020, 20:44:40,-4.90979,3.6116896,7.7502837,-0.10580972,0.2950754,-0.39022648,9.85988019558703,0.5005415953530444,stand
19/08/2020, 20:44:40,-4.87626,3.5637891,7.795789,-0.10580972,0.2950754,-0.39022648,9.861684698846899,0.5005415953530444,stand
19/08/2020, 20:44:40,-4.87626,3.5637891,7.795789,-0.060605705,0.2914102,-0.41710454,9.861684698846899,0.5124150269093154,stand
19/08/2020, 20:44:40,-4.893025,3.4919386,7.9155397,-0.060605705,0.2914102,-0.41710454,9.939371076907737,0.5124150269093154,stand
19/08/2020, 20:44:40,-4.893025,3.4919386,7.9155397,-0.028840724,0.2914102,-0.43298703,9.939371076907737,0.5227135625298213,stand
19/08/2020, 20:44:40,-4.9648757,3.396138,7.879615,-0.028840724,0.2914102,-0.43298703,9.913227202146913,0.5227135625298213,stand
19/08/2020, 20:44:40,-4.9648757,3.396138,7.879615,-0.031284187,0.287745,-0.43420875,9.913227202146913,0.5218362999752532,stand
19/08/2020, 20:44:40,-5.108577,3.3530276,7.767049,-0.031284187,0.287745,-0.43420875,9.882681733503846,0.5218362999752532,stand
19/08/2020, 20:44:40,-5.108577,3.3530276,7.767049,-0.047166675,0.2950754,-0.419548,9.882681733503846,0.5150870873177317,stand
19/08/2020, 20:44:40,-5.249883,3.290757,7.664063,-0.047166675,0.2950754,-0.419548,9.855364828695198,0.5150870873177317,stand
19/08/2020, 20:44:40,-5.249883,3.290757,7.664063,-0.072823,0.31950998,-0.3828961,9.855364828695198,0.5039833717427995,stand
19/08/2020, 20:44:40,-5.2858086,3.159031,7.6209526,-0.072823,0.31950998,-0.3828961,9.797865436443322,0.5039833717427995,stand
19/08/2020, 20:44:40,-5.2858086,3.159031,7.6209526,-0.10703145,0.3805965,-0.34502247,9.797865436443322,0.5247379565838889,stand
19/08/2020, 20:44:40,-5.3049684,3.0704153,7.6664577,-0.10703145,0.3805965,-0.34502247,9.815534222582595,0.5247379565838889,stand
19/08/2020, 20:44:40,-5.3049684,3.0704153,7.6664577,-0.13635296,0.45267856,-0.30470538,9.815534222582595,0.5624547785557833,stand
19/08/2020, 20:44:40,-5.372029,3.06802,7.704778,-0.13635296,0.45267856,-0.30470538,9.881044889965748,0.5624547785557833,stand
19/08/2020, 20:44:40,-5.372029,3.06802,7.704778,-0.15467891,0.5125433,-0.2741621,9.881044889965748,0.6014907194779295,stand
19/08/2020, 20:44:40,-5.374424,3.0752053,7.790999,-0.15467891,0.5125433,-0.2741621,9.951933748678432,0.6014907194779295,stand
19/08/2020, 20:44:41,-7.582632,1.4585669,6.9072366,-1.910305,0.8692885,1.8015572,10.36019515076867,2.7659602436795026,stand
19/08/2020, 20:44:41,-7.5395217,1.4801221,6.835386,-1.910305,0.8692885,1.8015572,10.283853742799812,2.7659602436795026,stand
19/08/2020, 20:44:41,-7.5395217,1.4801221,6.835386,-1.9029746,0.89127964,1.874861,10.283853742799812,2.8161668130439943,stand
19/08/2020, 20:44:41,-7.429351,1.587898,6.821016,-1.9029746,0.89127964,1.874861,10.20994276302849,2.8161668130439943,stand
19/08/2020, 20:44:41,-7.429351,1.587898,6.821016,-1.8895355,0.89250135,1.9273955,10.20994276302849,2.8428430344948032,stand
19/08/2020, 20:44:41,-7.3958206,1.6908839,6.7803006,-1.8895355,0.89250135,1.9273955,10.174955889194754,2.8428430344948032,stand
19/08/2020, 20:44:41,-7.3958206,1.6908839,6.7803006,-1.8724314,0.89250135,1.978708,10.174955889194754,2.8666781243458663,stand
19/08/2020, 20:44:41,-7.302415,1.7962648,6.7228203,-1.8724314,0.89250135,1.978708,10.087028449694953,2.8666781243458663,stand
19/08/2020, 20:44:41,-7.302415,1.7962648,6.7228203,-1.8577706,0.9022752,2.0312424,10.087028449694953,2.8967840055408183,stand
19/08/2020, 20:44:41,-7.165899,1.9160157,6.672525,-1.8577706,0.9022752,2.0312424,9.977164470487644,2.8967840055408183,stand
19/08/2020, 20:44:41,-7.165899,1.9160157,6.672525,-1.8443316,0.91204906,2.0581205,9.977164470487644,2.9101980274563637,stand
19/08/2020, 20:44:41,-7.031778,1.9591261,6.622229,-1.8443316,0.91204906,2.0581205,9.85586085695813,2.9101980274563637,stand
19/08/2020, 20:44:41,-7.031778,1.9591261,6.622229,-1.8235621,0.91082734,2.0630074,9.85586085695813,2.900169768158185,stand
19/08/2020, 20:44:41,-6.9790874,2.066902,6.6821046,-1.8235621,0.91082734,2.0630074,9.880802879952443,2.900169768158185,stand
19/08/2020, 20:44:41,-6.9790874,2.066902,6.6821046,-1.7820233,0.9034969,2.0556772,9.880802879952443,2.8666570105387863,stand
19/08/2020, 20:44:41,-6.952742,2.0405567,6.74198,-1.7820233,0.9034969,2.0556772,9.897413276666525,2.8666570105387863,stand
19/08/2020, 20:44:41,-6.952742,2.0405567,6.74198,-1.742928,0.90960556,2.0471249,9.897413276666525,2.838291844436757,stand
19/08/2020, 20:44:41,-7.0054326,2.0261867,6.9024467,-1.742928,0.90960556,2.0471249,10.041179694061164,2.838291844436757,stand
19/08/2020, 20:44:41,-7.0054326,2.0261867,6.9024467,-1.7013892,0.9364837,2.0532336,10.041179694061164,2.826215700495043,stand
19/08/2020, 20:44:41,-7.074888,1.9160157,7.1156034,-1.7013892,0.9364837,2.0532336,10.215526036603947,2.826215700495043,stand
19/08/2020, 20:44:41,-7.074888,1.9160157,7.1156034,-1.6378592,0.97680074,2.0727813,10.215526036603947,2.81658391420244,stand
19/08/2020, 20:44:41,-7.038963,1.8561403,7.3455253,-1.6378592,0.97680074,2.0727813,10.34161476472928,2.81658391420244,stand
19/08/2020, 20:44:41,-7.038963,1.8561403,7.3455253,-1.5462295,1.0488828,2.0959942,10.34161476472928,2.807876894695206,stand
19/08/2020, 20:44:41,-6.9719024,1.8992506,7.3718705,-1.5462295,1.0488828,2.0959942,10.322744331611514,2.807876894695206,stand
19/08/2020, 20:44:41,-6.9719024,1.8992506,7.3718705,-1.4582648,1.147843,2.1167636,10.322744331611514,2.8150964408665966,stand
19/08/2020, 20:44:41,-6.8737063,1.9998415,7.074888,-1.4582648,1.147843,2.1167636,10.064852117602664,2.8150964408665966,stand
19/08/2020, 20:44:41,-6.8737063,1.9998415,7.074888,-1.4313868,1.2419162,2.1314244,10.064852117602664,2.8520508652592516,stand
19/08/2020, 20:44:41,-6.844966,2.184258,6.672525,-1.4313868,1.2419162,2.1314244,9.805464319350522,2.8520508652592516,stand
19/08/2020, 20:44:41,-6.844966,2.184258,6.672525,-1.4729257,1.3005593,2.1436417,9.805464319350522,2.9079484585442046,stand
19/08/2020, 20:44:41,-6.837781,2.315984,6.3923073,-1.4729257,1.3005593,2.1436417,9.6426460410295,2.9079484585442046,stand
19/08/2020, 20:44:42,-6.07856,7.101233,2.064507,-0.21210024,0.18511969,1.6402888,9.572804685308265,1.6642725903666589,stand
19/08/2020, 20:44:42,-5.9156985,7.1778736,2.2752686,-0.21210024,0.18511969,1.6402888,9.575709146351139,1.6642725903666589,stand
19/08/2020, 20:44:42,-5.9156985,7.1778736,2.2752686,-0.07770993,0.21321948,1.5730937,9.575709146351139,1.5893788155397608,stand
19/08/2020, 20:44:42,-5.968389,7.36708,2.4692652,-0.07770993,0.21321948,1.5730937,9.797592012756512,1.5893788155397608,stand
19/08/2020, 20:44:42,-5.968389,7.36708,2.4692652,0.038354427,0.30973616,1.4301513,9.797592012756512,1.4638102394873722,stand
19/08/2020, 20:44:42,-6.0306597,7.1539235,2.4884255,0.038354427,0.30973616,1.4301513,9.68192848386931,1.4638102394873722,stand
19/08/2020, 20:44:42,-6.0306597,7.1539235,2.4884255,0.10188439,0.409918,1.3385215,9.68192848386931,1.4035857499415327,stand
19/08/2020, 20:44:42,-6.1144853,7.5970025,2.5219557,0.10188439,0.409918,1.3385215,10.072816776763974,1.4035857499415327,stand
19/08/2020, 20:44:42,-6.1144853,7.5970025,2.5219557,0.12387553,0.59928614,1.2420049,10.072816776763974,1.3845812087030187,stand
19/08/2020, 20:44:42,-6.09772,7.5946074,2.3543043,0.12387553,0.59928614,1.2420049,10.020129771209275,1.3845812087030187,stand
19/08/2020, 20:44:42,-6.09772,7.5946074,2.3543043,0.14953187,0.699468,1.200466,10.020129771209275,1.397402587750363,stand
19/08/2020, 20:44:42,-5.6570363,7.862849,2.4740553,0.14953187,0.699468,1.200466,9.997370025659741,1.397402587750363,stand
19/08/2020, 20:44:42,-5.6570363,7.862849,2.4740553,0.10188439,0.853406,1.1454881,9.997370025659741,1.4320702969820946,stand
19/08/2020, 20:44:42,-5.601951,7.9394903,2.0932472,0.10188439,0.853406,1.1454881,9.939770954471934,1.4320702969820946,stand
19/08/2020, 20:44:42,-5.601951,7.9394903,2.0932472,0.08111498,0.9425923,1.0379759,9.939770954471934,1.4044407822441993,stand
19/08/2020, 20:44:42,-6.255791,7.1227884,2.6033864,0.08111498,0.9425923,1.0379759,9.830903272117455,1.4044407822441993,stand
19/08/2020, 20:44:42,-6.255791,7.1227884,2.6033864,0.099440925,0.9560313,1.0428629,9.830903272117455,1.4182550542537917,stand
19/08/2020, 20:44:42,-4.773274,7.814949,1.6908839,0.099440925,0.9560313,1.0428629,9.312178094340995,1.4182550542537917,stand
19/08/2020, 20:44:42,-4.773274,7.814949,1.6908839,0.1348711,1.0183396,1.0660757,9.312178094340995,1.48044695398127,stand
19/08/2020, 20:44:42,-5.6690116,8.322693,1.5112574,0.1348711,1.0183396,1.0660757,10.182770154826324,1.48044695398127,stand
19/08/2020, 20:44:42,-5.6690116,8.322693,1.5112574,0.1629709,1.0110092,1.0147631,10.182770154826324,1.4416807320534326,stand
19/08/2020, 20:44:42,-5.398374,8.092772,1.7411792,0.1629709,1.0110092,1.0147631,9.88266658637087,1.4416807320534326,stand
19/08/2020, 20:44:42,-5.398374,8.092772,1.7411792,0.23383123,0.89861,0.9732243,9.88266658637087,1.3451180137280152,stand
19/08/2020, 20:44:42,-5.6522465,8.452024,1.7244141,0.23383123,0.89861,0.9732243,10.313011767168163,1.3451180137280152,stand
19/08/2020, 20:44:42,-5.6522465,8.452024,1.7244141,0.2900308,0.8827275,0.8730424,10.313011767168163,1.2749622564615288,stand
19/08/2020, 20:44:42,-5.50136,8.365804,1.4034815,0.2900308,0.8827275,0.8730424,10.11045959968013,1.2749622564615288,stand
19/08/2020, 20:44:42,-5.50136,8.365804,1.4034815,0.3217958,0.7886543,0.8034038,10.11045959968013,1.1708910439974105,stand
19/08/2020, 20:44:42,-5.134922,8.286768,1.5304176,0.3217958,0.7886543,0.8034038,9.868136873707,1.1708910439974105,stand
19/08/2020, 20:44:42,-5.134922,8.286768,1.5304176,0.37188673,0.7507807,0.7007785,9.868136873707,1.092273723095796,stand
19/08/2020, 20:44:42,-5.134922,8.286768,1.5304176,0.4109821,0.70679843,0.6335833,9.868136873707,1.0343587976169542,stand
19/08/2020, 20:44:43,-2.1531227,9.266331,-2.0213966,0.23383123,0.12281146,0.18520837,9.7255779551535,0.3225861678476956,stand
19/08/2020, 20:44:43,-2.1124072,9.273516,-2.0190015,0.23383123,0.12281146,0.18520837,9.722999777047043,0.3225861678476956,stand
19/08/2020, 20:44:43,-2.1124072,9.273516,-2.0190015,0.23871815,0.11181589,0.17299107,9.722999777047043,0.31530153690851614,stand
19/08/2020, 20:44:43,-2.0932472,9.275911,-1.9830762,0.23871815,0.11181589,0.17299107,9.71374315256859,0.31530153690851614,stand
19/08/2020, 20:44:43,-2.0932472,9.275911,-1.9830762,0.2607093,0.12403319,0.15955204,9.71374315256859,0.3298642398120716,stand
19/08/2020, 20:44:43,-2.076482,9.295072,-2.0309765,0.2607093,0.12403319,0.15955204,9.7383263192642,0.3298642398120716,stand
19/08/2020, 20:44:43,-2.076482,9.295072,-2.0309765,0.2851439,0.12769838,0.16199549,9.7383263192642,0.3519324696409466,stand
19/08/2020, 20:44:43,-2.1028273,9.251961,-2.0812721,0.2851439,0.12769838,0.16199549,9.713513996398053,0.3519324696409466,stand
19/08/2020, 20:44:43,-2.1028273,9.251961,-2.0812721,0.280257,0.120368004,0.18154317,9.713513996398053,0.3549512050718801,stand
19/08/2020, 20:44:43,-2.0333717,9.278306,-2.2106032,0.280257,0.120368004,0.18154317,9.752349945321859,0.3549512050718801,stand
19/08/2020, 20:44:43,-2.0333717,9.278306,-2.2106032,0.25093547,0.12525491,0.19620393,9.752349945321859,0.34227676544496655,stand
19/08/2020, 20:44:43,-1.9854712,9.352551,-2.2417383,0.25093547,0.12525491,0.19620393,9.820270138275315,0.34227676544496655,stand
19/08/2020, 20:44:43,-1.9854712,9.352551,-2.2417383,0.23627469,0.13747221,0.1949822,9.820270138275315,0.33577134582826046,stand
19/08/2020, 20:44:43,-2.0070264,9.378897,-2.3375392,0.23627469,0.13747221,0.1949822,9.871977925289153,0.33577134582826046,stand
19/08/2020, 20:44:43,-2.0070264,9.378897,-2.3375392,0.2118401,0.1533547,0.1827649,9.871977925289153,0.31905626475312604,stand
19/08/2020, 20:44:43,-1.9711012,9.438772,-2.2513185,0.2118401,0.1533547,0.1827649,9.901721833051973,0.31905626475312604,stand
19/08/2020, 20:44:43,-1.9711012,9.438772,-2.2513185,0.1874055,0.16190681,0.17299107,9.901721833051973,0.3020936017876592,stand
19/08/2020, 20:44:43,-1.9040406,9.438772,-2.3902297,0.1874055,0.16190681,0.17299107,9.921138503830203,0.3020936017876592,stand
19/08/2020, 20:44:43,-1.9040406,9.438772,-2.3902297,0.17030126,0.15579817,0.16199549,9.921138503830203,0.28198958279357045,stand
19/08/2020, 20:44:43,-1.9567311,9.457932,-2.323169,0.17030126,0.15579817,0.16199549,9.933700083183968,0.28198958279357045,stand
19/08/2020, 20:44:43,-1.9567311,9.457932,-2.323169,0.1629709,0.1411374,0.14366955,9.933700083183968,0.25907570361984816,stand
19/08/2020, 20:44:43,-1.9950514,9.417217,-2.44292,0.1629709,0.1411374,0.14366955,9.931367923071944,0.25907570361984816,stand
19/08/2020, 20:44:43,-1.9950514,9.417217,-2.44292,0.16541436,0.11792454,0.12656532,9.931367923071944,0.23934679810735024,stand
19/08/2020, 20:44:43,-1.954336,9.266331,-2.4908204,0.16541436,0.11792454,0.12656532,9.792267392351036,0.23934679810735024,stand
19/08/2020, 20:44:43,-1.954336,9.266331,-2.4908204,0.17396647,0.086159565,0.14244781,9.792267392351036,0.2407886669859753,stand
19/08/2020, 20:44:43,-1.9663111,9.254355,-2.5099807,0.17396647,0.086159565,0.14244781,9.788231544739013,0.2407886669859753,stand
19/08/2020, 20:44:43,-1.9663111,9.254355,-2.5099807,0.171523,0.047064196,0.17543451,9.788231544739013,0.24982483613877368,stand
19/08/2020, 20:44:43,-1.949546,9.237591,-2.4836354,0.171523,0.047064196,0.17543451,9.762287542017104,0.24982483613877368,stand
19/08/2020, 20:44:43,-1.949546,9.237591,-2.4836354,0.17763165,0.022629598,0.18520837,9.762287542017104,0.25761839821434146,stand
19/08/2020, 20:44:43,-1.8824854,9.342972,-2.3782544,0.17763165,0.022629598,0.18520837,9.822981593525546,0.25761839821434146,stand
19/08/2020, 20:44:44,-1.8274,9.271121,-2.7446926,0.018806746,-0.0030267325,0.0043923203,9.840041309861805,0.019548587947919773,stand
19/08/2020, 20:44:44,-1.83219,9.220825,-2.6776319,0.018806746,-0.0030267325,0.0043923203,9.774980816571055,0.019548587947919773,stand
19/08/2020, 20:44:44,-1.83219,9.220825,-2.6776319,0.020028476,0.005525378,-0.0029380603,9.774980816571055,0.02098337052861688,stand
19/08/2020, 20:44:44,-1.8657203,9.2184305,-2.7183473,0.020028476,0.005525378,-0.0029380603,9.790290367117237,0.02098337052861688,stand
19/08/2020, 20:44:44,-1.8657203,9.2184305,-2.7183473,0.022471935,0.0030819178,-0.00904671,9.790290367117237,0.024419848963399094,stand
19/08/2020, 20:44:44,-1.8920655,9.244776,-2.7422974,0.022471935,0.0030819178,-0.00904671,9.826799383196759,0.024419848963399094,stand
19/08/2020, 20:44:44,-1.8920655,9.244776,-2.7422974,0.022471935,-0.0042484626,-0.01149017,9.826799383196759,0.02559416499836721,stand
19/08/2020, 20:44:44,-1.9184108,9.283096,-2.7734327,0.022471935,-0.0042484626,-0.01149017,9.876644480564831,0.02559416499836721,stand
19/08/2020, 20:44:44,-1.9184108,9.283096,-2.7734327,0.016363285,-0.007913653,-0.0127119,9.876644480564831,0.022180518961718534,stand
19/08/2020, 20:44:44,-1.9040406,9.254355,-2.7159522,0.016363285,-0.007913653,-0.0127119,9.830811821598846,0.022180518961718534,stand
19/08/2020, 20:44:44,-1.9040406,9.254355,-2.7159522,0.017585015,-0.014022303,-0.0102684405,9.830811821598846,0.024724453397037553,stand
19/08/2020, 20:44:44,-1.951941,9.235196,-2.7566676,0.017585015,-0.014022303,-0.0102684405,9.833521104361818,0.024724453397037553,stand
19/08/2020, 20:44:44,-1.951941,9.235196,-2.7566676,0.015141555,-0.014022303,-0.007824981,9.833521104361818,0.022070840254234107,stand
19/08/2020, 20:44:44,-1.8848804,9.189691,-2.7135572,0.015141555,-0.014022303,-0.007824981,9.765581409325959,0.022070840254234107,stand
19/08/2020, 20:44:44,-1.8848804,9.189691,-2.7135572,0.012698095,-0.009135383,-0.0017163303,9.765581409325959,0.01573666545371915,stand
19/08/2020, 20:44:44,-1.8681153,9.129815,-2.6967921,0.012698095,-0.009135383,-0.0017163303,9.701343533512302,0.01573666545371915,stand
19/08/2020, 20:44:44,-1.8681153,9.129815,-2.6967921,0.0078111757,-5.832724E-4,0.0056140497,9.701343533512302,0.009637023726543242,stand
19/08/2020, 20:44:44,-1.9351759,9.137,-2.7758276,0.0078111757,-5.832724E-4,0.0056140497,9.743453977034765,0.009637023726543242,stand
19/08/2020, 20:44:44,-1.9351759,9.137,-2.7758276,0.002924255,-5.832724E-4,0.01660962,9.743453977034765,0.016875158108728958,stand
19/08/2020, 20:44:44,-1.9447559,9.134604,-2.7566676,0.002924255,-5.832724E-4,0.01660962,9.737673768531529,0.016875158108728958,stand
19/08/2020, 20:44:44,-1.9447559,9.134604,-2.7566676,0.0041459855,-0.012800573,0.022718271,9.737673768531529,0.026403858095123987,stand
19/08/2020, 20:44:44,-1.949546,9.110655,-2.806963,0.0041459855,-0.012800573,0.022718271,9.730560213689351,0.026403858095123987,stand
19/08/2020, 20:44:44,-1.949546,9.110655,-2.806963,0.012698095,-0.021352682,0.02760519,9.730560213689351,0.037137921683824474,stand
19/08/2020, 20:44:44,-1.8992506,9.15137,-2.806963,0.012698095,-0.021352682,0.02760519,9.75877901200561,0.037137921683824474,stand
19/08/2020, 20:44:44,-1.8992506,9.15137,-2.806963,0.017585015,-0.025017872,0.02882692,9.75877901200561,0.04202520704096856,stand
19/08/2020, 20:44:44,-1.8920655,9.196876,-2.792593,0.017585015,-0.025017872,0.02882692,9.795968962706947,0.04202520704096856,stand
19/08/2020, 20:44:44,-1.8920655,9.196876,-2.792593,0.0041459855,-0.023796143,0.038600758,9.795968962706947,0.045535306236875996,stand
19/08/2020, 20:44:44,-1.829795,9.137,-2.7542725,0.0041459855,-0.023796143,0.038600758,9.71694072614772,0.045535306236875996,stand
19/08/2020, 20:44:44,-1.829795,9.137,-2.7542725,-0.008071315,-0.018909222,0.0483746,9.71694072614772,0.0525624083397136,stand
19/08/2020, 20:44:44,-1.8633252,9.201666,-2.7422974,-0.008071315,-0.018909222,0.0483746,9.780737751795467,0.0525624083397136,stand
19/08/2020, 20:44:45,-1.7148341,9.261541,-2.6560767,0.005367715,0.0043036477,0.02394,9.786293871032845,0.02490898190119044,stand
19/08/2020, 20:44:45,-1.6262183,9.220825,-2.6273365,0.005367715,0.0043036477,0.02394,9.724767369891168,0.02490898190119044,stand
19/08/2020, 20:44:45,-1.6262183,9.220825,-2.6273365,0.0078111757,-0.0030267325,0.02149654,9.724767369891168,0.023071124893717883,stand
19/08/2020, 20:44:45,-1.6334034,9.239985,-2.5890162,0.0078111757,-0.0030267325,0.02149654,9.733876053512837,0.023071124893717883,stand
19/08/2020, 20:44:45,-1.6334034,9.239985,-2.5890162,0.011476366,-5.832724E-4,0.022718271,9.733876053512837,0.02545912465098318,stand
19/08/2020, 20:44:45,-1.5567628,9.251961,-2.6393116,0.011476366,-5.832724E-4,0.022718271,9.746191755260464,0.02545912465098318,stand
19/08/2020, 20:44:45,-1.5567628,9.251961,-2.6393116,0.011476366,0.005525378,0.02027481,9.746191755260464,0.02394378241156284,stand
19/08/2020, 20:44:45,-1.477727,9.268726,-2.6153615,0.011476366,0.005525378,0.02027481,9.743360862978122,0.02394378241156284,stand
19/08/2020, 20:44:45,-1.477727,9.268726,-2.6153615,0.012698095,0.005525378,0.01660962,9.743360862978122,0.021625237875796816,stand
19/08/2020, 20:44:45,-1.4298267,9.285491,-2.6896071,0.012698095,0.005525378,0.01660962,9.77234536851977,0.021625237875796816,stand
19/08/2020, 20:44:45,-1.4298267,9.285491,-2.6896071,0.013919826,0.0043036477,0.00683578,9.77234536851977,0.01609381308147881,stand
19/08/2020, 20:44:45,-1.4298267,9.333391,-2.5866213,0.013919826,0.0043036477,0.00683578,9.79015859234455,0.01609381308147881,stand
19/08/2020, 20:44:45,-1.4298267,9.333391,-2.5866213,0.020028476,-5.832724E-4,-0.00904671,9.79015859234455,0.021984608434882865,stand
19/08/2020, 20:44:45,-1.3795313,9.340576,-2.6536818,0.020028476,-5.832724E-4,-0.00904671,9.807726372047908,0.021984608434882865,stand
19/08/2020, 20:44:45,-1.3795313,9.340576,-2.6536818,0.026137125,-0.010357113,-0.024929201,9.807726372047908,0.03757504685199208,stand
19/08/2020, 20:44:45,-1.3627661,9.3309965,-2.6656568,0.026137125,-0.010357113,-0.024929201,9.79950782974285,0.03757504685199208,stand
19/08/2020, 20:44:45,-1.3627661,9.3309965,-2.6656568,0.035910964,-0.029904792,-0.039589964,9.79950782974285,0.061247523736526324,stand
19/08/2020, 20:44:45,-1.336421,9.364527,-2.6369166,0.035910964,-0.029904792,-0.039589964,9.820066787078666,0.061247523736526324,stand
19/08/2020, 20:44:45,-1.336421,9.364527,-2.6369166,0.050571725,-0.053117666,-0.04814207,9.820066787078666,0.0877305243802586,stand
19/08/2020, 20:44:45,-1.3723463,9.357342,-2.6608667,0.050571725,-0.053117666,-0.04814207,9.824631852856886,0.0877305243802586,stand
19/08/2020, 20:44:45,-1.3723463,9.357342,-2.6608667,0.054236915,-0.076330535,-0.053028993,9.824631852856886,0.10761072282412731,stand
19/08/2020, 20:44:45,-1.4513819,9.328602,-2.7327175,0.054236915,-0.076330535,-0.053028993,9.828380676927274,0.10761072282412731,stand
19/08/2020, 20:44:45,-1.4513819,9.328602,-2.7327175,0.072562866,-0.12153454,-0.06402456,9.828380676927274,0.15535494369029423,stand
19/08/2020, 20:44:45,-1.4130616,9.376502,-2.6297317,0.072562866,-0.12153454,-0.06402456,9.84027551277178,0.15535494369029423,stand
19/08/2020, 20:44:45,-1.4130616,9.376502,-2.6297317,0.07744978,-0.13130839,-0.0774636,9.84027551277178,0.17099991693025804,stand
19/08/2020, 20:44:45,-1.4513819,9.400452,-2.5890162,0.07744978,-0.13130839,-0.0774636,9.857890533832984,0.17099991693025804,stand
19/08/2020, 20:44:45,-1.4513819,9.400452,-2.5890162,0.06645422,-0.119091086,-0.09090263,9.857890533832984,0.16389672732779734,stand
19/08/2020, 20:44:45,-1.5352076,9.347761,-2.6009912,0.06645422,-0.119091086,-0.09090263,9.823576565491766,0.16389672732779734,stand
19/08/2020, 20:44:45,-1.5352076,9.347761,-2.6009912,0.045684807,-0.10687378,-0.10189819,9.823576565491766,0.15457149917358115,stand
19/08/2020, 20:44:45,-1.5423926,9.323812,-2.6249416,0.045684807,-0.10687378,-0.10189819,9.808300299868042,0.15457149917358115,stand
19/08/2020, 20:44:46,-2.2513185,9.077125,-2.8524685,0.0017025247,-0.0042484626,-0.013933631,9.777484451500989,0.01466608633594397,stand
19/08/2020, 20:44:46,-2.2489235,9.129815,-2.912344,0.0017025247,-0.0042484626,-0.013933631,9.843420560478325,0.01466608633594397,stand
19/08/2020, 20:44:46,-2.2489235,9.129815,-2.912344,-0.0044061244,-0.0066919224,-0.01515536,9.843420560478325,0.01714294891543219,stand
19/08/2020, 20:44:46,-2.2249732,9.12263,-2.8644435,-0.0044061244,-0.0066919224,-0.01515536,9.81722582197419,0.01714294891543219,stand
19/08/2020, 20:44:46,-2.2249732,9.12263,-2.8644435,-0.003184395,-0.014022303,-0.0102684405,9.81722582197419,0.017669358133204263,stand
19/08/2020, 20:44:46,-2.2201831,9.108259,-2.792593,-0.003184395,-0.014022303,-0.0102684405,9.782033249736994,0.017669358133204263,stand
19/08/2020, 20:44:46,-2.2201831,9.108259,-2.792593,-7.4093416E-4,-0.009135383,-0.0066032503,9.782033249736994,0.011296332305828915,stand
19/08/2020, 20:44:46,-2.2201831,9.060359,-2.8309133,-7.4093416E-4,-0.009135383,-0.0066032503,9.748506989317379,0.011296332305828915,stand
19/08/2020, 20:44:46,-2.2201831,9.060359,-2.8309133,0.0065894453,6.384576E-4,-0.0102684405,9.748506989317379,0.012217581060178296,stand
19/08/2020, 20:44:46,-2.1650977,9.096285,-2.787803,0.0065894453,6.384576E-4,-0.0102684405,9.757145672827589,0.012217581060178296,stand
19/08/2020, 20:44:46,-2.1650977,9.096285,-2.787803,0.0078111757,0.0043036477,-0.016377091,9.757145672827589,0.018647921370336933,stand
19/08/2020, 20:44:46,-2.1363575,9.134604,-2.7854078,0.0078111757,0.0043036477,-0.016377091,9.78588363947282,0.018647921370336933,stand
19/08/2020, 20:44:46,-2.1363575,9.134604,-2.7854078,0.002924255,0.009190568,-0.02370747,9.78588363947282,0.02559417773713338,stand
19/08/2020, 20:44:46,-2.1411476,9.16095,-2.8476784,0.002924255,0.009190568,-0.02370747,9.829383756781008,0.02559417773713338,stand
19/08/2020, 20:44:46,-2.1411476,9.16095,-2.8476784,-0.0019626655,0.007968837,-0.02737266,9.829383756781008,0.028576510405664425,stand
19/08/2020, 20:44:46,-2.193838,9.172925,-2.7830129,-0.0019626655,0.007968837,-0.02737266,9.833648266939607,0.028576510405664425,stand
19/08/2020, 20:44:46,-2.193838,9.172925,-2.7830129,-0.0019626655,0.009190568,-0.028594391,9.833648266939607,0.030099133083321454,stand
19/08/2020, 20:44:46,-2.1579127,9.108259,-2.7614577,-0.0019626655,0.009190568,-0.028594391,9.759232631535797,0.030099133083321454,stand
19/08/2020, 20:44:46,-2.1579127,9.108259,-2.7614577,-7.4093416E-4,0.017742679,-0.02615093,9.759232631535797,0.03161048559679464,stand
19/08/2020, 20:44:46,-2.1818628,9.096285,-2.7758276,-7.4093416E-4,0.017742679,-0.02615093,9.757466008395804,0.03161048559679464,stand
19/08/2020, 20:44:46,-2.1818628,9.096285,-2.7758276,0.005367715,0.022629598,-0.021264011,9.757466008395804,0.03151300115160866,stand
19/08/2020, 20:44:46,-2.189048,9.077125,-2.8333082,0.005367715,0.022629598,-0.021264011,9.75775372547683,0.03151300115160866,stand
19/08/2020, 20:44:46,-2.189048,9.077125,-2.8333082,0.0065894453,0.021407869,-0.02004228,9.75775372547683,0.030056789732004933,stand
19/08/2020, 20:44:46,-2.2129982,9.09868,-2.8668385,0.0065894453,0.021407869,-0.02004228,9.792961399181351,0.030056789732004933,stand
19/08/2020, 20:44:46,-2.2129982,9.09868,-2.8668385,0.0102546355,0.011634028,-0.01759882,9.792961399181351,0.0234569103232671,stand
19/08/2020, 20:44:46,-2.2249732,9.0891,-2.8333082,0.0102546355,0.011634028,-0.01759882,9.777007615802155,0.0234569103232671,stand
19/08/2020, 20:44:46,-2.2249732,9.0891,-2.8333082,0.016363285,-0.0042484626,-0.013933631,9.777007615802155,0.021907820743943488,stand
19/08/2020, 20:44:46,-2.2489235,9.067544,-2.8764186,0.016363285,-0.0042484626,-0.013933631,9.775059840701422,0.021907820743943488,stand
19/08/2020, 20:44:46,-2.2489235,9.067544,-2.8764186,0.009032905,-0.010357113,-0.013933631,9.775059840701422,0.019570621345602782,stand
19/08/2020, 20:44:46,-2.2225783,9.079519,-2.8859987,0.009032905,-0.010357113,-0.013933631,9.78297056604737,0.019570621345602782,stand
19/08/2020, 20:44:47,-2.203418,9.101074,-2.8692336,0.002924255,0.0030819178,0.01050097,9.793727808604245,0.011327835721300326,stand
19/08/2020, 20:44:47,-2.203418,9.101074,-2.8692336,0.0041459855,0.0030819178,0.0080575105,9.793727808604245,0.00957135767523559,stand
19/08/2020, 20:44:47,-2.203418,9.1130495,-2.912344,0.0041459855,0.0030819178,0.0080575105,9.817559255032732,0.00957135767523559,stand
19/08/2020, 20:44:47,-2.203418,9.1130495,-2.912344,-7.4093416E-4,0.0030819178,0.011722701,9.817559255032732,0.01214367784230461,stand
19/08/2020, 20:44:47,-2.1818628,9.072334,-2.8428884,-7.4093416E-4,0.0030819178,0.011722701,9.754475335742482,0.01214367784230461,stand
19/08/2020, 20:44:47,-2.1818628,9.072334,-2.8428884,-0.0056278557,6.384576E-4,0.02027481,9.754475335742482,0.021051088521581995,stand
19/08/2020, 20:44:47,-2.186653,9.096285,-2.8572583,-0.0056278557,6.384576E-4,0.02027481,9.782012797764985,0.021051088521581995,stand
19/08/2020, 20:44:47,-2.186653,9.096285,-2.8572583,-0.0019626655,0.0030819178,0.02760519,9.782012797764985,0.027845948286605048,stand
19/08/2020, 20:44:47,-2.1722827,9.060359,-2.7973828,-0.0019626655,0.0030819178,0.02760519,9.728014599424696,0.027845948286605048,stand
19/08/2020, 20:44:47,-2.1722827,9.060359,-2.7973828,0.0065894453,0.011634028,0.031270377,9.728014599424696,0.0340089383234,stand
19/08/2020, 20:44:47,-2.1770728,9.079519,-2.7590625,0.0065894453,0.011634028,0.031270377,9.736002365550892,0.0340089383234,stand
19/08/2020, 20:44:47,-2.1770728,9.079519,-2.7590625,0.011476366,0.022629598,0.03249211,9.736002365550892,0.041225511638614515,stand
19/08/2020, 20:44:47,-2.203418,9.06994,-2.8213332,0.011476366,0.022629598,0.03249211,9.75083465148537,0.041225511638614515,stand
19/08/2020, 20:44:47,-2.203418,9.06994,-2.8213332,0.0102546355,0.02873825,0.03737903,9.75083465148537,0.04825180207786726,stand
19/08/2020, 20:44:47,-2.186653,9.06994,-2.8213332,0.0102546355,0.02873825,0.03737903,9.74705988209999,0.04825180207786726,stand
19/08/2020, 20:44:47,-2.186653,9.06994,-2.8213332,0.012698095,0.0348469,0.0483746,9.74705988209999,0.060956131190389236,stand
19/08/2020, 20:44:47,-2.1698878,9.053174,-2.802173,0.012698095,0.0348469,0.0483746,9.722167749827387,0.060956131190389236,stand
19/08/2020, 20:44:47,-2.1698878,9.053174,-2.802173,0.034689236,0.04217728,0.05814844,9.722167749827387,0.0797715928221036,stand
19/08/2020, 20:44:47,-2.179468,9.093889,-2.8285182,0.034689236,0.04217728,0.05814844,9.769821737440349,0.0797715928221036,stand
19/08/2020, 20:44:47,-2.179468,9.093889,-2.8285182,0.040797886,0.032403436,0.05570498,9.769821737440349,0.07627250497999057,stand
19/08/2020, 20:44:47,-2.2489235,9.129815,-2.8572583,0.040797886,0.032403436,0.05570498,9.82726340267204,0.07627250497999057,stand
19/08/2020, 20:44:47,-2.2489235,9.129815,-2.8572583,0.026137125,0.015299217,0.04959633,9.82726340267204,0.05811205645792247,stand
19/08/2020, 20:44:47,-2.1507277,9.11784,-2.8428884,0.026137125,0.015299217,0.04959633,9.789925786744991,0.05811205645792247,stand
19/08/2020, 20:44:47,-2.1507277,9.11784,-2.8428884,0.022471935,0.018964408,0.045931138,9.789925786744991,0.054537198857434875,stand
19/08/2020, 20:44:47,-2.1770728,9.125025,-2.9099488,0.022471935,0.018964408,0.045931138,9.822093743463693,0.054537198857434875,stand
19/08/2020, 20:44:47,-2.1770728,9.125025,-2.9099488,0.027358856,0.0043036477,0.04959633,9.822093743463693,0.05680514208626285,stand
19/08/2020, 20:44:47,-2.1603076,9.0891,-2.8692336,0.027358856,0.0043036477,0.04959633,9.772981496202272,0.05680514208626285,stand
19/08/2020, 20:44:47,-2.1603076,9.0891,-2.8692336,0.035910964,-0.0066919224,0.04470941,9.772981496202272,0.057734829618207716,stand
19/08/2020, 20:44:47,-2.1459377,9.148975,-2.8931837,0.035910964,-0.0066919224,0.04470941,9.832563799139251,0.057734829618207716,stand
19/08/2020, 20:44:47,-2.1459377,9.148975,-2.8931837,0.035910964,6.384576E-4,0.0361573,9.832563799139251,0.05096425436807158,stand
19/08/2020, 20:44:48,-1.7292042,9.19448,-2.7542725,0.015141555,-0.08854783,0.045931138,9.752672725338034,0.10089427592197171,stand
19/08/2020, 20:44:48,-1.7172291,9.280701,-2.699187,0.015141555,-0.08854783,0.045931138,9.816613048031911,0.10089427592197171,stand
19/08/2020, 20:44:48,-1.7172291,9.280701,-2.699187,0.013919826,-0.06777842,0.0483746,9.816613048031911,0.08442617024788779,stand
19/08/2020, 20:44:48,-1.6142433,9.201666,-2.7470875,0.013919826,-0.06777842,0.0483746,9.737706397426821,0.08442617024788779,stand
19/08/2020, 20:44:48,-1.6142433,9.201666,-2.7470875,-0.011736505,-0.045787286,0.04348768,9.737706397426821,0.06422927173172856,stand
19/08/2020, 20:44:48,-1.587898,9.3381815,-2.7614577,-0.011736505,-0.045787286,0.04348768,9.866544596905491,0.06422927173172856,stand
19/08/2020, 20:44:48,-1.587898,9.3381815,-2.7614577,-0.052053593,0.007968837,0.034935568,9.866544596905491,0.06319472131804581,stand
19/08/2020, 20:44:48,-1.5304176,9.295072,-2.6129665,-0.052053593,0.007968837,0.034935568,9.775895259384521,0.06319472131804581,stand
19/08/2020, 20:44:48,-1.5304176,9.295072,-2.6129665,-0.067936085,0.06783361,0.03249211,9.775895259384521,0.10135308293670854,stand
19/08/2020, 20:44:48,-1.6142433,9.266331,-2.6225464,-0.067936085,0.06783361,0.03249211,9.764651357103117,0.10135308293670854,stand
19/08/2020, 20:44:48,-1.6142433,9.266331,-2.6225464,-0.0642709,0.100820325,0.02882692,9.764651357103117,0.12298974652864487,stand
19/08/2020, 20:44:48,-1.6357985,9.263936,-2.6249416,-0.0642709,0.100820325,0.02882692,9.766609745729463,0.12298974652864487,stand
19/08/2020, 20:44:48,-1.6357985,9.263936,-2.6249416,-0.048388407,0.09715513,0.02027481,9.766609745729463,0.11041569360564539,stand
19/08/2020, 20:44:48,-1.6693287,9.254355,-2.7327175,-0.048388407,0.09715513,0.02027481,9.792726776608294,0.11041569360564539,stand
19/08/2020, 20:44:48,-1.6693287,9.254355,-2.7327175,-0.020288616,0.07638572,0.00927924,9.792726776608294,0.07957707401401878,stand
19/08/2020, 20:44:48,-1.6789087,9.235196,-2.7063723,-0.020288616,0.07638572,0.00927924,9.768932004773186,0.07957707401401878,stand
19/08/2020, 20:44:48,-1.6789087,9.235196,-2.7063723,-0.009293046,0.051951118,-0.0041597905,9.768932004773186,0.05293942953912344,stand
19/08/2020, 20:44:48,-1.7818946,9.187295,-2.7854078,-0.009293046,0.051951118,-0.0041597905,9.7642221109365,0.05293942953912344,stand
19/08/2020, 20:44:48,-1.7818946,9.187295,-2.7854078,-0.011736505,0.017742679,-0.0029380603,9.7642221109365,0.0214751107795511,stand
19/08/2020, 20:44:48,-1.7172291,9.211246,-2.7375073,-0.011736505,0.017742679,-0.0029380603,9.761652865756247,0.0214751107795511,stand
19/08/2020, 20:44:48,-1.7172291,9.211246,-2.7375073,-0.020288616,0.015299217,0.011722701,9.761652865756247,0.027984204531158647,stand
19/08/2020, 20:44:48,-1.6765138,9.21364,-2.7422974,-0.020288616,0.015299217,0.011722701,9.758179110711465,0.027984204531158647,stand
19/08/2020, 20:44:48,-1.6765138,9.21364,-2.7422974,-0.027618997,0.01652095,0.02882692,9.758179110711465,0.04320581069242149,stand
19/08/2020, 20:44:48,-1.7028589,9.223221,-2.7231374,-0.027618997,0.01652095,0.02882692,9.76642248172504,0.04320581069242149,stand
19/08/2020, 20:44:48,-1.7028589,9.223221,-2.7231374,-0.033727646,0.025073059,0.030048652,9.76642248172504,0.051663660760661125,stand
19/08/2020, 20:44:48,-1.6597486,9.263936,-2.6656568,-0.033727646,0.025073059,0.030048652,9.781666650951587,0.051663660760661125,stand
19/08/2020, 20:44:48,-1.6597486,9.263936,-2.6656568,-0.030062456,0.043399006,0.02760519,9.781666650951587,0.059575763006589094,stand
19/08/2020, 20:44:48,-1.6334034,9.254355,-2.6536818,-0.030062456,0.043399006,0.02760519,9.76489262752201,0.059575763006589094,stand
19/08/2020, 20:44:48,-1.6334034,9.254355,-2.6536818,-0.037392836,0.061724957,0.02394,9.76489262752201,0.076034979765821,stand
19/08/2020, 20:44:48,-1.7339942,9.256751,-2.687212,-0.037392836,0.061724957,0.02394,9.7936348982617,0.076034979765821,stand
19/08/2020, 20:44:49,-1.5016773,9.244776,-2.7806177,0.035910964,-0.16307338,0.11923494,9.769992251004268,0.2051816137177473,stand
19/08/2020, 20:44:49,-1.3124708,9.256751,-2.7710378,0.035910964,-0.16307338,0.11923494,9.751341977565753,0.2051816137177473,stand
19/08/2020, 20:44:49,-1.3124708,9.256751,-2.7710378,0.027358856,-0.19850354,0.13023052,9.751341977565753,0.23898148324728782,stand
19/08/2020, 20:44:49,-1.2813355,9.3309965,-2.7255323,0.027358856,-0.19850354,0.13023052,9.804990709272166,0.23898148324728782,stand
19/08/2020, 20:44:49,-1.2813355,9.3309965,-2.7255323,0.028580585,-0.23515545,0.12900878,9.804990709272166,0.26973728203471087,stand
19/08/2020, 20:44:49,-1.2502003,9.390872,-2.680027,0.028580585,-0.23515545,0.12900878,9.845507728622898,0.26973728203471087,stand
19/08/2020, 20:44:49,-1.2502003,9.390872,-2.680027,0.023693666,-0.25592485,0.11312629,9.845507728622898,0.2808139546697089,stand
19/08/2020, 20:44:49,-1.1927198,9.362132,-2.703977,0.023693666,-0.25592485,0.11312629,9.817514436191084,0.2808139546697089,stand
19/08/2020, 20:44:49,-1.1927198,9.362132,-2.703977,0.026137125,-0.27913773,0.09846553,9.817514436191084,0.2971472411758651,stand
19/08/2020, 20:44:49,-1.1615845,9.369317,-2.684817,0.026137125,-0.27913773,0.09846553,9.815376882475503,0.2971472411758651,stand
19/08/2020, 20:44:49,-1.1615845,9.369317,-2.684817,0.035910964,-0.31334618,0.08746996,9.815376882475503,0.3273017227294853,stand
19/08/2020, 20:44:49,-1.1424243,9.386082,-2.6488917,0.035910964,-0.31334618,0.08746996,9.819383389566296,0.3273017227294853,stand
19/08/2020, 20:44:49,-1.1424243,9.386082,-2.6488917,0.043241344,-0.34388942,0.08746996,9.819383389566296,0.3574643161319107,stand
19/08/2020, 20:44:49,-1.0825489,9.426797,-2.5914114,0.043241344,-0.34388942,0.08746996,9.836250549118159,0.3574643161319107,stand
19/08/2020, 20:44:49,-1.0825489,9.426797,-2.5914114,0.040797886,-0.35610673,0.08869169,9.836250549118159,0.36924610373589783,stand
19/08/2020, 20:44:49,-1.089734,9.369317,-2.572251,0.040797886,-0.35610673,0.08869169,9.776916579283014,0.36924610373589783,stand
19/08/2020, 20:44:49,-1.089734,9.369317,-2.572251,0.048128266,-0.36099362,0.08258304,9.776916579283014,0.3734336418282024,stand
19/08/2020, 20:44:49,-1.0514137,9.429193,-2.5530908,0.048128266,-0.36099362,0.08258304,9.825142002846961,0.3734336418282024,stand
19/08/2020, 20:44:49,-1.0514137,9.429193,-2.5530908,0.048128266,-0.34633288,0.07403093,9.825142002846961,0.3574120459932444,stand
19/08/2020, 20:44:49,-1.0562036,9.410032,-2.548301,0.048128266,-0.34633288,0.07403093,9.80602423571581,0.3574120459932444,stand
19/08/2020, 20:44:49,-1.0562036,9.410032,-2.548301,0.048128266,-0.31212443,0.05814844,9.80602423571581,0.32112183289052126,stand
19/08/2020, 20:44:49,-1.1280543,9.426797,-2.5291407,0.048128266,-0.31212443,0.05814844,9.825149321670741,0.32112183289052126,stand
19/08/2020, 20:44:49,-1.1280543,9.426797,-2.5291407,0.039576158,-0.2864681,0.03371384,9.825149321670741,0.29114749025516634,stand
19/08/2020, 20:44:49,-1.1687696,9.354947,-2.550696,0.039576158,-0.2864681,0.03371384,9.766632325798975,0.29114749025516634,stand
19/08/2020, 20:44:49,-1.1687696,9.354947,-2.550696,0.034689236,-0.2620335,0.011722701,9.766632325798975,0.2645795077783042,stand
19/08/2020, 20:44:49,-1.1927198,9.407638,-2.5051906,0.034689236,-0.2620335,0.011722701,9.808272309598923,0.2645795077783042,stand
19/08/2020, 20:44:49,-1.1927198,9.407638,-2.5051906,0.037132695,-0.25470313,-0.0041597905,9.808272309598923,0.257429267061105,stand
19/08/2020, 20:44:49,-1.2286451,9.393267,-2.550696,0.037132695,-0.25470313,-0.0041597905,9.810661404004255,0.257429267061105,stand
19/08/2020, 20:44:49,-1.2286451,9.393267,-2.550696,0.037132695,-0.25103793,-0.021264011,9.810661404004255,0.2546586642100603,stand
19/08/2020, 20:44:49,-1.2837305,9.323812,-2.548301,0.037132695,-0.25103793,-0.021264011,9.75065451001203,0.2546586642100603,stand
19/08/2020, 20:44:50,-1.9711012,9.139395,-3.027305,0.099440925,0.047064196,-0.07868532,9.827428517521623,0.1352586996540784,stand
19/08/2020, 20:44:50,-2.0118165,9.050779,-3.0895753,0.099440925,0.047064196,-0.07868532,9.772895570010196,0.1352586996540784,stand
19/08/2020, 20:44:50,-2.0118165,9.050779,-3.0895753,0.093332276,0.050729387,-0.076241866,9.772895570010196,0.1307562864475109,stand
19/08/2020, 20:44:50,-1.9902613,9.093889,-3.0608351,0.093332276,0.050729387,-0.076241866,9.799422085131015,0.1307562864475109,stand
19/08/2020, 20:44:50,-1.9902613,9.093889,-3.0608351,0.086001895,0.05317285,-0.068911485,9.799422085131015,0.12236204765675486,stand
19/08/2020, 20:44:50,-1.9878663,9.10347,-3.1015503,0.086001895,0.05317285,-0.068911485,9.820610477843102,0.12236204765675486,stand
19/08/2020, 20:44:50,-1.9878663,9.10347,-3.1015503,0.07989325,0.055616308,-0.07013322,9.820610477843102,0.1199782171936235,stand
19/08/2020, 20:44:50,-2.047742,9.096285,-3.1398706,0.07989325,0.055616308,-0.07013322,9.838416177210107,0.1199782171936235,stand
19/08/2020, 20:44:50,-2.047742,9.096285,-3.1398706,0.08355844,0.061724957,-0.0737984,9.838416177210107,0.12742914722707846,stand
19/08/2020, 20:44:50,-2.066902,9.005274,-3.0943654,0.08355844,0.061724957,-0.0737984,9.74382558760654,0.12742914722707846,stand
19/08/2020, 20:44:50,-2.066902,9.005274,-3.0943654,0.09577574,0.06294669,-0.07013322,9.74382558760654,0.13436497381144868,stand
19/08/2020, 20:44:50,-2.095642,9.057964,-3.1470559,0.09577574,0.06294669,-0.07013322,9.815416144721144,0.13436497381144868,stand
19/08/2020, 20:44:50,-2.095642,9.057964,-3.1470559,0.08844536,0.054394577,-0.06280283,9.815416144721144,0.12134886333825953,stand
19/08/2020, 20:44:50,-2.1291726,9.002879,-3.2524366,0.08844536,0.054394577,-0.06280283,9.806301685547172,0.12134886333825953,stand
19/08/2020, 20:44:50,-2.1291726,9.002879,-3.2524366,0.055458646,0.04950766,-0.046920344,9.806301685547172,0.08791011569453075,stand
19/08/2020, 20:44:50,-2.1028273,9.012459,-3.2141163,0.055458646,0.04950766,-0.046920344,9.796777029053743,0.08791011569453075,stand
19/08/2020, 20:44:50,-2.1028273,9.012459,-3.2141163,0.027358856,0.051951118,-0.043255154,9.796777029053743,0.07292759421429877,stand
19/08/2020, 20:44:50,-2.066902,9.0891,-3.1398706,0.027358856,0.051951118,-0.043255154,9.835782018562304,0.07292759421429877,stand
19/08/2020, 20:44:50,-2.066902,9.0891,-3.1398706,0.039576158,0.065390155,-0.050585534,9.835782018562304,0.09165719231704911,stand
19/08/2020, 20:44:50,-2.064507,9.031619,-3.0823903,0.039576158,0.065390155,-0.050585534,9.763885612737397,0.09165719231704911,stand
19/08/2020, 20:44:50,-2.064507,9.031619,-3.0823903,0.06645422,0.0837161,-0.06280283,9.763885612737397,0.1239707383686408,stand
19/08/2020, 20:44:50,-2.1219873,8.988508,-3.046465,0.06645422,0.0837161,-0.06280283,9.725073721771162,0.1239707383686408,stand
19/08/2020, 20:44:50,-2.1219873,8.988508,-3.046465,0.08355844,0.09471167,-0.06524629,9.725073721771162,0.14215974002522153,stand
19/08/2020, 20:44:50,-2.1579127,8.974138,-3.1039455,0.08355844,0.09471167,-0.06524629,9.737875666220914,0.14215974002522153,stand
19/08/2020, 20:44:50,-2.1579127,8.974138,-3.1039455,0.09699747,0.08738129,-0.059137642,9.737875666220914,0.14332222239377296,stand
19/08/2020, 20:44:50,-2.1411476,8.974138,-3.1614258,0.09699747,0.08738129,-0.059137642,9.75265522216052,0.14332222239377296,stand
19/08/2020, 20:44:50,-2.1411476,8.974138,-3.1614258,0.10188439,0.07638572,-0.057915915,9.75265522216052,0.1398908862262212,stand
19/08/2020, 20:44:50,-2.1315675,8.976534,-3.2476466,0.10188439,0.07638572,-0.057915915,9.781050497426213,0.1398908862262212,stand
19/08/2020, 20:44:50,-2.1315675,8.976534,-3.2476466,0.11898861,0.07516399,-0.06280283,9.781050497426213,0.15411719645815772,stand
19/08/2020, 20:44:50,-2.1028273,9.0148535,-3.1255007,0.11898861,0.07516399,-0.06280283,9.770272279367338,0.15411719645815772,stand
19/08/2020, 20:44:51,-2.083667,8.866363,-3.7482057,0.043241344,0.010412297,-0.03103785,9.849015142090593,0.05423631578249648,stand
19/08/2020, 20:44:51,-2.1291726,8.792117,-3.7266505,0.043241344,0.010412297,-0.03103785,9.783793896560425,0.05423631578249648,stand
19/08/2020, 20:44:51,-2.1291726,8.792117,-3.7266505,0.034689236,6.384576E-4,-0.024929201,9.783793896560425,0.042722544708228165,stand
19/08/2020, 20:44:51,-2.1219873,8.744217,-3.7386258,0.034689236,6.384576E-4,-0.024929201,9.743791993792534,0.042722544708228165,stand
19/08/2020, 20:44:51,-2.1219873,8.744217,-3.7386258,0.037132695,-0.010357113,-0.013933631,9.743791993792534,0.04099088809479925,stand
19/08/2020, 20:44:51,-2.1028273,8.825647,-3.781736,0.037132695,-0.010357113,-0.013933631,9.829316370561122,0.04099088809479925,stand
19/08/2020, 20:44:51,-2.1028273,8.825647,-3.781736,0.038354427,-0.023796143,-0.013933631,9.829316370561122,0.04723837980997277,stand
19/08/2020, 20:44:51,-2.1076174,8.796907,-3.7290456,0.038354427,-0.023796143,-0.013933631,9.78434528022556,0.04723837980997277,stand
19/08/2020, 20:44:51,-2.1076174,8.796907,-3.7290456,0.043241344,-0.027461333,-0.021264011,9.78434528022556,0.055462571627328885,stand
19/08/2020, 20:44:51,-2.1004322,8.775352,-3.6691701,0.043241344,-0.027461333,-0.021264011,9.740709376093479,0.055462571627328885,stand
19/08/2020, 20:44:51,-2.1004322,8.775352,-3.6691701,0.054236915,-0.025017872,-0.028594391,9.740709376093479,0.06622066223937897,stand
19/08/2020, 20:44:51,-2.1411476,8.763377,-3.66438,0.054236915,-0.025017872,-0.028594391,9.736989996613586,0.06622066223937897,stand
19/08/2020, 20:44:51,-2.1411476,8.763377,-3.66438,0.060345568,-0.021352682,-0.021264011,9.736989996613586,0.06745133619102202,stand
19/08/2020, 20:44:51,-2.1818628,8.758587,-3.7410207,0.060345568,-0.021352682,-0.021264011,9.770803719994618,0.06745133619102202,stand
19/08/2020, 20:44:51,-2.1818628,8.758587,-3.7410207,0.044463076,-0.0054701925,-0.01149017,9.770803719994618,0.046248374148298355,stand
19/08/2020, 20:44:51,-2.1555176,8.729847,-3.7314405,0.044463076,-0.0054701925,-0.01149017,9.735508841877254,0.046248374148298355,stand
19/08/2020, 20:44:51,-2.1555176,8.729847,-3.7314405,0.035910964,0.0018601877,-0.01149017,9.735508841877254,0.037750253500114225,stand
19/08/2020, 20:44:51,-2.1627028,8.756192,-3.776946,0.035910964,0.0018601877,-0.01149017,9.778215939888524,0.037750253500114225,stand
19/08/2020, 20:44:51,-2.1627028,8.756192,-3.776946,0.049349997,-0.0018050025,-0.01149017,9.778215939888524,0.050702112987358605,stand
19/08/2020, 20:44:51,-2.1818628,8.720266,-3.755391,0.049349997,-0.0018050025,-0.01149017,9.74199831514927,0.050702112987358605,stand
19/08/2020, 20:44:51,-2.1818628,8.720266,-3.755391,0.0737846,-0.0054701925,-0.0102684405,9.74199831514927,0.07469625601449048,stand
19/08/2020, 20:44:51,-2.1722827,8.756192,-3.8248463,0.0737846,-0.0054701925,-0.0102684405,9.798936832825396,0.07469625601449048,stand
19/08/2020, 20:44:51,-2.1722827,8.756192,-3.8248463,0.07134114,-0.023796143,-0.0017163303,9.798936832825396,0.07522473504140885,stand
19/08/2020, 20:44:51,-2.198628,8.780142,-3.803291,0.07134114,-0.023796143,-0.0017163303,9.817834714290077,0.07522473504140885,stand
19/08/2020, 20:44:51,-2.198628,8.780142,-3.803291,0.045684807,-0.043343823,0.0031705897,9.817834714290077,0.06305427231363625,stand
19/08/2020, 20:44:51,-2.1770728,8.772957,-3.8176613,0.045684807,-0.043343823,0.0031705897,9.812184026340736,0.06305427231363625,stand
19/08/2020, 20:44:51,-2.1770728,8.772957,-3.8176613,0.028580585,-0.048230745,-0.0017163303,9.812184026340736,0.05608921830758232,stand
19/08/2020, 20:44:51,-2.1363575,8.782537,-3.7338357,0.028580585,-0.048230745,-0.0017163303,9.779494711858208,0.05608921830758232,stand
19/08/2020, 20:44:51,-2.1363575,8.782537,-3.7338357,0.023693666,-0.033569984,-0.00904671,9.779494711858208,0.0420734667050021,stand
19/08/2020, 20:44:51,-2.1459377,8.856783,-3.767366,0.023693666,-0.033569984,-0.00904671,9.861069828997975,0.0420734667050021,stand
19/08/2020, 20:44:52,-2.184258,8.768167,-3.7625759,-0.036171105,0.011634028,0.02516173,9.788192100120868,0.04557205371994262,stand
19/08/2020, 20:44:52,-2.191443,8.737032,-3.779341,-0.036171105,0.011634028,0.02516173,9.768396367815171,0.04557205371994262,stand
19/08/2020, 20:44:52,-2.191443,8.737032,-3.779341,-0.032505915,-5.832724E-4,0.038600758,9.768396367815171,0.050467744006400375,stand
19/08/2020, 20:44:52,-2.2177882,8.722662,-3.788921,-0.032505915,-5.832724E-4,0.038600758,9.765210683937863,0.050467744006400375,stand
19/08/2020, 20:44:52,-2.2177882,8.722662,-3.788921,-0.028840724,-0.014022303,0.04715287,9.765210683937863,0.05702460391680536,stand
19/08/2020, 20:44:52,-2.201023,8.746612,-3.7697608,-0.028840724,-0.014022303,0.04715287,9.775418862403335,0.05702460391680536,stand
19/08/2020, 20:44:52,-2.201023,8.746612,-3.7697608,-0.021510344,-0.026239602,0.05448325,9.775418862403335,0.06418439151019042,stand
19/08/2020, 20:44:52,-2.1531227,8.720266,-3.7601807,-0.021510344,-0.026239602,0.05448325,9.737450450057194,0.06418439151019042,stand
19/08/2020, 20:44:52,-2.1531227,8.720266,-3.7601807,-0.031284187,-0.026239602,0.06792228,9.737450450057194,0.07925057148163892,stand
19/08/2020, 20:44:52,-2.2345533,8.684341,-3.7985013,-0.031284187,-0.026239602,0.06792228,9.738563881327462,0.07925057148163892,stand
19/08/2020, 20:44:52,-2.2345533,8.684341,-3.7985013,-0.07893166,-0.0054701925,0.09113515,9.738563881327462,0.12068863137803834,stand
19/08/2020, 20:44:52,-2.1243825,8.641231,-3.7937112,-0.07893166,-0.0054701925,0.09113515,9.67347463630958,0.12068863137803834,stand
19/08/2020, 20:44:52,-2.1243825,8.641231,-3.7937112,-0.12657914,0.02751652,0.11679148,9.67347463630958,0.1744124022879144,stand
19/08/2020, 20:44:52,-2.066902,8.708291,-3.7985013,-0.12657914,0.02751652,0.11679148,9.722912547345146,0.1744124022879144,stand
19/08/2020, 20:44:52,-2.066902,8.708291,-3.7985013,-0.16323102,0.058059767,0.13633916,9.722912547345146,0.2204623931901741,stand
19/08/2020, 20:44:52,-2.201023,8.849598,-3.8631666,-0.16323102,0.058059767,0.13633916,9.90373374975887,0.2204623931901741,stand
19/08/2020, 20:44:52,-2.201023,8.849598,-3.8631666,-0.16445276,0.06661188,0.14000435,9.90373374975887,0.22601564460858833,stand
19/08/2020, 20:44:52,-2.059717,8.787327,-3.65959,-0.16445276,0.06661188,0.14000435,9.73920661027829,0.22601564460858833,stand
19/08/2020, 20:44:52,-2.059717,8.787327,-3.65959,-0.1620093,0.058059767,0.14000435,9.73920661027829,0.22185393378089785,stand
19/08/2020, 20:44:52,-2.1028273,8.849598,-3.8679566,-0.1620093,0.058059767,0.14000435,9.884247811180659,0.22185393378089785,stand
19/08/2020, 20:44:52,-2.1028273,8.849598,-3.8679566,-0.15467891,0.025073059,0.14000435,9.884247811180659,0.2101319639812373,stand
19/08/2020, 20:44:52,-2.0549269,8.849598,-3.7170706,-0.15467891,0.025073059,0.14000435,9.816044095369712,0.2101319639812373,stand
19/08/2020, 20:44:52,-2.0549269,8.849598,-3.7170706,-0.1620093,-0.021352682,0.14855646,9.816044095369712,0.22084376954817808,stand
19/08/2020, 20:44:52,-2.0501368,8.885523,-3.7649708,-0.1620093,-0.021352682,0.14855646,9.865626288802725,0.22084376954817808,stand
19/08/2020, 20:44:52,-2.0501368,8.885523,-3.7649708,-0.194996,-0.0030267325,0.14977819,9.865626288802725,0.24589856902794022,stand
19/08/2020, 20:44:52,-1.9591261,8.959768,-3.65959,-0.194996,-0.0030267325,0.14977819,9.874625159985357,0.24589856902794022,stand
19/08/2020, 20:44:52,-1.9591261,8.959768,-3.65959,-0.22431752,0.02385133,0.13878262,9.874625159985357,0.26485439738434924,stand
19/08/2020, 20:44:52,-1.9687061,8.919053,-3.784131,-0.22431752,0.02385133,0.13878262,9.886605051146692,0.26485439738434924,stand
19/08/2020, 20:44:52,-1.9687061,8.919053,-3.784131,-0.2646346,0.055616308,0.1338957,9.886605051146692,0.30174941144912504,stand
19/08/2020, 20:44:52,-1.9088306,8.978929,-3.7338357,-0.2646346,0.055616308,0.1338957,9.90991027350684,0.30174941144912504,stand
19/08/2020, 20:44:53,-7.692803,5.022356,-0.61552006,0.012698095,-0.2583683,-1.8587459,9.207721847500551,1.8766597637363918,stand
19/08/2020, 20:44:53,-7.6113725,5.0558863,-0.76880133,0.012698095,-0.2583683,-1.8587459,9.169843637632228,1.8766597637363918,stand
19/08/2020, 20:44:53,-7.6113725,5.0558863,-0.76880133,0.005367715,-0.28035945,-1.7781118,9.169843637632228,1.800086625731919,stand
19/08/2020, 20:44:53,-7.879615,5.199588,-0.8885523,0.005367715,-0.28035945,-1.7781118,9.48227655111912,1.800086625731919,stand
19/08/2020, 20:44:53,-7.879615,5.199588,-0.8885523,-0.19866121,-0.22171642,-1.7903291,9.48227655111912,1.8149112175737698,stand
19/08/2020, 20:44:53,-7.879615,5.1157618,-0.7185059,-0.19866121,-0.22171642,-1.7903291,9.422080395452143,1.8149112175737698,stand
19/08/2020, 20:44:53,-7.879615,5.1157618,-0.7185059,-0.43812028,-0.09465648,-1.8734066,9.422080395452143,1.926281832134825,stand
19/08/2020, 20:44:53,-8.047266,5.3313136,-0.5843848,-0.43812028,-0.09465648,-1.8734066,9.670723891270029,1.926281832134825,stand
19/08/2020, 20:44:53,-8.047266,5.3313136,-0.5843848,-0.6006104,0.09471167,-1.9845841,9.670723891270029,2.075638972897132,stand
19/08/2020, 20:44:53,-8.162227,5.0894165,-0.6011499,-0.6006104,0.09471167,-1.9845841,9.637711652580515,2.075638972897132,stand
19/08/2020, 20:44:53,-8.162227,5.0894165,-0.6011499,-0.6653621,0.1936718,-2.0688834,9.637711652580515,2.1818556586467737,stand
19/08/2020, 20:44:53,-8.023315,4.751719,-1.2358302,-0.6653621,0.1936718,-2.0688834,9.406364875596884,2.1818556586467737,stand
19/08/2020, 20:44:53,-8.023315,4.751719,-1.2358302,-0.6128277,0.16068509,-2.1140876,9.406364875596884,2.206976169772857,stand
19/08/2020, 20:44:53,-8.076006,4.598438,-1.5136524,-0.6128277,0.16068509,-2.1140876,9.415872007758754,2.206976169772857,stand
19/08/2020, 20:44:53,-8.076006,4.598438,-1.5136524,-0.5065372,0.0959334,-2.1397438,9.415872007758754,2.200974034828318,stand
19/08/2020, 20:44:53,-8.1071415,4.373306,-1.7986598,-0.5065372,0.0959334,-2.1397438,9.385452780580396,2.200974034828318,stand
19/08/2020, 20:44:53,-8.1071415,4.373306,-1.7986598,-0.37825552,-0.10565205,-2.121418,9.385452780580396,2.1574646969805826,stand
19/08/2020, 20:44:53,-8.241262,4.373306,-1.705254,-0.37825552,-0.10565205,-2.121418,9.484308156127204,2.1574646969805826,stand
19/08/2020, 20:44:53,-8.241262,4.373306,-1.705254,-0.20599157,-0.3475546,-2.0945399,9.484308156127204,2.133148854019503,stand
19/08/2020, 20:44:53,-8.322693,4.2032595,-1.3507911,-0.20599157,-0.3475546,-2.0945399,9.421212415047066,2.133148854019503,stand
19/08/2020, 20:44:53,-8.322693,4.2032595,-1.3507911,-0.036171105,-0.58823544,-2.0273447,9.421212415047066,2.1112687717820124,stand
19/08/2020, 20:44:53,-8.372989,3.8535867,-1.5040723,-0.036171105,-0.58823544,-2.0273447,9.339127558083753,2.1112687717820124,stand
19/08/2020, 20:44:53,-8.372989,3.8535867,-1.5040723,0.08722363,-0.766608,-1.9430453,9.339127558083753,2.090626858881051,stand
19/08/2020, 20:44:53,-8.495134,3.537444,-1.0442286,0.08722363,-0.766608,-1.9430453,9.261275928477026,2.090626858881051,stand
19/08/2020, 20:44:53,-8.495134,3.537444,-1.0442286,0.105549574,-0.857016,-1.8892891,9.261275928477026,2.077265182929656,stand
19/08/2020, 20:44:53,-8.399334,3.4847536,-1.0442286,0.105549574,-0.857016,-1.8892891,9.153290766402415,2.077265182929656,stand
19/08/2020, 20:44:53,-8.399334,3.4847536,-1.0442286,0.07134114,-0.9132156,-1.9063934,9.153290766402415,2.1150385525441076,stand
19/08/2020, 20:44:53,-8.557405,3.551814,-0.79754156,0.07134114,-0.9132156,-1.9063934,9.299496986426142,2.1150385525441076,stand
19/08/2020, 20:44:53,-8.557405,3.551814,-0.79754156,0.08111498,-0.96452826,-1.9894711,9.299496986426142,2.212439734512665,stand
19/08/2020, 20:44:53,-8.720266,3.4368532,-0.51971924,0.08111498,-0.96452826,-1.9894711,9.387497690263999,2.212439734512665,stand
19/08/2020, 20:44:54,-5.7001467,-8.713081,1.8681153,0.891122,-0.034791715,-1.2625417,10.57824719400634,1.5457426290728449,stand
19/08/2020, 20:44:54,-5.7001467,-8.713081,1.8681153,0.96442574,0.17412412,-1.3236282,10.57824719400634,1.646944990180996,stand
19/08/2020, 20:44:54,-5.7001467,-8.672366,2.2177882,0.96442574,0.17412412,-1.3236282,10.612266073263894,1.646944990180996,stand
19/08/2020, 20:44:54,-5.7001467,-8.672366,2.2177882,0.9741996,0.35005325,-1.3883799,10.612266073263894,1.731820129105051,stand
19/08/2020, 20:44:54,-5.381609,-8.375383,2.078877,0.9741996,0.35005325,-1.3883799,10.170078230244998,1.731820129105051,stand
19/08/2020, 20:44:54,-5.381609,-8.375383,2.078877,0.9424346,0.51865196,-1.4445795,10.170078230244998,1.801108750225941,stand
19/08/2020, 20:44:54,-5.3241286,-8.315508,1.8082398,0.9424346,0.51865196,-1.4445795,10.038114779764872,1.801108750225941,stand
19/08/2020, 20:44:54,-5.3241286,-8.315508,1.8082398,0.9094479,0.627386,-1.4580185,10.038114779764872,1.8293514493557872,stand
19/08/2020, 20:44:54,-5.0606766,-8.49274,1.9687061,0.9094479,0.627386,-1.4580185,10.080321346689928,1.8293514493557872,stand
19/08/2020, 20:44:54,-5.0606766,-8.49274,1.9687061,0.87035257,0.7019115,-1.4311404,10.080321346689928,1.8161377331897042,stand
19/08/2020, 20:44:54,-4.622388,-8.286768,1.7866846,0.87035257,0.7019115,-1.4311404,9.655528725064459,1.8161377331897042,stand
19/08/2020, 20:44:54,-4.622388,-8.286768,1.7866846,0.8520266,0.86195815,-1.3847147,9.655528725064459,1.840205424600856,stand
19/08/2020, 20:44:54,-4.509822,-8.626861,1.7220191,0.8520266,0.86195815,-1.3847147,9.885674854430832,1.840205424600856,stand
19/08/2020, 20:44:54,-4.509822,-8.626861,1.7220191,0.8031574,1.0476612,-1.2967501,9.885674854430832,1.8504638584582525,stand
19/08/2020, 20:44:54,-4.536167,-8.765772,2.0285816,0.8031574,1.0476612,-1.2967501,10.076244943201068,1.8504638584582525,stand
19/08/2020, 20:44:54,-4.536167,-8.765772,2.0285816,0.7713924,1.2480248,-1.1623598,10.076244943201068,1.8718153167758667,stand
19/08/2020, 20:44:54,-4.8044095,-9.271121,2.3519094,0.7713924,1.2480248,-1.1623598,10.703621516316675,1.8718153167758667,stand
19/08/2020, 20:44:54,-4.8044095,-9.271121,2.3519094,0.7176363,1.5424618,-0.91190517,10.703621516316675,1.9302230798522524,stand
19/08/2020, 20:44:54,-4.392466,-9.3309965,2.1267774,0.7176363,1.5424618,-0.91190517,10.530167911633194,1.9302230798522524,stand
19/08/2020, 20:44:54,-4.392466,-9.3309965,2.1267774,0.6027937,1.6805173,-0.72131526,10.530167911633194,1.925563397291066,stand
19/08/2020, 20:44:54,-3.4512234,-8.454419,1.3028907,0.6027937,1.6805173,-0.72131526,9.22418938275049,1.925563397291066,stand
19/08/2020, 20:44:54,-3.4512234,-8.454419,1.3028907,0.52704644,1.3188852,-0.6797765,9.22418938275049,1.5745895394554847,stand
19/08/2020, 20:44:54,-3.1278956,-7.165899,1.5376027,0.52704644,1.3188852,-0.6797765,7.968566897785012,1.5745895394554847,stand
19/08/2020, 20:44:54,-3.1278956,-7.165899,1.5376027,0.5856894,0.9230446,-0.6785547,7.968566897785012,1.2866545677554333,stand
19/08/2020, 20:44:54,-3.6260598,-7.2425394,2.1219873,0.5856894,0.9230446,-0.6785547,8.372903724986546,1.2866545677554333,stand
19/08/2020, 20:44:54,-3.6260598,-7.2425394,2.1219873,0.8935654,0.51987374,-0.70054585,8.372903724986546,1.2487963570438476,stand
19/08/2020, 20:44:54,-3.7985013,-7.903565,2.1171973,0.8935654,0.51987374,-0.70054585,9.02094644004139,1.2487963570438476,stand
19/08/2020, 20:44:54,-3.7985013,-7.903565,2.1171973,0.9925256,-0.015244033,-0.8605925,9.02094644004139,1.3137575221336075,stand
19/08/2020, 20:44:54,-4.095484,-8.655601,1.4944923,0.9925256,-0.015244033,-0.8605925,9.691538342618799,1.3137575221336075,stand
19/08/2020, 20:44:54,-4.095484,-8.655601,1.4944923,0.7884966,-0.47461453,-1.0194174,9.691538342618799,1.3733891321224234,stand
19/08/2020, 20:44:55,0.13891114,-9.546548,0.08861572,-0.3978032,0.27552772,0.08869169,9.547969714159418,0.49196454516790056,stand
19/08/2020, 20:44:55,-0.15088624,-9.843531,0.05508545,-0.3978032,0.27552772,0.08869169,9.844841127090309,0.49196454516790056,stand
19/08/2020, 20:44:55,-0.15088624,-9.843531,0.05508545,-0.4503376,0.38426167,0.0728092,9.844841127090309,0.5964580055033452,stand
19/08/2020, 20:44:55,-0.2083667,-9.939331,0.21076173,-0.4503376,0.38426167,0.0728092,9.943748740005107,0.5964580055033452,stand
19/08/2020, 20:44:55,-0.2083667,-9.939331,0.21076173,-0.4759939,0.51376504,0.042265948,9.943748740005107,0.7016488565617404,stand
19/08/2020, 20:44:55,-0.2945874,-10.102193,0.2778223,-0.4759939,0.51376504,0.042265948,10.1103050359415,0.7016488565617404,stand
19/08/2020, 20:44:55,-0.2945874,-10.102193,0.2778223,-0.48943296,0.6310511,0.019053081,10.1103050359415,0.7988323747719634,stand
19/08/2020, 20:44:55,-0.29937744,-9.821976,0.17962648,-0.48943296,0.6310511,0.019053081,9.828178841135527,0.7988323747719634,stand
19/08/2020, 20:44:55,-0.29937744,-9.821976,0.17962648,-0.5114241,0.7324547,0.031270377,9.828178841135527,0.8938805200043632,stand
19/08/2020, 20:44:55,-0.5005591,-9.663904,0.41912845,-0.5114241,0.7324547,0.031270377,9.685931666835605,0.8938805200043632,stand
19/08/2020, 20:44:55,-0.5005591,-9.663904,0.41912845,-0.5236414,0.7666632,0.06547882,9.685931666835605,0.9307310307727779,stand
19/08/2020, 20:44:55,-0.17244141,-9.611214,0.2706372,-0.5236414,0.7666632,0.06547882,9.616569503829993,0.9307310307727779,stand
19/08/2020, 20:44:55,-0.17244141,-9.611214,0.2706372,-0.47721565,0.7972064,0.12412186,9.616569503829993,0.9373788228703709,stand
19/08/2020, 20:44:55,-0.3065625,-9.606423,0.36164796,-0.47721565,0.7972064,0.12412186,9.61811519691742,0.9373788228703709,stand
19/08/2020, 20:44:55,-0.3065625,-9.606423,0.36164796,-0.40024665,0.75688934,0.15588684,9.61811519691742,0.8702755694800931,stand
19/08/2020, 20:44:55,-0.4263135,-9.687855,0.040715333,-0.40024665,0.75688934,0.15588684,9.697315655031638,0.8702755694800931,stand
19/08/2020, 20:44:55,-0.4263135,-9.687855,0.040715333,-0.3330515,0.68480724,0.16932587,9.697315655031638,0.7800996808632555,stand
19/08/2020, 20:44:55,-0.34009278,-9.429193,-0.15088624,-0.3330515,0.68480724,0.16932587,9.436530176289365,0.7800996808632555,stand
19/08/2020, 20:44:55,-0.34009278,-9.429193,-0.15088624,-0.29029095,0.58951235,0.1216784,9.436530176289365,0.6682808373860794,stand
19/08/2020, 20:44:55,-0.61552006,-9.340576,-0.21076173,-0.29029095,0.58951235,0.1216784,9.363207178741892,0.6682808373860794,stand
19/08/2020, 20:44:55,-0.61552006,-9.340576,-0.21076173,-0.3086169,0.46123067,0.06547882,9.363207178741892,0.5588072987111781,stand
19/08/2020, 20:44:55,-0.60594,-9.307046,-0.34727785,-0.3086169,0.46123067,0.06547882,9.333213232072497,0.5588072987111781,stand
19/08/2020, 20:44:55,-0.60594,-9.307046,-0.34727785,-0.34038186,0.3158448,-0.03348131,9.333213232072497,0.4655520911244746,stand
19/08/2020, 20:44:55,-0.5604346,-9.608819,-0.31135255,-0.34038186,0.3158448,-0.03348131,9.630183282542779,0.4655520911244746,stand
19/08/2020, 20:44:55,-0.5604346,-9.608819,-0.31135255,-0.37092513,0.21321948,-0.08723743,9.630183282542779,0.436644439650667,stand
19/08/2020, 20:44:55,-0.16046631,-9.860296,-0.09340577,-0.37092513,0.21321948,-0.08723743,9.862044220190796,0.436644439650667,stand
19/08/2020, 20:44:55,-0.16046631,-9.860296,-0.09340577,-0.37214684,0.14846778,-0.0774636,9.862044220190796,0.4080889173453194,stand
19/08/2020, 20:44:55,-0.17723145,-9.980047,-0.22273682,-0.37214684,0.14846778,-0.0774636,9.984105633901088,0.4080889173453194,stand
19/08/2020, 20:44:55,-0.17723145,-9.980047,-0.22273682,-0.3208342,0.114259355,-0.024929201,9.984105633901088,0.34148388318782547,stand
19/08/2020, 20:44:55,-0.10777588,-10.140513,-0.098195806,-0.3208342,0.114259355,-0.024929201,10.141561540531628,0.34148388318782547,stand
19/08/2020, 20:44:56,-0.25866213,-9.826766,-0.7089258,-0.017845154,-0.047009014,-0.038368233,9.855699476056069,0.0632488588223797,stand
19/08/2020, 20:44:56,-0.28740236,-9.826766,-0.7807764,-0.017845154,-0.047009014,-0.038368233,9.861923857504758,0.0632488588223797,stand
19/08/2020, 20:44:56,-0.28740236,-9.826766,-0.7807764,-0.023953807,-0.08610437,-0.02615093,9.861923857504758,0.0931215263608414,stand
19/08/2020, 20:44:56,-0.17244141,-9.915381,-0.79993653,-0.023953807,-0.08610437,-0.02615093,9.949091588165542,0.0931215263608414,stand
19/08/2020, 20:44:56,-0.17244141,-9.915381,-0.79993653,0.0041459855,-0.08854783,-0.0029380603,9.949091588165542,0.08869351819438732,stand
19/08/2020, 20:44:56,-0.10777588,-9.944121,-0.76161623,0.0041459855,-0.08854783,-0.0029380603,9.97382697666397,0.08869351819438732,stand
19/08/2020, 20:44:56,-0.10777588,-9.944121,-0.76161623,0.056680378,-0.028683063,0.02516173,9.97382697666397,0.06832639275766483,stand
19/08/2020, 20:44:56,-0.06706055,-9.869876,-0.855022,0.056680378,-0.028683063,0.02516173,9.907068698562963,0.06832639275766483,stand
19/08/2020, 20:44:56,-0.06706055,-9.869876,-0.855022,0.106771305,0.044620737,0.03737903,9.907068698562963,0.12160721079782068,stand
19/08/2020, 20:44:56,-0.15567628,-9.807606,-0.92926764,0.106771305,0.044620737,0.03737903,9.852761231081846,0.12160721079782068,stand
19/08/2020, 20:44:56,-0.15567628,-9.807606,-0.92926764,0.121432066,0.10204205,0.030048652,9.852761231081846,0.16143496494615778,stand
19/08/2020, 20:44:56,-0.17004639,-9.671089,-0.85741705,0.121432066,0.10204205,0.030048652,9.710512115577437,0.16143496494615778,stand
19/08/2020, 20:44:56,-0.17004639,-9.671089,-0.85741705,0.10799304,0.120368004,0.019053081,9.710512115577437,0.16283111552015594,stand
19/08/2020, 20:44:56,-0.14130616,-9.733359,-0.7783814,0.10799304,0.120368004,0.019053081,9.7654559047112,0.16283111552015594,stand
19/08/2020, 20:44:56,-0.14130616,-9.733359,-0.7783814,0.092110544,0.09471167,0.0080575105,9.7654559047112,0.13236153549132132,stand
19/08/2020, 20:44:56,-0.1939966,-9.73815,-0.7065308,0.092110544,0.09471167,0.0080575105,9.765673501159332,0.13236153549132132,stand
19/08/2020, 20:44:56,-0.1939966,-9.73815,-0.7065308,0.07134114,0.065390155,0.019053081,9.765673501159332,0.09863290922370319,stand
19/08/2020, 20:44:56,-0.18920656,-9.730965,-0.60594,0.07134114,0.065390155,0.019053081,9.75164784084983,0.09863290922370319,stand
19/08/2020, 20:44:56,-0.18920656,-9.730965,-0.60594,0.053015187,0.055616308,0.02394,9.75164784084983,0.08047923609159299,stand
19/08/2020, 20:44:56,-0.14370118,-9.833951,-0.46942386,0.053015187,0.055616308,0.02394,9.846197285732854,0.08047923609159299,stand
19/08/2020, 20:44:56,-0.14370118,-9.833951,-0.46942386,0.040797886,0.071498804,0.00927924,9.846197285732854,0.08284111720300763,stand
19/08/2020, 20:44:56,-0.059875492,-9.994417,-0.51492923,0.040797886,0.071498804,0.00927924,10.007852525411142,0.08284111720300763,stand
19/08/2020, 20:44:56,-0.059875492,-9.994417,-0.51492923,0.024915395,0.10326378,0.01050097,10.007852525411142,0.10674481560371511,stand
19/08/2020, 20:44:56,-0.05748047,-10.061478,-0.5484595,0.024915395,0.10326378,0.01050097,10.076579008788745,0.10674481560371511,stand
19/08/2020, 20:44:56,-0.05748047,-10.061478,-0.5484595,0.015141555,0.13747221,0.02516173,10.076579008788745,0.1405737831627057,stand
19/08/2020, 20:44:56,0.011975098,-10.164463,-0.6706055,0.015141555,0.13747221,0.02516173,10.186567825844397,0.1405737831627057,stand
19/08/2020, 20:44:56,0.011975098,-10.164463,-0.6706055,0.028580585,0.1533547,0.030048652,10.186567825844397,0.1588629493838298,stand
19/08/2020, 20:44:56,-0.028740235,-10.106983,-0.6993457,0.028580585,0.1533547,0.030048652,10.131190429478663,0.1588629493838298,stand
19/08/2020, 20:44:56,-0.028740235,-10.106983,-0.6993457,0.034689236,0.14968951,0.031270377,10.131190429478663,0.1568060240114062,stand
19/08/2020, 20:44:56,-0.028740235,-10.106983,-0.6993457,0.055458646,0.12647665,0.019053081,10.131190429478663,0.13940955201354596,stand
19/08/2020, 20:44:57,-0.23231691,-9.867481,-0.5364844,0.0065894453,-0.060448047,0.04104422,9.884784900957976,0.07336221895692098,stand
19/08/2020, 20:44:57,-0.33530274,-9.7621,-0.49337405,0.0065894453,-0.060448047,0.04104422,9.780309124999233,0.07336221895692098,stand
19/08/2020, 20:44:57,-0.33530274,-9.7621,-0.49337405,-0.016623426,-0.07999572,0.03371384,9.780309124999233,0.08838708488526462,stand
19/08/2020, 20:44:57,-0.40715334,-9.754915,-0.4766089,-0.016623426,-0.07999572,0.03371384,9.77503458693905,0.08838708488526462,stand
19/08/2020, 20:44:57,-0.40715334,-9.754915,-0.4766089,-0.028840724,-0.08366091,0.03249211,9.77503458693905,0.0942691468159707,stand
19/08/2020, 20:44:57,-0.42870852,-9.711804,-0.5029541,-0.028840724,-0.08366091,0.03249211,9.734264140607408,0.0942691468159707,stand
19/08/2020, 20:44:57,-0.42870852,-9.711804,-0.5029541,-0.016623426,-0.075108804,0.022718271,9.734264140607408,0.08021091295650701,stand
19/08/2020, 20:44:57,-0.488584,-9.651929,-0.51971924,-0.016623426,-0.075108804,0.022718271,9.678251595774633,0.08021091295650701,stand
19/08/2020, 20:44:57,-0.488584,-9.651929,-0.51971924,-0.012958236,-0.058004584,0.019053081,9.678251595774633,0.06241368089388655,stand
19/08/2020, 20:44:57,-0.5245093,-9.6686945,-0.5556446,-0.012958236,-0.058004584,0.019053081,9.698840351668757,0.06241368089388655,stand
19/08/2020, 20:44:57,-0.5245093,-9.6686945,-0.5556446,4.8079528E-4,-0.042122096,0.01294443,9.698840351668757,0.04406881427486867,stand
19/08/2020, 20:44:57,-0.4742139,-9.711804,-0.6227051,4.8079528E-4,-0.042122096,0.01294443,9.74329435940261,0.04406881427486867,stand
19/08/2020, 20:44:57,-0.4742139,-9.711804,-0.6227051,0.018806746,-0.027461333,0.00927924,9.74329435940261,0.0345531882526916,stand
19/08/2020, 20:44:57,-0.46463382,-9.692644,-0.6490503,0.018806746,-0.027461333,0.00927924,9.725456333639654,0.0345531882526916,stand
19/08/2020, 20:44:57,-0.46463382,-9.692644,-0.6490503,0.022471935,-0.021352682,0.01294443,9.725456333639654,0.03359290332032321,stand
19/08/2020, 20:44:57,-0.47900394,-9.663904,-0.7544312,0.022471935,-0.021352682,0.01294443,9.705135515955863,0.03359290332032321,stand
19/08/2020, 20:44:57,-0.47900394,-9.663904,-0.7544312,0.021250205,-0.022574412,0.01416616,9.705135515955863,0.03408599943946634,stand
19/08/2020, 20:44:57,-0.51971924,-9.625584,-0.7592212,0.021250205,-0.022574412,0.01416616,9.66945631843302,0.03408599943946634,stand
19/08/2020, 20:44:57,-0.51971924,-9.625584,-0.7592212,0.032245778,-0.022574412,0.015387891,9.66945631843302,0.042263239565839585,stand
19/08/2020, 20:44:57,-0.58198977,-9.551338,-0.6179151,0.032245778,-0.022574412,0.015387891,9.588982869970634,0.042263239565839585,stand
19/08/2020, 20:44:57,-0.58198977,-9.551338,-0.6179151,0.064010754,-0.009135383,0.019053081,9.588982869970634,0.06740809877290199,stand
19/08/2020, 20:44:57,-0.5939649,-9.508228,-0.63707525,0.064010754,-0.009135383,0.019053081,9.548039829394178,0.06740809877290199,stand
19/08/2020, 20:44:57,-0.5939649,-9.508228,-0.63707525,0.086001895,0.007968837,0.0056140497,9.548039829394178,0.08655256166480253,stand
19/08/2020, 20:44:57,-0.6777906,-9.505833,-0.6490503,0.086001895,0.007968837,0.0056140497,9.552042773643624,0.08655256166480253,stand
19/08/2020, 20:44:57,-0.6777906,-9.505833,-0.6490503,0.06278902,0.047064196,-4.946003E-4,9.552042773643624,0.07847129796359113,stand
19/08/2020, 20:44:57,-0.55324954,-9.527389,-0.51971924,0.06278902,0.047064196,-4.946003E-4,9.557579513554199,0.07847129796359113,stand
19/08/2020, 20:44:57,-0.55324954,-9.527389,-0.51971924,0.038354427,0.078829184,7.2712987E-4,9.557579513554199,0.08766773087630052,stand
19/08/2020, 20:44:57,-0.51732427,-9.651929,-0.488584,0.038354427,0.078829184,7.2712987E-4,9.678123281846855,0.08766773087630052,stand
19/08/2020, 20:44:57,-0.51732427,-9.651929,-0.488584,0.028580585,0.08860302,0.0043923203,9.678123281846855,0.09320213220334886,stand
19/08/2020, 20:44:57,-0.6011499,-9.577683,-0.4981641,0.028580585,0.08860302,0.0043923203,9.609452061676055,0.09320213220334886,stand
19/08/2020, 20:44:58,-0.37362307,-9.77168,-0.61073,-0.010514775,-0.0054701925,-0.0066032503,9.797872879715161,0.013567845073889351,stand
19/08/2020, 20:44:58,-0.3305127,-9.82437,-0.61073,-0.010514775,-0.0054701925,-0.0066032503,9.848882333359533,0.013567845073889351,stand
19/08/2020, 20:44:58,-0.3305127,-9.82437,-0.61073,0.011476366,-0.0066919224,0.0019488598,9.848882333359533,0.01342709400396657,stand
19/08/2020, 20:44:58,-0.39278322,-9.778865,-0.57719976,0.011476366,-0.0066919224,0.0019488598,9.803756228186653,0.01342709400396657,stand
19/08/2020, 20:44:58,-0.39278322,-9.778865,-0.57719976,0.027358856,0.0030819178,0.01416616,9.803756228186653,0.03096264359071895,stand
19/08/2020, 20:44:58,-0.3424878,-9.8866415,-0.68737066,0.027358856,0.0030819178,0.01416616,9.91642357502734,0.03096264359071895,stand
19/08/2020, 20:44:58,-0.3424878,-9.8866415,-0.68737066,0.023693666,0.02751652,0.01660962,9.91642357502734,0.039930291036816605,stand
19/08/2020, 20:44:58,-0.35685793,-9.817185,-0.62510014,0.023693666,0.02751652,0.01660962,9.843537320216011,0.039930291036816605,stand
19/08/2020, 20:44:58,-0.35685793,-9.817185,-0.62510014,0.020028476,0.051951118,0.02149654,9.843537320216011,0.05968383121937312,stand
19/08/2020, 20:44:58,-0.41912845,-9.7812605,-0.5939649,0.020028476,0.051951118,0.02149654,9.80823733958162,0.05968383121937312,stand
19/08/2020, 20:44:58,-0.41912845,-9.7812605,-0.5939649,0.018806746,0.058059767,0.02516173,9.80823733958162,0.06601320245082394,stand
19/08/2020, 20:44:58,-0.39278322,-9.759705,-0.60594,0.018806746,0.058059767,0.02516173,9.786382151087825,0.06601320245082394,stand
19/08/2020, 20:44:58,-0.39278322,-9.759705,-0.60594,0.013919826,0.055616308,0.019053081,9.786382151087825,0.060414858768667895,stand
19/08/2020, 20:44:58,-0.35925296,-9.718989,-0.6227051,0.013919826,0.055616308,0.019053081,9.745541480640911,0.060414858768667895,stand
19/08/2020, 20:44:58,-0.35925296,-9.718989,-0.6227051,0.016363285,0.0348469,0.0080575105,9.745541480640911,0.03933175433230348,stand
19/08/2020, 20:44:58,-0.4143384,-9.707015,-0.6442603,0.016363285,0.0348469,0.0080575105,9.737191000214253,0.03933175433230348,stand
19/08/2020, 20:44:58,-0.4143384,-9.707015,-0.6442603,0.011476366,0.007968837,7.2712987E-4,9.737191000214253,0.013990641886115703,stand
19/08/2020, 20:44:58,-0.3161426,-9.726174,-0.5508545,0.011476366,0.007968837,7.2712987E-4,9.746889472870437,0.013990641886115703,stand
