DATE,TIME,ax,ay,az,gx,gy,gz,ma,mg,label
19/08/2020, 20:40:35,0.2083667,6.5336137,7.2545147,-0.07401331,-0.2780831,0.0922887,9.765219294826553,0.30220088863730493,stand
19/08/2020, 20:40:35,0.45984375,6.543194,7.2928348,-0.07401331,-0.2780831,0.0922887,9.80868392935556,0.30220088863730493,stand
19/08/2020, 20:40:35,0.45984375,6.543194,7.2928348,-0.08134369,-0.2658658,0.104506,9.80868392935556,0.2970234416472206,stand
19/08/2020, 20:40:35,0.27542725,6.701265,7.2928348,-0.08134369,-0.2658658,0.104506,9.907989185000744,0.2970234416472206,stand
19/08/2020, 20:40:35,0.27542725,6.701265,7.2928348,-0.11066521,-0.29518732,0.10939292,9.907989185000744,0.33369020915020414,stand
19/08/2020, 20:40:35,0.4047583,6.6461797,7.3814507,-0.11066521,-0.29518732,0.10939292,9.940892682006162,0.33369020915020414,stand
19/08/2020, 20:40:35,0.4047583,6.6461797,7.3814507,-0.11555212,-0.3159567,0.09717562,9.940892682006162,0.35017715137718664,stand
19/08/2020, 20:40:35,0.6586304,6.5288234,7.434141,-0.11555212,-0.3159567,0.09717562,9.91593583125835,0.35017715137718664,stand
19/08/2020, 20:40:35,0.6586304,6.5288234,7.434141,-0.10333482,-0.28297,0.07151929,9.91593583125835,0.30962093259640733,stand
19/08/2020, 20:40:35,0.6586304,6.5479836,7.4892263,-0.10333482,-0.28297,0.07151929,9.969874371805856,0.30962093259640733,stand
19/08/2020, 20:40:35,0.6586304,6.5479836,7.4892263,-0.09478272,-0.22188352,0.038532574,9.969874371805856,0.2443375113285008,stand
19/08/2020, 20:40:35,0.6011499,6.5551686,7.434141,-0.09478272,-0.22188352,0.038532574,9.929656174595243,0.2443375113285008,stand
19/08/2020, 20:40:35,0.6011499,6.5551686,7.434141,-0.08989579,-0.17179258,0.027537007,9.929656174595243,0.195837257287272,stand
19/08/2020, 20:40:35,0.61073,6.576724,7.462881,-0.08989579,-0.17179258,0.027537007,9.96598637982546,0.195837257287272,stand
19/08/2020, 20:40:35,0.61073,6.576724,7.462881,-0.10944348,-0.17301431,0.032423925,9.96598637982546,0.20727551308883185,stand
19/08/2020, 20:40:35,0.6777906,6.5455885,7.3718705,-0.10944348,-0.17301431,0.032423925,9.881730806276705,0.20727551308883185,stand
19/08/2020, 20:40:35,0.6777906,6.5455885,7.3718705,-0.004374696,-0.054506496,-0.006671435,9.881730806276705,0.055087240575764425,stand
19/08/2020, 20:40:35,0.46463382,6.588699,5.6594315,-0.004374696,-0.054506496,-0.006671435,8.698045857062999,0.055087240575764425,stand
19/08/2020, 20:40:35,0.46463382,6.588699,5.6594315,0.073816024,-0.15835355,-0.007893166,8.698045857062999,0.1748912660167605,stand
19/08/2020, 20:40:35,2.0381618,6.8018556,3.891907,0.073816024,-0.15835355,-0.007893166,8.097300931072493,0.1748912660167605,stand
19/08/2020, 20:40:35,2.0381618,6.8018556,3.891907,0.035942398,-0.21088794,-0.022553924,8.097300931072493,0.21511452342644724,stand
19/08/2020, 20:40:35,-1.8489552,6.212681,11.697276,0.035942398,-0.21088794,-0.022553924,13.373193583170192,0.21511452342644724,stand
19/08/2020, 20:40:35,-1.8489552,6.212681,11.697276,0.15445021,-0.25975713,-0.038436417,13.373193583170192,0.3046407591452163,stand
19/08/2020, 20:40:35,1.3771362,6.4258375,13.364209,0.15445021,-0.25975713,-0.038436417,14.892614910266017,0.3046407591452163,stand
19/08/2020, 20:40:35,1.3771362,6.4258375,13.364209,-0.29148126,-0.27563962,-0.007893166,14.892614910266017,0.40124908340691146,stand
19/08/2020, 20:40:35,1.7771046,6.198311,13.766573,-0.29148126,-0.27563962,-0.007893166,15.201831767442762,0.40124908340691146,stand
19/08/2020, 20:40:35,1.7771046,6.198311,13.766573,-0.2572728,-0.29152212,0.0043241354,15.201831767442762,0.38883562155199053,stand
19/08/2020, 20:40:35,-0.852627,5.944439,15.984361,-0.2572728,-0.29152212,0.0043241354,17.075219290950344,0.38883562155199053,stand
19/08/2020, 20:40:35,-0.852627,5.944439,15.984361,-0.34768084,-0.058171686,0.018984895,17.075219290950344,0.3530245538647444,stand
19/08/2020, 20:40:35,-4.064348,5.9156985,11.50328,-0.34768084,-0.058171686,0.018984895,13.55875580838743,0.3530245538647444,stand
19/08/2020, 20:40:36,1.3004956,6.318062,7.36708,-0.014148535,-0.09971051,0.033645656,9.791989837840038,0.10618096276926627,stand
19/08/2020, 20:40:36,1.334026,6.349197,7.32397,-0.014148535,-0.09971051,0.033645656,9.784296651141434,0.10618096276926627,stand
19/08/2020, 20:40:36,1.334026,6.349197,7.32397,-0.027587565,-0.13514069,0.045862954,9.784296651141434,0.14535298286559556,stand
19/08/2020, 20:40:36,1.2549903,6.3228517,7.2664895,-0.027587565,-0.13514069,0.045862954,9.713666845044402,0.14535298286559556,stand
19/08/2020, 20:40:36,1.2549903,6.3228517,7.2664895,-0.03980487,-0.18156642,0.055636797,9.713666845044402,0.1940264018143917,stand
19/08/2020, 20:40:36,1.22625,6.2917166,7.316785,-0.03980487,-0.18156642,0.055636797,9.727524213676205,0.1940264018143917,stand
19/08/2020, 20:40:36,1.22625,6.2917166,7.316785,-0.042248324,-0.22310524,0.06296718,9.727524213676205,0.23563898972671762,stand
19/08/2020, 20:40:36,1.4346168,6.2941117,7.4580913,-0.042248324,-0.22310524,0.06296718,9.86392888535004,0.23563898972671762,stand
19/08/2020, 20:40:36,1.4346168,6.2941117,7.4580913,-0.038583137,-0.2292139,0.059301984,9.86392888535004,0.2398841233942743,stand
19/08/2020, 20:40:36,1.5160475,6.2653713,7.5012016,-0.038583137,-0.2292139,0.059301984,9.890465290048745,0.2398841233942743,stand
19/08/2020, 20:40:36,1.5160475,6.2653713,7.5012016,-0.038583137,-0.2133314,0.050749876,9.890465290048745,0.22265330705644923,stand
19/08/2020, 20:40:36,1.5352076,6.325247,7.422166,-0.038583137,-0.2133314,0.050749876,9.871887149649675,0.22265330705644923,stand
19/08/2020, 20:40:36,1.5352076,6.325247,7.422166,-0.04713524,-0.22310524,0.049528144,9.871887149649675,0.23334676937945045,stand
19/08/2020, 20:40:36,1.4465919,6.2581863,7.32397,-0.04713524,-0.22310524,0.049528144,9.741563452268911,0.23334676937945045,stand
19/08/2020, 20:40:36,1.4465919,6.2581863,7.32397,-0.070348114,-0.24143119,0.053193334,9.741563452268911,0.257035811134811,stand
19/08/2020, 20:40:36,1.465752,6.3012967,7.2616997,-0.070348114,-0.24143119,0.053193334,9.725587456467007,0.257035811134811,stand
19/08/2020, 20:40:36,1.465752,6.3012967,7.2616997,-0.08867407,-0.26464406,0.06296718,9.725587456467007,0.2861196130929052,stand
19/08/2020, 20:40:36,1.4729371,6.3156667,7.3455253,-0.08867407,-0.26464406,0.06296718,9.798669843057288,0.2861196130929052,stand
19/08/2020, 20:40:36,1.4729371,6.3156667,7.3455253,-0.08867407,-0.28297,0.061745446,9.798669843057288,0.30289869229985417,stand
19/08/2020, 20:40:36,1.3843213,6.3635674,7.3742657,-0.08867407,-0.28297,0.061745446,9.838248278049987,0.30289869229985417,stand
19/08/2020, 20:40:36,1.3843213,6.3635674,7.3742657,-0.08256541,-0.30984807,0.059301984,9.838248278049987,0.3260975300021721,stand
19/08/2020, 20:40:36,1.5280225,6.373147,7.3479204,-0.08256541,-0.30984807,0.059301984,9.846003764602354,0.3260975300021721,stand
19/08/2020, 20:40:36,1.5280225,6.373147,7.3479204,-0.085008875,-0.36116073,0.058080256,9.846003764602354,0.37554879100347655,stand
19/08/2020, 20:40:36,1.6166383,6.3060865,7.213799,-0.085008875,-0.36116073,0.058080256,9.716951315313873,0.37554879100347655,stand
19/08/2020, 20:40:36,1.6166383,6.3060865,7.213799,-0.077678494,-0.41491684,0.058080256,9.716951315313873,0.4261023953706543,stand
19/08/2020, 20:40:36,1.6860938,6.2821364,7.2353544,-0.077678494,-0.41491684,0.058080256,9.729260209029139,0.4261023953706543,stand
19/08/2020, 20:40:36,1.6860938,6.2821364,7.2353544,-0.07523503,-0.4527905,0.06296718,9.729260209029139,0.4632973252933255,stand
19/08/2020, 20:40:36,1.7028589,6.207891,7.2904396,-0.07523503,-0.4527905,0.06296718,9.725643869376333,0.4632973252933255,stand
19/08/2020, 20:40:36,1.7028589,6.207891,7.2904396,-0.078900225,-0.46256432,0.06541064,9.725643869376333,0.47378217197747763,stand
19/08/2020, 20:40:36,1.6597486,6.217471,7.3958206,-0.078900225,-0.46256432,0.06541064,9.803564404553724,0.47378217197747763,stand
19/08/2020, 20:40:37,0.8286768,6.8018556,7.3096,0.12635042,-0.053284768,-0.020110466,10.01909151270283,0.13859338147932365,stand
19/08/2020, 20:40:37,0.7759864,6.8114357,7.340735,0.12635042,-0.053284768,-0.020110466,10.044112746917218,0.13859338147932365,stand
19/08/2020, 20:40:37,0.7759864,6.8114357,7.340735,0.12024177,-0.022741517,-0.023775656,10.044112746917218,0.12466170757479196,stand
19/08/2020, 20:40:37,0.8310718,6.823411,7.3790555,0.12024177,-0.022741517,-0.023775656,10.084645651114108,0.12466170757479196,stand
19/08/2020, 20:40:37,0.8310718,6.823411,7.3790555,0.12512869,0.007801733,-0.027440846,10.084645651114108,0.1283396089757539,stand
19/08/2020, 20:40:37,0.8646021,6.71803,7.1395535,0.12512869,0.007801733,-0.027440846,9.84137634572938,0.1283396089757539,stand
19/08/2020, 20:40:37,0.8646021,6.71803,7.1395535,0.14345464,-7.5037696E-4,-0.022553924,9.84137634572938,0.1452187199669351,stand
19/08/2020, 20:40:37,0.7951465,6.8114357,7.151529,0.14345464,-7.5037696E-4,-0.022553924,9.908192517612234,0.1452187199669351,stand
19/08/2020, 20:40:37,0.7951465,6.8114357,7.151529,0.15567194,-0.019076327,-0.014001816,9.908192517612234,0.15746018467256293,stand
19/08/2020, 20:40:37,0.91010743,6.878496,7.34313,0.15567194,-0.019076327,-0.014001816,10.10265138167362,0.15746018467256293,stand
19/08/2020, 20:40:37,0.91010743,6.878496,7.34313,0.1703327,4.7135307E-4,-0.028662577,10.10265138167362,0.17272809326699834,stand
19/08/2020, 20:40:37,0.9580079,7.0006423,7.302415,0.1703327,4.7135307E-4,-0.028662577,10.161300850596083,0.17272809326699834,stand
19/08/2020, 20:40:37,0.9580079,7.0006423,7.302415,0.18865864,-0.014189407,-0.029884305,10.161300850596083,0.19153718521702937,stand
19/08/2020, 20:40:37,0.7089258,6.835386,7.2185893,0.18865864,-0.014189407,-0.029884305,9.966599538477555,0.19153718521702937,stand
19/08/2020, 20:40:37,0.7089258,6.835386,7.2185893,0.1947673,-0.030071897,-0.023775656,9.966599538477555,0.19850415747868688,stand
19/08/2020, 20:40:37,0.89573735,6.7850904,7.1251836,0.1947673,-0.030071897,-0.023775656,9.879678074134365,0.19850415747868688,stand
19/08/2020, 20:40:37,0.89573735,6.7850904,7.1251836,0.19232383,-0.001972107,-0.032327767,9.879678074134365,0.19503187115342205,stand
19/08/2020, 20:40:37,0.94603276,6.816226,7.158714,0.19232383,-0.001972107,-0.032327767,9.929909288045629,0.19503187115342205,stand
19/08/2020, 20:40:37,0.94603276,6.816226,7.158714,0.19232383,0.060336124,-0.055540636,9.929909288045629,0.20907813648433762,stand
19/08/2020, 20:40:37,0.8765772,6.962322,7.1443434,0.19232383,0.060336124,-0.055540636,10.014187973414884,0.20907813648433762,stand
19/08/2020, 20:40:37,0.8765772,6.962322,7.1443434,0.16300231,0.1531876,-0.0787535,10.014187973414884,0.23714617720639186,stand
19/08/2020, 20:40:37,0.8143067,6.940767,7.1347637,0.16300231,0.1531876,-0.0787535,9.987101311178892,0.23714617720639186,stand
19/08/2020, 20:40:37,0.8143067,6.940767,7.1347637,0.12024177,0.23748697,-0.104409836,9.987101311178892,0.28593628550638045,stand
19/08/2020, 20:40:37,0.7759864,6.976692,7.2616997,0.12024177,0.23748697,-0.104409836,10.099934212314071,0.28593628550638045,stand
19/08/2020, 20:40:37,0.7759864,6.976692,7.2616997,0.14223291,0.28024754,-0.12151405,10.099934212314071,0.33694888154416724,stand
19/08/2020, 20:40:37,0.82388675,6.9144216,7.3862405,0.14223291,0.28024754,-0.12151405,10.151086805369175,0.33694888154416724,stand
19/08/2020, 20:40:37,0.82388675,6.9144216,7.3862405,0.18499345,0.28391272,-0.12762271,10.151086805369175,0.36210021043447094,stand
19/08/2020, 20:40:37,0.7951465,6.9000516,7.2736745,0.18499345,0.28391272,-0.12762271,10.057301355297517,0.36210021043447094,stand
19/08/2020, 20:40:37,0.7951465,6.9000516,7.2736745,0.21309325,0.27780408,-0.1349531,10.057301355297517,0.3752281664403312,stand
19/08/2020, 20:40:37,0.76401126,7.0054326,7.182664,0.21309325,0.27780408,-0.1349531,10.062328764120718,0.3752281664403312,stand
19/08/2020, 20:40:38,0.7424561,2.692002,9.0076685,-1.0061934,0.85323894,0.09473216,9.430599547643023,1.322654916421123,stand
19/08/2020, 20:40:38,0.7424561,2.692002,9.0076685,-1.0416235,1.6717981,0.1252754,9.430599547643023,1.973722956025676,stand
19/08/2020, 20:40:38,0.25866213,1.951941,9.1202345,-1.0416235,1.6717981,0.1252754,9.330362102389623,1.973722956025676,stand
19/08/2020, 20:40:38,0.25866213,1.951941,9.1202345,-1.03918,3.2930336,0.23400937,9.330362102389623,3.4610295912330504,stand
19/08/2020, 20:40:38,0.1580713,1.8010547,9.15137,-1.03918,3.2930336,0.23400937,9.328255913596477,3.4610295912330504,stand
19/08/2020, 20:40:38,0.1580713,1.8010547,9.15137,-0.98542386,5.196489,0.21568343,9.328255913596477,5.293493740010213,stand
19/08/2020, 20:40:38,-0.3161426,2.3375392,8.966953,-0.98542386,5.196489,0.21568343,9.272016323962932,5.293493740010213,stand
19/08/2020, 20:40:38,-0.3161426,2.3375392,8.966953,-2.0813158,3.3700027,0.040976036,9.272016323962932,3.9611201475150355,stand
19/08/2020, 20:40:38,-4.888235,5.5061502,-6.3156667,-2.0813158,3.3700027,0.040976036,9.700524645656202,3.9611201475150355,stand
19/08/2020, 20:40:38,-4.888235,5.5061502,-6.3156667,-1.2224395,-1.5670083,-0.2204742,9.700524645656202,1.9996205009552988,stand
19/08/2020, 20:40:38,2.5027955,2.0022364,7.055728,-1.2224395,-1.5670083,-0.2204742,7.749595640876606,1.9996205009552988,stand
19/08/2020, 20:40:38,2.5027955,2.0022364,7.055728,-0.8424815,0.2301566,-0.123957515,7.749595640876606,0.8821069061381279,stand
19/08/2020, 20:40:38,1.3124708,1.8369801,10.437495,-0.8424815,0.2301566,-0.123957515,10.678875511905575,0.8821069061381279,stand
19/08/2020, 20:40:38,1.3124708,1.8369801,10.437495,-1.0416235,0.572241,-0.25590438,10.678875511905575,1.2156999141761753,stand
19/08/2020, 20:40:38,-1.1783496,-0.51732427,11.682906,-1.0416235,0.572241,-0.25590438,11.753570876166862,1.2156999141761753,stand
19/08/2020, 20:40:38,-1.1783496,-0.51732427,11.682906,-1.1589096,0.092101105,-0.18870921,11.753570876166862,1.1777797534150434,stand
19/08/2020, 20:40:38,-0.14370118,2.9099488,9.826766,-1.1589096,0.092101105,-0.18870921,10.249574746993494,1.1777797534150434,stand
19/08/2020, 20:40:38,-0.14370118,2.9099488,9.826766,-1.0941579,-0.011745947,-0.11174022,10.249574746993494,1.0999115547341556,stand
19/08/2020, 20:40:38,-0.2945874,1.6765138,10.164463,-1.0941579,-0.011745947,-0.11174022,10.306007431923309,1.0999115547341556,stand
19/08/2020, 20:40:38,-0.2945874,1.6765138,10.164463,-1.0208541,-0.025184978,-0.13373137,10.306007431923309,1.0298842101183299,stand
19/08/2020, 20:40:38,0.22513184,1.1496094,10.051897,-1.0208541,-0.025184978,-0.13373137,10.119926902275399,1.0298842101183299,stand
19/08/2020, 20:40:38,0.22513184,1.1496094,10.051897,-1.0220759,-0.017854597,-0.15816596,10.119926902275399,1.034395662211652,stand
19/08/2020, 20:40:38,0.46463382,0.9388477,9.448353,-1.0220759,-0.017854597,-0.15816596,9.506244817172508,1.034395662211652,stand
19/08/2020, 20:40:38,0.46463382,0.9388477,9.448353,-1.1454706,-0.001972107,-0.15083559,9.506244817172508,1.155360637827332,stand
19/08/2020, 20:40:38,-0.1460962,0.64186525,8.820857,-1.1454706,-0.001972107,-0.15083559,8.84538603821388,1.155360637827332,stand
19/08/2020, 20:40:38,-0.1460962,0.64186525,8.820857,-1.3165128,-0.022741517,-0.16916153,8.84538603821388,1.3275310966868898,stand
19/08/2020, 20:40:38,-0.51971924,0.7089258,9.740545,-1.3165128,-0.022741517,-0.16916153,9.780128121363887,1.3275310966868898,stand
19/08/2020, 20:40:38,-0.51971924,0.7089258,9.740545,-1.437464,-0.049619578,-0.15694423,9.780128121363887,1.4468574020015537,stand
19/08/2020, 20:40:38,0.07664063,0.8262818,10.044712,-1.437464,-0.049619578,-0.15694423,10.078931286482328,1.4468574020015537,stand
19/08/2020, 20:40:38,0.07664063,0.8262818,10.044712,-1.4313554,-7.5037696E-4,-0.16916153,10.078931286482328,1.4413168784963575,stand
19/08/2020, 20:40:39,-0.06227051,-0.09101075,9.932146,-0.0019312352,-7.5037696E-4,6.589452E-4,9.932758236072933,0.0021741535611148333,stand
19/08/2020, 20:40:39,-0.059875492,-0.11256592,9.898616,-0.0019312352,-7.5037696E-4,6.589452E-4,9.8994369360719,0.0021741535611148333,stand
19/08/2020, 20:40:39,-0.059875492,-0.11256592,9.898616,-0.0019312352,4.7135307E-4,6.589452E-4,9.8994369360719,0.0020942902946601318,stand
19/08/2020, 20:40:39,-0.06466553,-0.08861572,9.884246,-0.0019312352,4.7135307E-4,6.589452E-4,9.884854619344473,0.0020942902946601318,stand
19/08/2020, 20:40:39,-0.06466553,-0.08861572,9.884246,-0.0019312352,-7.5037696E-4,0.0018806751,9.884854619344473,0.002798155418373016,stand
19/08/2020, 20:40:39,-0.047900394,-0.09580079,10.027947,-0.0019312352,-7.5037696E-4,0.0018806751,10.028519422825815,0.002798155418373016,stand
19/08/2020, 20:40:39,-0.047900394,-0.09580079,10.027947,-0.0019312352,-7.5037696E-4,6.589452E-4,10.028519422825815,0.0021741535611148333,stand
19/08/2020, 20:40:39,-0.081430666,-0.08861572,9.927357,-0.0019312352,-7.5037696E-4,6.589452E-4,9.92808617737032,0.0021741535611148333,stand
19/08/2020, 20:40:39,-0.081430666,-0.08861572,9.927357,-7.0950575E-4,-0.001972107,-5.6278496E-4,9.92808617737032,0.0021700993708544357,stand
19/08/2020, 20:40:39,-0.05748047,-0.10777588,9.982442,-7.0950575E-4,-0.001972107,-5.6278496E-4,9.983189168551565,0.0021700993708544357,stand
19/08/2020, 20:40:39,-0.05748047,-0.10777588,9.982442,-7.0950575E-4,-7.5037696E-4,6.589452E-4,9.983189168551565,0.001225019487071147,stand
19/08/2020, 20:40:39,-0.06706055,-0.09101075,9.912986,-7.0950575E-4,-7.5037696E-4,6.589452E-4,9.913630393495813,0.001225019487071147,stand
19/08/2020, 20:40:39,-0.06706055,-0.09101075,9.912986,-0.0019312352,-7.5037696E-4,6.589452E-4,9.913630393495813,0.0021741535611148333,stand
19/08/2020, 20:40:39,-0.06227051,-0.10538086,9.922566,-0.0019312352,-7.5037696E-4,6.589452E-4,9.923321368405675,0.0021741535611148333,stand
19/08/2020, 20:40:39,-0.06227051,-0.10538086,9.922566,-0.0031529646,-0.0031938371,6.589452E-4,9.923321368405675,0.004536076534974515,stand
19/08/2020, 20:40:39,-0.07424561,-0.07903565,9.996812,-0.0031529646,-0.0031938371,6.589452E-4,9.997399989168974,0.004536076534974515,stand
19/08/2020, 20:40:39,-0.07424561,-0.07903565,9.996812,-0.004374696,-0.0056372974,0.0018806751,9.997399989168974,0.007379297082027368,stand
19/08/2020, 20:40:39,-0.083825685,-0.09101075,9.948912,-0.004374696,-0.0056372974,0.0018806751,9.949681053036803,0.007379297082027368,stand
19/08/2020, 20:40:39,-0.083825685,-0.09101075,9.948912,-0.004374696,-0.008080757,0.0018806751,9.949681053036803,0.009379421126614329,stand
19/08/2020, 20:40:39,-0.083825685,-0.09101075,9.948912,-0.0019312352,-0.006859027,-5.6278496E-4,9.949681053036803,0.0071479119752626595,stand
19/08/2020, 20:40:39,-0.083825685,-0.09101075,9.948912,-0.0019312352,4.7135307E-4,-5.6278496E-4,9.949681053036803,0.0020660517900558694,stand
19/08/2020, 20:40:39,-0.083825685,-0.09101075,9.948912,-0.0019312352,4.7135307E-4,-5.6278496E-4,9.949681053036803,0.0020660517900558694,stand
19/08/2020, 20:40:39,-0.083825685,-0.09101075,9.948912,-0.0019312352,4.7135307E-4,-0.001784515,9.949681053036803,0.002671392299774361,stand
19/08/2020, 20:40:39,-0.05748047,-0.10777588,10.015972,-0.0019312352,4.7135307E-4,-0.001784515,10.016716902422212,0.002671392299774361,stand
19/08/2020, 20:40:39,-0.086220704,-0.07903565,9.956097,-0.0019312352,4.7135307E-4,-0.001784515,9.956783674005605,0.002671392299774361,stand
19/08/2020, 20:40:39,-0.050295413,-0.086220704,9.898616,-0.0019312352,4.7135307E-4,-0.001784515,9.899119108726545,0.002671392299774361,stand
19/08/2020, 20:40:39,-0.12454102,-0.09580079,9.879456,-0.0019312352,4.7135307E-4,-0.001784515,9.880704961972974,0.002671392299774361,stand
19/08/2020, 20:40:39,-0.050295413,-0.12454102,9.944121,-0.0019312352,4.7135307E-4,-0.001784515,9.945028392747393,0.002671392299774361,stand
19/08/2020, 20:40:39,-0.05269043,-0.09101075,9.989627,-0.0019312352,4.7135307E-4,-0.001784515,9.990180405217892,0.002671392299774361,stand
19/08/2020, 20:40:39,-0.05269043,-0.09101075,9.989627,-0.0031529646,-0.004415567,0.0018806751,9.990180405217892,0.005742417349162616,stand
19/08/2020, 20:40:40,-0.045505375,-0.16525635,9.939331,-7.0950575E-4,-7.5037696E-4,6.589452E-4,9.940808931642428,0.001225019487071147,stand
19/08/2020, 20:40:40,-0.06227051,-0.117355965,10.0063925,-7.0950575E-4,-7.5037696E-4,6.589452E-4,10.007274378256888,0.001225019487071147,stand
19/08/2020, 20:40:40,-0.06227051,-0.117355965,10.0063925,-7.0950575E-4,4.7135307E-4,-0.001784515,10.007274378256888,0.0019773886455852563,stand
19/08/2020, 20:40:40,-0.083825685,-0.09580079,9.948912,-7.0950575E-4,4.7135307E-4,-0.001784515,9.949726020926118,0.0019773886455852563,stand
19/08/2020, 20:40:40,-0.083825685,-0.09580079,9.948912,-0.0031529646,-7.5037696E-4,-5.6278496E-4,9.949726020926118,0.0032895255726364914,stand
19/08/2020, 20:40:40,-0.06945557,-0.07903565,9.867481,-0.0031529646,-7.5037696E-4,-5.6278496E-4,9.868042185138988,0.0032895255726364914,stand
19/08/2020, 20:40:40,-0.06945557,-0.07903565,9.867481,-0.0019312352,-7.5037696E-4,0.003102405,9.868042185138988,0.003730636905450932,stand
19/08/2020, 20:40:40,-0.05748047,-0.09580079,9.860296,-0.0019312352,-7.5037696E-4,0.003102405,9.86092916113456,0.003730636905450932,stand
19/08/2020, 20:40:40,-0.05748047,-0.09580079,9.860296,0.001733955,-7.5037696E-4,-5.6278496E-4,9.86092916113456,0.0019713935225006514,stand
19/08/2020, 20:40:40,-0.100590825,-0.117355965,9.980047,0.001733955,-7.5037696E-4,-5.6278496E-4,9.981244089233815,0.0019713935225006514,stand
19/08/2020, 20:40:40,-0.100590825,-0.117355965,9.980047,-7.0950575E-4,0.0016930832,6.589452E-4,9.981244089233815,0.0019504199306039061,stand
19/08/2020, 20:40:40,-0.07664063,-0.09580079,9.908196,-7.0950575E-4,0.0016930832,6.589452E-4,9.908955971960596,0.0019504199306039061,stand
19/08/2020, 20:40:40,-0.07664063,-0.09580079,9.908196,-0.0031529646,4.7135307E-4,0.0018806751,9.908955971960596,0.0037013914277208323,stand
19/08/2020, 20:40:40,-0.100590825,-0.14370118,9.908196,-0.0031529646,4.7135307E-4,0.0018806751,9.909749008979936,0.0037013914277208323,stand
19/08/2020, 20:40:40,-0.100590825,-0.14370118,9.908196,-7.0950575E-4,-7.5037696E-4,0.0018806751,9.909749008979936,0.002145554189892675,stand
19/08/2020, 20:40:40,-0.026345216,-0.07664063,9.910591,-7.0950575E-4,-7.5037696E-4,0.0018806751,9.91092247537545,0.002145554189892675,stand
19/08/2020, 20:40:40,-0.026345216,-0.07664063,9.910591,-0.0019312352,4.7135307E-4,-5.6278496E-4,9.91092247537545,0.0020660517900558694,stand
19/08/2020, 20:40:40,-0.06945557,-0.086220704,9.917776,-0.0019312352,4.7135307E-4,-5.6278496E-4,9.918394074164544,0.0020660517900558694,stand
19/08/2020, 20:40:40,-0.06945557,-0.086220704,9.917776,-7.0950575E-4,4.7135307E-4,-0.001784515,9.918394074164544,0.0019773886455852563,stand
19/08/2020, 20:40:40,-0.059875492,-0.10777588,9.975257,-7.0950575E-4,4.7135307E-4,-0.001784515,9.976018811755068,0.0019773886455852563,stand
19/08/2020, 20:40:40,-0.059875492,-0.10777588,9.975257,5.1222555E-4,4.7135307E-4,-0.001784515,9.976018811755068,0.0019154744742496787,stand
19/08/2020, 20:40:40,-0.07424561,-0.081430666,9.922566,5.1222555E-4,4.7135307E-4,-0.001784515,9.92317830141853,0.0019154744742496787,stand
19/08/2020, 20:40:40,-0.07424561,-0.081430666,9.922566,-0.0019312352,-7.5037696E-4,-5.6278496E-4,9.92317830141853,0.002146965735216506,stand
19/08/2020, 20:40:40,-0.043110352,-0.12933107,9.956097,-0.0019312352,-7.5037696E-4,-5.6278496E-4,9.957029954509888,0.002146965735216506,stand
19/08/2020, 20:40:40,-0.043110352,-0.12933107,9.956097,5.1222555E-4,0.0016930832,-5.6278496E-4,9.957029954509888,0.001856241544733598,stand
19/08/2020, 20:40:40,-0.038320314,-0.05748047,9.936936,5.1222555E-4,0.0016930832,-5.6278496E-4,9.937176512509547,0.001856241544733598,stand
19/08/2020, 20:40:40,-0.038320314,-0.05748047,9.936936,-0.0019312352,0.0016930832,-5.6278496E-4,9.937176512509547,0.002629244574052905,stand
19/08/2020, 20:40:40,-0.06945557,-0.13172609,9.989627,-0.0019312352,0.0016930832,-5.6278496E-4,9.99073676607052,0.002629244574052905,stand
19/08/2020, 20:40:40,-0.06945557,-0.13172609,9.989627,-7.0950575E-4,0.002914813,-0.001784515,9.99073676607052,0.003490562653078441,stand
19/08/2020, 20:40:40,-0.026345216,-0.07185059,9.972861,-7.0950575E-4,0.002914813,-0.001784515,9.973154911404738,0.003490562653078441,stand
19/08/2020, 20:40:41,-0.10777588,-0.102985844,9.972861,-7.0950575E-4,-0.008080757,-0.067757934,9.973975337543518,0.06824177386788226,stand
19/08/2020, 20:40:41,-0.13891114,-0.09340577,9.905801,-7.0950575E-4,-0.008080757,-0.067757934,9.907215088850508,0.06824177386788226,stand
19/08/2020, 20:40:41,-0.13891114,-0.09340577,9.905801,-0.0031529646,0.002914813,-0.075088315,9.907215088850508,0.0752109854195991,stand
19/08/2020, 20:40:41,-0.047900394,-0.059875492,9.922566,-0.0031529646,0.002914813,-0.075088315,9.922862679695712,0.0752109854195991,stand
19/08/2020, 20:40:41,-0.047900394,-0.059875492,9.922566,-0.0019312352,-7.5037696E-4,-0.088527344,9.922862679695712,0.08855158609680615,stand
19/08/2020, 20:40:41,-0.11256592,-0.09101075,9.872271,-0.0019312352,-7.5037696E-4,-0.088527344,9.873331784590224,0.08855158609680615,stand
19/08/2020, 20:40:41,-0.11256592,-0.09101075,9.872271,5.1222555E-4,-0.009302488,-0.09341426,9.873331784590224,0.09387770227145703,stand
19/08/2020, 20:40:41,-0.17723145,-0.09340577,9.944121,5.1222555E-4,-0.009302488,-0.09341426,9.946139213828816,0.09387770227145703,stand
19/08/2020, 20:40:41,-0.17723145,-0.09340577,9.944121,5.1222555E-4,-0.015411138,-0.088527344,9.946139213828816,0.08986020366406182,stand
19/08/2020, 20:40:41,-0.18920656,-0.12693603,9.987232,5.1222555E-4,-0.015411138,-0.088527344,9.989830782288116,0.08986020366406182,stand
19/08/2020, 20:40:41,-0.18920656,-0.12693603,9.987232,-7.0950575E-4,-0.015411138,-0.07997523,9.989830782288116,0.08144964316177332,stand
19/08/2020, 20:40:41,-0.119750984,-0.09580079,9.901011,-7.0950575E-4,-0.015411138,-0.07997523,9.902199056687929,0.08144964316177332,stand
19/08/2020, 20:40:41,-0.119750984,-0.09580079,9.901011,-7.0950575E-4,-0.016632868,-0.07264485,9.902199056687929,0.07452804997077023,stand
19/08/2020, 20:40:41,-0.13172609,-0.09101075,9.975257,-7.0950575E-4,-0.016632868,-0.07264485,9.97654175230559,0.07452804997077023,stand
19/08/2020, 20:40:41,-0.13172609,-0.09101075,9.975257,-0.0031529646,-0.011745947,-0.0579841,9.97654175230559,0.05924579461330417,stand
19/08/2020, 20:40:41,-0.11496094,-0.14130616,9.951306,-0.0031529646,-0.011745947,-0.0579841,9.952973494519465,0.05924579461330417,stand
19/08/2020, 20:40:41,-0.11496094,-0.14130616,9.951306,-0.0031529646,-0.014189407,-0.043323338,9.952973494519465,0.04569674038416195,stand
19/08/2020, 20:40:41,-0.14849122,-0.12933107,9.965676,-0.0031529646,-0.014189407,-0.043323338,9.96762160379246,0.04569674038416195,stand
19/08/2020, 20:40:41,-0.14849122,-0.12933107,9.965676,-7.0950575E-4,-0.008080757,-0.034771226,9.96762160379246,0.0357049046679719,stand
19/08/2020, 20:40:41,-0.119750984,-0.10777588,9.948912,-7.0950575E-4,-0.008080757,-0.034771226,9.950216042582836,0.0357049046679719,stand
19/08/2020, 20:40:41,-0.119750984,-0.10777588,9.948912,5.1222555E-4,-0.008080757,-0.029884305,9.950216042582836,0.03096179401715588,stand
19/08/2020, 20:40:41,-0.081430666,-0.12454102,9.939331,5.1222555E-4,-0.008080757,-0.029884305,9.940444820740998,0.03096179401715588,stand
19/08/2020, 20:40:41,-0.081430666,-0.12454102,9.939331,-0.0019312352,-0.011745947,-0.023775656,9.940444820740998,0.02658907214626072,stand
19/08/2020, 20:40:41,-0.102985844,-0.117355965,9.987232,-0.0019312352,-0.011745947,-0.023775656,9.988452617305258,0.02658907214626072,stand
19/08/2020, 20:40:41,-0.102985844,-0.117355965,9.987232,-7.0950575E-4,-0.010524217,-0.012780085,9.988452617305258,0.016570851534439764,stand
19/08/2020, 20:40:41,-0.11256592,-0.119750984,10.042317,-7.0950575E-4,-0.010524217,-0.012780085,10.043662178450374,0.016570851534439764,stand
19/08/2020, 20:40:41,-0.11256592,-0.119750984,10.042317,-0.0019312352,-0.015411138,-0.004227975,10.043662178450374,0.016096850732545798,stand
19/08/2020, 20:40:41,-0.13172609,-0.06227051,9.927357,-0.0019312352,-0.015411138,-0.004227975,9.928425898592893,0.016096850732545798,stand
19/08/2020, 20:40:41,-0.13172609,-0.06227051,9.927357,-0.0019312352,-0.022741517,0.0018806751,9.928425898592893,0.022900725010207783,stand
19/08/2020, 20:40:41,-0.119750984,-0.09101075,9.865086,-0.0019312352,-0.022741517,0.0018806751,9.866232167633205,0.022900725010207783,stand
19/08/2020, 20:40:42,-0.06706055,-0.06945557,9.8866415,-7.0950575E-4,4.7135307E-4,-5.6278496E-4,9.88711289460706,0.001020930475394288,stand
19/08/2020, 20:40:42,-0.07664063,-0.07664063,9.910591,-7.0950575E-4,4.7135307E-4,-5.6278496E-4,9.911183785422045,0.001020930475394288,stand
19/08/2020, 20:40:42,-0.07664063,-0.07664063,9.910591,-0.0019312352,4.7135307E-4,-5.6278496E-4,9.911183785422045,0.0020660517900558694,stand
19/08/2020, 20:40:42,-0.11256592,-0.122146,9.953702,-0.0019312352,4.7135307E-4,-5.6278496E-4,9.955087829791514,0.0020660517900558694,stand
19/08/2020, 20:40:42,-0.11256592,-0.122146,9.953702,-0.0031529646,4.7135307E-4,-5.6278496E-4,9.955087829791514,0.003237296190346003,stand
19/08/2020, 20:40:42,-0.05748047,-0.119750984,9.917776,-0.0031529646,4.7135307E-4,-5.6278496E-4,9.918665597082127,0.003237296190346003,stand
19/08/2020, 20:40:42,-0.05748047,-0.119750984,9.917776,-0.0031529646,-0.001972107,-0.001784515,9.918665597082127,0.004124910385441536,stand
19/08/2020, 20:40:42,-0.122146,-0.07664063,9.984837,-0.0031529646,-0.001972107,-0.001784515,9.985877774571321,0.004124910385441536,stand
19/08/2020, 20:40:42,-0.122146,-0.07664063,9.984837,-0.004374696,4.7135307E-4,6.589452E-4,9.985877774571321,0.0044490838434692705,stand
19/08/2020, 20:40:42,-0.07903565,-0.098195806,9.910591,-0.004374696,4.7135307E-4,6.589452E-4,9.911392712756474,0.0044490838434692705,stand
19/08/2020, 20:40:42,-0.07903565,-0.098195806,9.910591,-7.0950575E-4,0.0016930832,-0.001784515,9.911392712756474,0.0025601607150104997,stand
19/08/2020, 20:40:42,-0.081430666,-0.08861572,9.934542,-7.0950575E-4,0.0016930832,-0.001784515,9.935270632141629,0.0025601607150104997,stand
19/08/2020, 20:40:42,-0.081430666,-0.08861572,9.934542,-0.0019312352,0.0016930832,-0.001784515,9.935270632141629,0.0031274100866831214,stand
19/08/2020, 20:40:42,-0.08861572,-0.07903565,9.912986,-0.0019312352,0.0016930832,-0.001784515,9.913696933259915,0.0031274100866831214,stand
19/08/2020, 20:40:42,-0.08861572,-0.07903565,9.912986,-0.0031529646,4.7135307E-4,-5.6278496E-4,9.913696933259915,0.003237296190346003,stand
19/08/2020, 20:40:42,-0.06945557,-0.12693603,9.922566,-0.0031529646,4.7135307E-4,-5.6278496E-4,9.923621368775777,0.003237296190346003,stand
19/08/2020, 20:40:42,-0.06945557,-0.12693603,9.922566,-0.0031529646,-7.5037696E-4,0.0018806751,9.923621368775777,0.003747157638825187,stand
19/08/2020, 20:40:42,-0.08861572,-0.06706055,9.972861,-0.0031529646,-7.5037696E-4,0.0018806751,9.9734804443185,0.003747157638825187,stand
19/08/2020, 20:40:42,-0.08861572,-0.06706055,9.972861,-0.004374696,-0.001972107,6.589452E-4,9.9734804443185,0.00484369479736423,stand
19/08/2020, 20:40:42,-0.09580079,-0.07664063,9.927357,-0.004374696,-0.001972107,6.589452E-4,9.92811477684865,0.00484369479736423,stand
19/08/2020, 20:40:42,-0.09580079,-0.07664063,9.927357,-0.004374696,4.7135307E-4,6.589452E-4,9.92811477684865,0.0044490838434692705,stand
19/08/2020, 20:40:42,-0.102985844,-0.098195806,9.968072,-0.004374696,4.7135307E-4,6.589452E-4,9.969087553673312,0.0044490838434692705,stand
19/08/2020, 20:40:42,-0.102985844,-0.098195806,9.968072,-0.0019312352,4.7135307E-4,-5.6278496E-4,9.969087553673312,0.0020660517900558694,stand
19/08/2020, 20:40:42,-0.06466553,-0.083825685,9.968072,-0.0019312352,4.7135307E-4,-5.6278496E-4,9.968634135582851,0.0020660517900558694,stand
19/08/2020, 20:40:42,-0.06466553,-0.083825685,9.968072,-7.0950575E-4,0.004136543,-5.6278496E-4,9.968634135582851,0.004234514325634126,stand
19/08/2020, 20:40:42,-0.035925295,-0.05748047,9.912986,-7.0950575E-4,0.004136543,-5.6278496E-4,9.913217547084985,0.004234514325634126,stand
19/08/2020, 20:40:42,-0.035925295,-0.05748047,9.912986,-0.0019312352,0.0016930832,-5.6278496E-4,9.913217547084985,0.002629244574052905,stand
19/08/2020, 20:40:42,-0.07664063,-0.1101709,9.951306,-0.0019312352,0.0016930832,-5.6278496E-4,9.952211279262885,0.002629244574052905,stand
19/08/2020, 20:40:42,-0.07664063,-0.1101709,9.951306,-7.0950575E-4,0.0016930832,-0.001784515,9.952211279262885,0.0025601607150104997,stand
19/08/2020, 20:40:42,-0.09580079,-0.08861572,9.908196,-7.0950575E-4,0.0016930832,-0.001784515,9.909055828619868,0.0025601607150104997,stand
19/08/2020, 20:40:43,-0.06945557,-0.098195806,9.901011,-7.0950575E-4,4.7135307E-4,-5.6278496E-4,9.90174199633692,0.001020930475394288,stand
19/08/2020, 20:40:43,-0.098195806,-0.06227051,9.958491,-7.0950575E-4,4.7135307E-4,-5.6278496E-4,9.959170121577136,0.001020930475394288,stand
19/08/2020, 20:40:43,-0.098195806,-0.06227051,9.958491,5.1222555E-4,-7.5037696E-4,-0.001784515,9.959170121577136,0.0020024820424919603,stand
19/08/2020, 20:40:43,-0.098195806,-0.14370118,9.992022,5.1222555E-4,-7.5037696E-4,-0.001784515,9.993537277390098,0.0020024820424919603,stand
19/08/2020, 20:40:43,-0.098195806,-0.14370118,9.992022,-7.0950575E-4,-7.5037696E-4,-0.001784515,9.993537277390098,0.002061785082080619,stand
19/08/2020, 20:40:43,-0.09101075,-0.098195806,10.018367,-7.0950575E-4,-7.5037696E-4,-0.001784515,10.019261399218877,0.002061785082080619,stand
19/08/2020, 20:40:43,-0.09101075,-0.098195806,10.018367,-7.0950575E-4,-7.5037696E-4,-5.6278496E-4,10.019261399218877,0.0011760913674496113,stand
19/08/2020, 20:40:43,-0.047900394,-0.083825685,9.917776,-7.0950575E-4,-7.5037696E-4,-5.6278496E-4,9.918246020209395,0.0011760913674496113,stand
19/08/2020, 20:40:43,-0.047900394,-0.083825685,9.917776,-0.0031529646,4.7135307E-4,-0.001784515,9.918246020209395,0.003653471423746111,stand
19/08/2020, 20:40:43,-0.12933107,-0.10538086,9.920172,-0.0031529646,4.7135307E-4,-0.001784515,9.921574419219214,0.003653471423746111,stand
19/08/2020, 20:40:43,-0.12933107,-0.10538086,9.920172,-0.0031529646,0.0016930832,6.589452E-4,9.921574419219214,0.003638945656936482,stand
19/08/2020, 20:40:43,-0.05508545,-0.07903565,9.910591,-0.0031529646,0.0016930832,6.589452E-4,9.911059352914021,0.003638945656936482,stand
19/08/2020, 20:40:43,-0.05508545,-0.07903565,9.910591,-0.004374696,-7.5037696E-4,0.0018806751,9.911059352914021,0.004820577657634191,stand
19/08/2020, 20:40:43,-0.102985844,-0.122146,9.915381,-0.004374696,-7.5037696E-4,0.0018806751,9.916668526466802,0.004820577657634191,stand
19/08/2020, 20:40:43,-0.102985844,-0.122146,9.915381,-0.004374696,-7.5037696E-4,6.589452E-4,9.916668526466802,0.004487230650993995,stand
19/08/2020, 20:40:43,-0.06706055,-0.06466553,9.987232,-0.004374696,-7.5037696E-4,6.589452E-4,9.987666690998848,0.004487230650993995,stand
19/08/2020, 20:40:43,-0.06706055,-0.06466553,9.987232,-0.004374696,-7.5037696E-4,0.0018806751,9.987666690998848,0.004820577657634191,stand
19/08/2020, 20:40:43,-0.050295413,-0.12933107,9.975257,-0.004374696,-7.5037696E-4,0.0018806751,9.976222069034872,0.004820577657634191,stand
19/08/2020, 20:40:43,-0.050295413,-0.12933107,9.975257,-0.0019312352,-7.5037696E-4,0.0018806751,9.976222069034872,0.002798155418373016,stand
19/08/2020, 20:40:43,-0.10538086,-0.086220704,9.924961,-0.0019312352,-7.5037696E-4,0.0018806751,9.925895011324496,0.002798155418373016,stand
19/08/2020, 20:40:43,-0.10538086,-0.086220704,9.924961,5.1222555E-4,-7.5037696E-4,-5.6278496E-4,9.925895011324496,0.0010687223729304468,stand
19/08/2020, 20:40:43,-0.100590825,-0.06945557,9.920172,5.1222555E-4,-7.5037696E-4,-5.6278496E-4,9.92092485080819,0.0010687223729304468,stand
19/08/2020, 20:40:43,-0.100590825,-0.06945557,9.920172,-0.0031529646,-7.5037696E-4,-5.6278496E-4,9.92092485080819,0.0032895255726364914,stand
19/08/2020, 20:40:43,-0.06945557,-0.12454102,9.958491,-0.0031529646,-7.5037696E-4,-5.6278496E-4,9.959512238065555,0.0032895255726364914,stand
19/08/2020, 20:40:43,-0.06945557,-0.12454102,9.958491,-7.0950575E-4,-0.001972107,-5.6278496E-4,9.959512238065555,0.0021700993708544357,stand
19/08/2020, 20:40:43,-0.1101709,-0.050295413,9.956097,-7.0950575E-4,-0.001972107,-5.6278496E-4,9.95683321862544,0.0021700993708544357,stand
19/08/2020, 20:40:43,-0.1101709,-0.050295413,9.956097,-7.0950575E-4,4.7135307E-4,-5.6278496E-4,9.95683321862544,0.001020930475394288,stand
19/08/2020, 20:40:43,-0.083825685,-0.10538086,10.032737,-7.0950575E-4,4.7135307E-4,-5.6278496E-4,10.03364037294503,0.001020930475394288,stand
19/08/2020, 20:40:43,-0.083825685,-0.10538086,10.032737,-7.0950575E-4,4.7135307E-4,-5.6278496E-4,10.03364037294503,0.001020930475394288,stand
19/08/2020, 20:40:43,-0.08861572,-0.038320314,9.917776,-7.0950575E-4,4.7135307E-4,-5.6278496E-4,9.918246020191404,0.001020930475394288,stand
19/08/2020, 20:40:44,-0.031135255,-0.07664063,10.035132,-0.0031529646,4.7135307E-4,6.589452E-4,10.035473363971416,0.003255390677498371,stand
19/08/2020, 20:40:44,-0.081430666,-0.07664063,9.982442,-0.0031529646,4.7135307E-4,6.589452E-4,9.983068219205203,0.003255390677498371,stand
19/08/2020, 20:40:44,-0.081430666,-0.07664063,9.982442,-0.0031529646,4.7135307E-4,-5.6278496E-4,9.983068219205203,0.003237296190346003,stand
19/08/2020, 20:40:44,-0.07185059,-0.10777588,9.922566,-0.0031529646,4.7135307E-4,-5.6278496E-4,9.9234118319208,0.003237296190346003,stand
19/08/2020, 20:40:44,-0.07185059,-0.10777588,9.922566,-0.0031529646,-0.001972107,-5.6278496E-4,9.9234118319208,0.0037612655938955913,stand
19/08/2020, 20:40:44,-0.09101075,-0.16525635,9.862691,-0.0031529646,-0.001972107,-5.6278496E-4,9.864495167619786,0.0037612655938955913,stand
19/08/2020, 20:40:44,-0.09101075,-0.16525635,9.862691,-0.0019312352,0.002914813,6.589452E-4,9.864495167619786,0.0035580912885540376,stand
19/08/2020, 20:40:44,-0.033530276,-0.09101075,9.884246,-0.0019312352,0.002914813,6.589452E-4,9.884721731232858,0.0035580912885540376,stand
19/08/2020, 20:40:44,-0.033530276,-0.09101075,9.884246,-0.0031529646,0.0016930832,-5.6278496E-4,9.884721731232858,0.003622767402832029,stand
19/08/2020, 20:40:44,-0.12693603,-0.081430666,9.905801,-0.0031529646,0.0016930832,-5.6278496E-4,9.906948752442519,0.003622767402832029,stand
19/08/2020, 20:40:44,-0.12693603,-0.081430666,9.905801,-0.0031529646,-7.5037696E-4,-5.6278496E-4,9.906948752442519,0.0032895255726364914,stand
19/08/2020, 20:40:44,-0.06945557,-0.09580079,9.939331,-0.0031529646,-7.5037696E-4,-5.6278496E-4,9.940035396411528,0.0032895255726364914,stand
19/08/2020, 20:40:44,-0.06945557,-0.09580079,9.939331,-0.0031529646,-0.001972107,-0.001784515,9.940035396411528,0.004124910385441536,stand
19/08/2020, 20:40:44,-0.047900394,-0.09580079,9.953702,-0.0031529646,-0.001972107,-0.001784515,9.954278236269763,0.004124910385441536,stand
19/08/2020, 20:40:44,-0.047900394,-0.09580079,9.953702,-0.004374696,-7.5037696E-4,6.589452E-4,9.954278236269763,0.004487230650993995,stand
19/08/2020, 20:40:44,-0.05748047,-0.086220704,9.889036,-0.004374696,-7.5037696E-4,6.589452E-4,9.88957908889945,0.004487230650993995,stand
19/08/2020, 20:40:44,-0.05748047,-0.086220704,9.889036,-0.0019312352,0.0016930832,0.0018806751,9.88957908889945,0.0031832591643413447,stand
19/08/2020, 20:40:44,-0.09340577,-0.102985844,9.884246,-0.0019312352,0.0016930832,0.0018806751,9.885223679290206,0.0031832591643413447,stand
19/08/2020, 20:40:44,-0.09340577,-0.102985844,9.884246,-0.0031529646,4.7135307E-4,6.589452E-4,9.885223679290206,0.003255390677498371,stand
19/08/2020, 20:40:44,-0.1101709,-0.07903565,9.953702,-0.0031529646,4.7135307E-4,6.589452E-4,9.954625418741506,0.003255390677498371,stand
19/08/2020, 20:40:44,-0.1101709,-0.07903565,9.953702,-0.0019312352,-7.5037696E-4,-5.6278496E-4,9.954625418741506,0.002146965735216506,stand
19/08/2020, 20:40:44,-0.07424561,-0.13172609,9.992022,-0.0019312352,-7.5037696E-4,-5.6278496E-4,9.993165616617663,0.002146965735216506,stand
19/08/2020, 20:40:44,-0.07424561,-0.13172609,9.992022,-0.0031529646,4.7135307E-4,-0.001784515,9.993165616617663,0.003653471423746111,stand
19/08/2020, 20:40:44,-0.035925295,-0.12454102,9.982442,-0.0031529646,4.7135307E-4,-0.001784515,9.983283398911396,0.003653471423746111,stand
19/08/2020, 20:40:44,-0.035925295,-0.12454102,9.982442,-0.0031529646,4.7135307E-4,6.589452E-4,9.983283398911396,0.003255390677498371,stand
19/08/2020, 20:40:44,-0.07185059,-0.098195806,9.8866415,-0.0031529646,4.7135307E-4,6.589452E-4,9.887390207748279,0.003255390677498371,stand
19/08/2020, 20:40:44,-0.07185059,-0.098195806,9.8866415,-0.0019312352,4.7135307E-4,0.0018806751,9.887390207748279,0.002736563881287915,stand
19/08/2020, 20:40:44,-0.07185059,-0.16286133,9.905801,-0.0019312352,4.7135307E-4,0.0018806751,9.907400072393632,0.002736563881287915,stand
19/08/2020, 20:40:44,-0.07185059,-0.16286133,9.905801,-7.0950575E-4,4.7135307E-4,0.0018806751,9.907400072393632,0.002064584925055233,stand
19/08/2020, 20:40:44,-0.09340577,-0.086220704,10.013577,-7.0950575E-4,4.7135307E-4,0.0018806751,10.014384265627914,0.002064584925055233,stand
19/08/2020, 20:40:45,-0.016765138,-0.43110353,9.936936,-0.0031529646,4.7135307E-4,-5.6278496E-4,9.946297598164788,0.003237296190346003,stand
19/08/2020, 20:40:45,-0.06945557,-0.49097902,9.8938265,-0.0031529646,4.7135307E-4,-5.6278496E-4,9.906244847536836,0.003237296190346003,stand
19/08/2020, 20:40:45,-0.06945557,-0.49097902,9.8938265,-7.0950575E-4,0.002914813,0.0018806751,9.906244847536836,0.003540688166464513,stand
19/08/2020, 20:40:45,-0.0047900393,-0.4047583,9.929751,-7.0950575E-4,0.002914813,0.0018806751,9.937998541927108,0.003540688166464513,stand
19/08/2020, 20:40:45,-0.0047900393,-0.4047583,9.929751,-0.0019312352,0.0016930832,6.589452E-4,9.937998541927108,0.0026514918195802905,stand
19/08/2020, 20:40:45,0.4766089,-0.5604346,9.946517,-0.0019312352,0.0016930832,6.589452E-4,9.973687543205001,0.0026514918195802905,stand
19/08/2020, 20:40:45,0.4766089,-0.5604346,9.946517,-0.0031529646,0.0016930832,0.0678541,9.973687543205001,0.0679484103165167,stand
19/08/2020, 20:40:45,-0.22513184,-0.39278322,9.862691,-0.0031529646,0.0016930832,0.0678541,9.87307628353759,0.0679484103165167,stand
19/08/2020, 20:40:45,-0.22513184,-0.39278322,9.862691,-0.0055964254,0.002914813,0.07640621,9.87307628353759,0.07666632337693266,stand
19/08/2020, 20:40:45,-0.102985844,-0.51492923,9.939331,-0.0055964254,0.002914813,0.07640621,9.953193458171187,0.07666632337693266,stand
19/08/2020, 20:40:45,-0.102985844,-0.51492923,9.939331,-0.009261616,0.004136543,0.0922887,9.953193458171187,0.09284445680929444,stand
19/08/2020, 20:40:45,0.011975098,-0.4382886,9.922566,-0.009261616,0.004136543,0.0922887,9.932248715022395,0.09284445680929444,stand
19/08/2020, 20:40:45,0.011975098,-0.4382886,9.922566,-0.009261616,0.0016930832,0.0800714,9.932248715022395,0.08062302829499293,stand
19/08/2020, 20:40:45,-0.25147706,-0.4143384,9.872271,-0.009261616,0.0016930832,0.0800714,9.884161244981676,0.08062302829499293,stand
19/08/2020, 20:40:45,-0.25147706,-0.4143384,9.872271,-0.0031529646,-7.5037696E-4,0.039754305,9.884161244981676,0.03988620087683495,stand
19/08/2020, 20:40:45,-0.035925295,-0.44786867,9.944121,-0.0031529646,-7.5037696E-4,0.039754305,9.954266754250327,0.03988620087683495,stand
19/08/2020, 20:40:45,-0.035925295,-0.44786867,9.944121,-0.0031529646,-7.5037696E-4,0.039754305,9.954266754250327,0.03988620087683495,stand
19/08/2020, 20:40:45,0.040715333,-0.51732427,9.79084,-0.0031529646,-7.5037696E-4,0.039754305,9.804582242975595,0.03988620087683495,stand
19/08/2020, 20:40:45,0.040715333,-0.51732427,9.79084,-0.0031529646,-0.001972107,0.043419495,9.804582242975595,0.04357846896743569,stand
19/08/2020, 20:40:45,-0.117355965,-0.3879932,9.922566,-0.0031529646,-0.001972107,0.043419495,9.930842631585795,0.04357846896743569,stand
19/08/2020, 20:40:45,-0.117355965,-0.3879932,9.922566,-0.004374696,-7.5037696E-4,0.026315276,9.930842631585795,0.02668697732976565,stand
19/08/2020, 20:40:45,-0.050295413,-0.4406836,9.8938265,-0.004374696,-7.5037696E-4,0.026315276,9.903763636905278,0.02668697732976565,stand
19/08/2020, 20:40:45,-0.050295413,-0.4406836,9.8938265,-0.0019312352,-7.5037696E-4,0.016541436,9.903763636905278,0.016670688357288535,stand
19/08/2020, 20:40:45,-0.10538086,-0.42870852,9.999207,-0.0019312352,-7.5037696E-4,0.016541436,10.008947377889303,0.016670688357288535,stand
19/08/2020, 20:40:45,-0.10538086,-0.42870852,9.999207,-7.0950575E-4,-7.5037696E-4,0.006767595,10.008947377889303,0.00684593372781468,stand
19/08/2020, 20:40:45,-0.059875492,-0.51732427,9.956097,-7.0950575E-4,-7.5037696E-4,0.006767595,9.969707616638692,0.00684593372781468,stand
19/08/2020, 20:40:45,-0.059875492,-0.51732427,9.956097,-0.0019312352,-7.5037696E-4,-5.6278496E-4,9.969707616638692,0.002146965735216506,stand
19/08/2020, 20:40:45,-0.09340577,-0.4766089,9.970467,-0.0019312352,-7.5037696E-4,-5.6278496E-4,9.98228857424546,0.002146965735216506,stand
19/08/2020, 20:40:45,-0.09340577,-0.4766089,9.970467,-7.0950575E-4,4.7135307E-4,-5.6278496E-4,9.98228857424546,0.001020930475394288,stand
19/08/2020, 20:40:45,-0.059875492,-0.4239185,9.958491,-7.0950575E-4,4.7135307E-4,-5.6278496E-4,9.96768987452202,0.001020930475394288,stand
19/08/2020, 20:40:46,-0.098195806,-0.4406836,9.865086,0.073816024,-0.12170165,-0.003006245,9.87541180840187,0.14236971084047306,stand
19/08/2020, 20:40:46,-0.021555176,-0.47181886,9.860296,0.073816024,-0.12170165,-0.003006245,9.871601683216989,0.14236971084047306,stand
19/08/2020, 20:40:46,-0.021555176,-0.47181886,9.860296,0.10558101,-0.17423604,-0.005449705,9.871601683216989,0.2038019814438388,stand
19/08/2020, 20:40:46,0.026345216,-0.37122804,10.001602,0.10558101,-0.17423604,-0.005449705,10.008523884745326,0.2038019814438388,stand
19/08/2020, 20:40:46,0.026345216,-0.37122804,10.001602,0.053046614,-0.09238013,-0.001784515,10.008523884745326,0.106542085302528,stand
19/08/2020, 20:40:46,0.19160157,-0.33290774,10.013577,0.053046614,-0.09238013,-0.001784515,10.020941687112904,0.106542085302528,stand
19/08/2020, 20:40:46,0.19160157,-0.33290774,10.013577,-0.016591994,0.037123255,0.005545865,10.020941687112904,0.04103884718547394,stand
19/08/2020, 20:40:46,0.059875492,-0.48618898,10.035132,-0.016591994,0.037123255,0.005545865,10.047081528771097,0.04103884718547394,stand
19/08/2020, 20:40:46,0.059875492,-0.48618898,10.035132,0.0848116,0.071331695,6.589452E-4,10.047081528771097,0.11082261523085515,stand
19/08/2020, 20:40:46,-0.06706055,0.050295413,10.066268,0.0848116,0.071331695,6.589452E-4,10.066616985571255,0.11082261523085515,stand
19/08/2020, 20:40:46,-0.06706055,0.050295413,10.066268,0.36458775,0.06277958,-0.001784515,10.066616985571255,0.36995768800623224,stand
19/08/2020, 20:40:46,0.06945557,-0.33530274,10.209969,0.36458775,0.06277958,-0.001784515,10.215708988663462,0.36995768800623224,stand
19/08/2020, 20:40:46,0.06945557,-0.33530274,10.209969,0.6040469,0.105540134,-0.001784515,10.215708988663462,0.6132002438577857,stand
19/08/2020, 20:40:46,0.13651612,-0.40954837,9.903406,0.6040469,0.105540134,-0.001784515,9.912810890866961,0.6132002438577857,stand
19/08/2020, 20:40:46,0.13651612,-0.40954837,9.903406,0.6602465,0.16418317,-0.006671435,9.912810890866961,0.6803866920194295,stand
19/08/2020, 20:40:46,0.13172609,-0.5029541,10.123748,0.6602465,0.16418317,-0.006671435,10.137089555233713,0.6803866920194295,stand
19/08/2020, 20:40:46,0.13172609,-0.5029541,10.123748,0.62725973,0.28146926,-0.010336625,10.137089555233713,0.6875947630851991,stand
19/08/2020, 20:40:46,0.083825685,-0.28740236,10.075848,0.62725973,0.28146926,-0.010336625,10.080294253638073,0.6875947630851991,stand
19/08/2020, 20:40:46,0.083825685,-0.28740236,10.075848,0.53563,0.23993044,-0.018888734,10.080294253638073,0.5872162141413636,stand
19/08/2020, 20:40:46,-0.23950197,-0.06706055,9.467513,0.53563,0.23993044,-0.018888734,9.470779393159798,0.5872162141413636,stand
19/08/2020, 20:40:46,-0.23950197,-0.06706055,9.467513,0.26562765,-0.08504975,-0.022553924,9.470779393159798,0.27982170919813837,stand
19/08/2020, 20:40:46,-0.43110353,-0.2778223,9.73815,0.26562765,-0.08504975,-0.022553924,9.751645704309448,0.27982170919813837,stand
19/08/2020, 20:40:46,-0.43110353,-0.2778223,9.73815,0.060376994,-0.020298058,-0.009114895,9.751645704309448,0.06434651442490988,stand
19/08/2020, 20:40:46,-0.119750984,-0.4406836,10.102193,0.060376994,-0.020298058,-0.009114895,10.112509248218391,0.06434651442490988,stand
19/08/2020, 20:40:46,-0.119750984,-0.4406836,10.102193,-0.017813725,0.037123255,0.011654516,10.112509248218391,0.04279360517351322,stand
19/08/2020, 20:40:46,-0.33530274,-0.42870852,9.901011,-0.017813725,0.037123255,0.011654516,9.915959207009541,0.04279360517351322,stand
19/08/2020, 20:40:46,-0.33530274,-0.42870852,9.901011,-0.010483345,0.0065800026,0.007989326,9.915959207009541,0.0147318118352638,stand
19/08/2020, 20:40:46,0.016765138,-0.1341211,10.032737,-0.010483345,0.0065800026,0.007989326,10.033647233310504,0.0147318118352638,stand
19/08/2020, 20:40:46,0.016765138,-0.1341211,10.032737,-7.0950575E-4,-0.011745947,0.0018806751,10.033647233310504,0.011916694920701526,stand
19/08/2020, 20:40:46,-0.13891114,-0.12933107,9.848321,-7.0950575E-4,-0.011745947,0.0018806751,9.850149673046685,0.011916694920701526,stand
19/08/2020, 20:40:47,-0.07664063,-0.10538086,9.881851,-0.0031529646,-7.5037696E-4,-5.6278496E-4,9.882710254670974,0.0032895255726364914,stand
19/08/2020, 20:40:47,-0.07664063,-0.10538086,9.881851,-0.0019312352,4.7135307E-4,0.0018806751,9.882710254670974,0.002736563881287915,stand
19/08/2020, 20:40:47,-0.07664063,-0.102985844,9.912986,-0.0019312352,4.7135307E-4,0.0018806751,9.91381699319755,0.002736563881287915,stand
19/08/2020, 20:40:47,-0.07664063,-0.102985844,9.912986,-7.0950575E-4,0.0016930832,0.0018806751,9.91381699319755,0.0026280920729226556,stand
19/08/2020, 20:40:47,-0.07185059,-0.100590825,9.948912,-7.0950575E-4,0.0016930832,0.0018806751,9.949679611757192,0.0026280920729226556,stand
19/08/2020, 20:40:47,-0.07185059,-0.100590825,9.948912,5.1222555E-4,-7.5037696E-4,-5.6278496E-4,9.949679611757192,0.0010687223729304468,stand
19/08/2020, 20:40:47,-0.06227051,-0.15088624,9.965676,5.1222555E-4,-7.5037696E-4,-5.6278496E-4,9.967013020090599,0.0010687223729304468,stand
19/08/2020, 20:40:47,-0.06227051,-0.15088624,9.965676,-0.0019312352,-7.5037696E-4,6.589452E-4,9.967013020090599,0.0021741535611148333,stand
19/08/2020, 20:40:47,-0.06227051,-0.10538086,10.008787,-0.0019312352,-7.5037696E-4,6.589452E-4,10.009535606606947,0.0021741535611148333,stand
19/08/2020, 20:40:47,-0.06227051,-0.10538086,10.008787,-7.0950575E-4,-7.5037696E-4,-5.6278496E-4,10.009535606606947,0.0011760913674496113,stand
19/08/2020, 20:40:47,-0.05748047,-0.11496094,9.929751,-7.0950575E-4,-7.5037696E-4,-5.6278496E-4,9.93058320602088,0.0011760913674496113,stand
19/08/2020, 20:40:47,-0.05748047,-0.11496094,9.929751,-0.0019312352,4.7135307E-4,-5.6278496E-4,9.93058320602088,0.0020660517900558694,stand
19/08/2020, 20:40:47,-0.06466553,-0.117355965,9.879456,-0.0019312352,4.7135307E-4,-5.6278496E-4,9.880364180655025,0.0020660517900558694,stand
19/08/2020, 20:40:47,-0.06466553,-0.117355965,9.879456,-0.0019312352,0.0016930832,6.589452E-4,9.880364180655025,0.0026514918195802905,stand
19/08/2020, 20:40:47,-0.05508545,-0.07424561,9.898616,-0.0019312352,0.0016930832,6.589452E-4,9.899047545485605,0.0026514918195802905,stand
19/08/2020, 20:40:47,-0.05508545,-0.07424561,9.898616,-0.0019312352,4.7135307E-4,-5.6278496E-4,9.899047545485605,0.0020660517900558694,stand
19/08/2020, 20:40:47,-0.06706055,-0.102985844,9.965676,-0.0019312352,4.7135307E-4,-5.6278496E-4,9.966434039875715,0.0020660517900558694,stand
19/08/2020, 20:40:47,-0.06706055,-0.102985844,9.965676,-0.0055964254,4.7135307E-4,-5.6278496E-4,9.966434039875715,0.0056443669003441044,stand
19/08/2020, 20:40:47,-0.043110352,-0.12693603,10.013577,-0.0055964254,4.7135307E-4,-5.6278496E-4,10.014474765624252,0.0056443669003441044,stand
19/08/2020, 20:40:47,-0.043110352,-0.12693603,10.013577,-0.0055964254,4.7135307E-4,6.589452E-4,10.014474765624252,0.005654764322658786,stand
19/08/2020, 20:40:47,-0.05269043,-0.11256592,9.994417,-0.0055964254,4.7135307E-4,6.589452E-4,9.995189960508819,0.005654764322658786,stand
19/08/2020, 20:40:47,-0.05269043,-0.11256592,9.994417,-0.0019312352,4.7135307E-4,-5.6278496E-4,9.995189960508819,0.0020660517900558694,stand
19/08/2020, 20:40:47,-0.045505375,-0.15088624,9.980047,-0.0019312352,4.7135307E-4,-5.6278496E-4,9.981291501006398,0.0020660517900558694,stand
19/08/2020, 20:40:47,-0.045505375,-0.15088624,9.980047,-0.0031529646,-0.001972107,6.589452E-4,9.981291501006398,0.0037768506333898505,stand
19/08/2020, 20:40:47,-0.07185059,-0.10777588,9.8938265,-0.0031529646,-0.001972107,6.589452E-4,9.894674358311002,0.0037768506333898505,stand
19/08/2020, 20:40:47,-0.07185059,-0.10777588,9.8938265,-0.0031529646,4.7135307E-4,6.589452E-4,9.894674358311002,0.003255390677498371,stand
19/08/2020, 20:40:47,-0.033530276,-0.12454102,9.915381,-0.0031529646,4.7135307E-4,6.589452E-4,9.91622023148295,0.003255390677498371,stand
19/08/2020, 20:40:47,-0.033530276,-0.12454102,9.915381,-0.0019312352,-7.5037696E-4,6.589452E-4,9.91622023148295,0.0021741535611148333,stand
19/08/2020, 20:40:47,-0.05748047,-0.07185059,9.85311,-0.0019312352,-7.5037696E-4,6.589452E-4,9.853539940550991,0.0021741535611148333,stand
19/08/2020, 20:40:47,-0.05748047,-0.07185059,9.85311,-0.0019312352,4.7135307E-4,6.589452E-4,9.853539940550991,0.0020942902946601318,stand
19/08/2020, 20:40:48,-0.06706055,-0.081430666,9.915381,-7.0950575E-4,0.0016930832,-0.001784515,9.915942567643752,0.0025601607150104997,stand
19/08/2020, 20:40:48,-0.06706055,-0.081430666,9.915381,-7.0950575E-4,-7.5037696E-4,-5.6278496E-4,9.915942567643752,0.0011760913674496113,stand
19/08/2020, 20:40:48,-0.09580079,-0.10538086,9.879456,-7.0950575E-4,-7.5037696E-4,-5.6278496E-4,9.880482033064071,0.0011760913674496113,stand
19/08/2020, 20:40:48,-0.09580079,-0.10538086,9.879456,-0.0031529646,-7.5037696E-4,-0.001784515,9.880482033064071,0.0036998304438352475,stand
19/08/2020, 20:40:48,-0.035925295,-0.15088624,10.075848,-0.0031529646,-7.5037696E-4,-0.001784515,10.077041364434141,0.0036998304438352475,stand
19/08/2020, 20:40:48,-0.035925295,-0.15088624,10.075848,-0.0019312352,-0.0031938371,-5.6278496E-4,10.077041364434141,0.0037745187596826386,stand
19/08/2020, 20:40:48,-0.050295413,-0.119750984,9.951306,-0.0019312352,-0.0031938371,-5.6278496E-4,9.95215393070723,0.0037745187596826386,stand
19/08/2020, 20:40:48,-0.050295413,-0.119750984,9.951306,-0.0031529646,-7.5037696E-4,-5.6278496E-4,9.95215393070723,0.0032895255726364914,stand
19/08/2020, 20:40:48,-0.06227051,-0.13651612,9.929751,-0.0031529646,-7.5037696E-4,-5.6278496E-4,9.93088500882829,0.0032895255726364914,stand
19/08/2020, 20:40:48,-0.06227051,-0.13651612,9.929751,-0.0019312352,0.002914813,-0.001784515,9.93088500882829,0.003925595317741025,stand
19/08/2020, 20:40:48,-0.05748047,-0.11496094,9.951306,-0.0019312352,0.002914813,-0.001784515,9.952136351335719,0.003925595317741025,stand
19/08/2020, 20:40:48,-0.05748047,-0.11496094,9.951306,-0.0019312352,0.004136543,-5.6278496E-4,9.952136351335719,0.004599715484419106,stand
19/08/2020, 20:40:48,-0.06227051,-0.12454102,9.982442,-0.0019312352,0.004136543,-5.6278496E-4,9.983412964145947,0.004599715484419106,stand
19/08/2020, 20:40:48,-0.06227051,-0.12454102,9.982442,-0.004374696,4.7135307E-4,6.589452E-4,9.983412964145947,0.0044490838434692705,stand
19/08/2020, 20:40:48,-0.05748047,-0.14130616,10.0063925,-0.004374696,4.7135307E-4,6.589452E-4,10.007555239836854,0.0044490838434692705,stand
19/08/2020, 20:40:48,-0.05748047,-0.14130616,10.0063925,-0.004374696,4.7135307E-4,-5.6278496E-4,10.007555239836854,0.004435861270047197,stand
19/08/2020, 20:40:48,-0.081430666,-0.1101709,9.908196,-0.004374696,4.7135307E-4,-5.6278496E-4,9.909143527989581,0.004435861270047197,stand
19/08/2020, 20:40:48,-0.081430666,-0.1101709,9.908196,-7.0950575E-4,-7.5037696E-4,6.589452E-4,9.909143527989581,0.001225019487071147,stand
19/08/2020, 20:40:48,-0.08861572,-0.08861572,9.946517,-7.0950575E-4,-7.5037696E-4,6.589452E-4,9.947306456434813,0.001225019487071147,stand
19/08/2020, 20:40:48,-0.08861572,-0.08861572,9.946517,-0.0019312352,-7.5037696E-4,0.0018806751,9.947306456434813,0.002798155418373016,stand
19/08/2020, 20:40:48,-0.043110352,-0.08861572,9.869876,-0.0019312352,-7.5037696E-4,0.0018806751,9.870367859715738,0.002798155418373016,stand
19/08/2020, 20:40:48,-0.043110352,-0.08861572,9.869876,-0.0031529646,-7.5037696E-4,6.589452E-4,9.870367859715738,0.003307334324217011,stand
19/08/2020, 20:40:48,-0.086220704,-0.086220704,9.946517,-0.0031529646,-7.5037696E-4,6.589452E-4,9.94726436087447,0.003307334324217011,stand
19/08/2020, 20:40:48,-0.086220704,-0.086220704,9.946517,5.1222555E-4,-7.5037696E-4,-0.001784515,9.94726436087447,0.0020024820424919603,stand
19/08/2020, 20:40:48,-0.05269043,-0.1341211,9.958491,5.1222555E-4,-7.5037696E-4,-0.001784515,9.959533835980116,0.0020024820424919603,stand
19/08/2020, 20:40:48,-0.05269043,-0.1341211,9.958491,-7.0950575E-4,-7.5037696E-4,-5.6278496E-4,9.959533835980116,0.0011760913674496113,stand
19/08/2020, 20:40:48,-0.06706055,-0.12454102,9.946517,-7.0950575E-4,-7.5037696E-4,-5.6278496E-4,9.947522698107239,0.0011760913674496113,stand
19/08/2020, 20:40:48,-0.06706055,-0.12454102,9.946517,-0.0031529646,0.0016930832,6.589452E-4,9.947522698107239,0.003638945656936482,stand
19/08/2020, 20:40:48,-0.07903565,-0.122146,9.953702,-0.0031529646,0.0016930832,6.589452E-4,9.954765152734788,0.003638945656936482,stand
19/08/2020, 20:40:48,-0.07903565,-0.122146,9.953702,-7.0950575E-4,-0.001972107,-5.6278496E-4,9.954765152734788,0.0021700993708544357,stand
19/08/2020, 20:40:49,-0.06706055,-0.083825685,9.891431,-0.0031529646,0.002914813,-5.6278496E-4,9.892013355147864,0.004330594463050686,stand
19/08/2020, 20:40:49,-0.06706055,-0.083825685,9.891431,-0.004374696,0.0016930832,-5.6278496E-4,9.892013355147864,0.004724534076297716,stand
19/08/2020, 20:40:49,-0.06466553,-0.1341211,9.984837,-0.004374696,0.0016930832,-5.6278496E-4,9.98594670518529,0.004724534076297716,stand
19/08/2020, 20:40:49,-0.06466553,-0.1341211,9.984837,-0.004374696,-0.001972107,0.0018806751,9.98594670518529,0.005154038157413589,stand
19/08/2020, 20:40:49,-0.05508545,-0.13651612,9.924961,-0.004374696,-0.001972107,0.0018806751,9.926052775334227,0.005154038157413589,stand
19/08/2020, 20:40:49,-0.05508545,-0.13651612,9.924961,-0.0031529646,4.7135307E-4,6.589452E-4,9.926052775334227,0.003255390677498371,stand
19/08/2020, 20:40:49,-0.09340577,-0.083825685,9.8938265,-0.0031529646,4.7135307E-4,6.589452E-4,9.894622473444135,0.003255390677498371,stand
19/08/2020, 20:40:49,-0.09340577,-0.083825685,9.8938265,-0.0031529646,0.0016930832,6.589452E-4,9.894622473444135,0.003638945656936482,stand
19/08/2020, 20:40:49,-0.05748047,-0.1341211,9.944121,-0.0031529646,0.0016930832,6.589452E-4,9.945191909313774,0.003638945656936482,stand
19/08/2020, 20:40:49,-0.05748047,-0.1341211,9.944121,-0.004374696,4.7135307E-4,6.589452E-4,9.945191909313774,0.0044490838434692705,stand
19/08/2020, 20:40:49,-0.026345216,-0.09340577,9.8866415,-0.004374696,4.7135307E-4,6.589452E-4,9.887117825965733,0.0044490838434692705,stand
19/08/2020, 20:40:49,-0.026345216,-0.09340577,9.8866415,-0.0055964254,-7.5037696E-4,-0.001784515,9.887117825965733,0.005921784899403346,stand
19/08/2020, 20:40:49,-0.059875492,-0.19639161,9.982442,-0.0055964254,-7.5037696E-4,-0.001784515,9.984553123196553,0.005921784899403346,stand
19/08/2020, 20:40:49,-0.059875492,-0.19639161,9.982442,-0.0031529646,0.0016930832,6.589452E-4,9.984553123196553,0.003638945656936482,stand
19/08/2020, 20:40:49,-0.033530276,-0.05508545,9.869876,-0.0031529646,0.0016930832,6.589452E-4,9.870086581361786,0.003638945656936482,stand
19/08/2020, 20:40:49,-0.033530276,-0.05508545,9.869876,-0.0019312352,4.7135307E-4,0.0018806751,9.870086581361786,0.002736563881287915,stand
19/08/2020, 20:40:49,-0.059875492,-0.102985844,9.924961,-0.0019312352,4.7135307E-4,0.0018806751,9.925675986972843,0.002736563881287915,stand
19/08/2020, 20:40:49,-0.059875492,-0.102985844,9.924961,-0.004374696,-7.5037696E-4,6.589452E-4,9.925675986972843,0.004487230650993995,stand
19/08/2020, 20:40:49,-0.06945557,-0.119750984,9.953702,-0.004374696,-7.5037696E-4,6.589452E-4,9.954664602140891,0.004487230650993995,stand
19/08/2020, 20:40:49,-0.06945557,-0.119750984,9.953702,-0.0031529646,4.7135307E-4,-5.6278496E-4,9.954664602140891,0.003237296190346003,stand
19/08/2020, 20:40:49,-0.050295413,-0.10538086,9.903406,-0.0031529646,4.7135307E-4,-5.6278496E-4,9.904094506401998,0.003237296190346003,stand
19/08/2020, 20:40:49,-0.050295413,-0.10538086,9.903406,-0.0019312352,4.7135307E-4,-5.6278496E-4,9.904094506401998,0.0020660517900558694,stand
19/08/2020, 20:40:49,-0.035925295,-0.081430666,9.936936,-0.0019312352,4.7135307E-4,-5.6278496E-4,9.937334963166148,0.0020660517900558694,stand
19/08/2020, 20:40:49,-0.035925295,-0.081430666,9.936936,-7.0950575E-4,4.7135307E-4,6.589452E-4,9.937334963166148,0.001076931230257237,stand
19/08/2020, 20:40:49,-0.07664063,-0.081430666,9.855506,-7.0950575E-4,4.7135307E-4,6.589452E-4,9.856140326602558,0.001076931230257237,stand
19/08/2020, 20:40:49,-0.07664063,-0.081430666,9.855506,-0.0019312352,4.7135307E-4,-5.6278496E-4,9.856140326602558,0.0020660517900558694,stand
19/08/2020, 20:40:49,-0.07185059,-0.081430666,10.047108,-0.0019312352,4.7135307E-4,-5.6278496E-4,10.047694587638903,0.0020660517900558694,stand
19/08/2020, 20:40:49,-0.07185059,-0.081430666,10.047108,-7.0950575E-4,-7.5037696E-4,6.589452E-4,10.047694587638903,0.001225019487071147,stand
19/08/2020, 20:40:49,-0.098195806,-0.09101075,9.905801,-7.0950575E-4,-7.5037696E-4,6.589452E-4,9.90670556978483,0.001225019487071147,stand
19/08/2020, 20:40:49,-0.098195806,-0.09101075,9.905801,-0.004374696,-0.001972107,6.589452E-4,9.90670556978483,0.00484369479736423,stand
19/08/2020, 20:40:50,-0.043110352,-0.1101709,9.975257,5.1222555E-4,-0.001972107,-5.6278496E-4,9.97595843751716,0.0021138372418886475,stand
19/08/2020, 20:40:50,-0.033530276,-0.10777588,9.944121,5.1222555E-4,-0.001972107,-5.6278496E-4,9.944761915603634,0.0021138372418886475,stand
19/08/2020, 20:40:50,-0.033530276,-0.10777588,9.944121,-7.0950575E-4,-7.5037696E-4,6.589452E-4,9.944761915603634,0.001225019487071147,stand
19/08/2020, 20:40:50,-0.086220704,-0.15088624,9.915381,-7.0950575E-4,-7.5037696E-4,6.589452E-4,9.916904234700382,0.001225019487071147,stand
19/08/2020, 20:40:50,-0.086220704,-0.15088624,9.915381,-0.0019312352,4.7135307E-4,-5.6278496E-4,9.916904234700382,0.0020660517900558694,stand
19/08/2020, 20:40:50,-0.05748047,-0.14370118,9.874666,-0.0019312352,4.7135307E-4,-5.6278496E-4,9.87587904297258,0.0020660517900558694,stand
19/08/2020, 20:40:50,-0.05748047,-0.14370118,9.874666,-7.0950575E-4,0.002914813,6.589452E-4,9.87587904297258,0.003071439834032221,stand
19/08/2020, 20:40:50,-0.083825685,-0.08861572,9.881851,-7.0950575E-4,0.002914813,6.589452E-4,9.88260403726842,0.003071439834032221,stand
19/08/2020, 20:40:50,-0.083825685,-0.08861572,9.881851,-0.0031529646,0.002914813,-5.6278496E-4,9.88260403726842,0.004330594463050686,stand
19/08/2020, 20:40:50,-0.07185059,-0.12693603,9.999207,-0.0031529646,0.002914813,-5.6278496E-4,10.000270333988889,0.004330594463050686,stand
19/08/2020, 20:40:50,-0.07185059,-0.12693603,9.999207,-0.0019312352,0.0016930832,-5.6278496E-4,10.000270333988889,0.002629244574052905,stand
19/08/2020, 20:40:50,-0.059875492,-0.12693603,10.018367,-0.0019312352,0.0016930832,-5.6278496E-4,10.019349851369979,0.002629244574052905,stand
19/08/2020, 20:40:50,-0.059875492,-0.12693603,10.018367,-0.0019312352,-7.5037696E-4,-0.001784515,10.019349851369979,0.0027344521733419364,stand
19/08/2020, 20:40:50,-0.040715333,-0.11496094,9.929751,-0.0019312352,-7.5037696E-4,-0.001784515,9.930500316987814,0.0027344521733419364,stand
19/08/2020, 20:40:50,-0.040715333,-0.11496094,9.929751,-0.004374696,4.7135307E-4,-5.6278496E-4,9.930500316987814,0.004435861270047197,stand
19/08/2020, 20:40:50,-0.086220704,-0.1101709,9.922566,-0.004374696,4.7135307E-4,-5.6278496E-4,9.923552583376418,0.004435861270047197,stand
19/08/2020, 20:40:50,-0.086220704,-0.1101709,9.922566,-0.0055964254,0.0016930832,6.589452E-4,9.923552583376418,0.005883937166201578,stand
19/08/2020, 20:40:50,-0.059875492,-0.07185059,9.865086,-0.0055964254,0.0016930832,6.589452E-4,9.86552895251226,0.005883937166201578,stand
19/08/2020, 20:40:50,-0.059875492,-0.07185059,9.865086,-0.0055964254,0.002914813,6.589452E-4,9.86552895251226,0.006344314094068104,stand
19/08/2020, 20:40:50,-0.059875492,-0.117355965,10.011182,-0.0055964254,0.002914813,6.589452E-4,10.012048699323842,0.006344314094068104,stand
19/08/2020, 20:40:50,-0.059875492,-0.117355965,10.011182,-0.0019312352,0.0016930832,6.589452E-4,10.012048699323842,0.0026514918195802905,stand
19/08/2020, 20:40:50,-0.050295413,-0.047900394,9.970467,-0.0019312352,0.0016930832,6.589452E-4,9.970708529112814,0.0026514918195802905,stand
19/08/2020, 20:40:50,-0.059875492,-0.16286133,9.958491,-0.0019312352,0.0016930832,6.589452E-4,9.96000293000649,0.0026514918195802905,stand
19/08/2020, 20:40:50,-0.045505375,-0.09580079,9.910591,-0.0019312352,0.0016930832,6.589452E-4,9.911158609696502,0.0026514918195802905,stand
19/08/2020, 20:40:50,-0.045505375,-0.09580079,9.910591,-0.004374696,-7.5037696E-4,-5.6278496E-4,9.911158609696502,0.004474120815993398,stand
19/08/2020, 20:40:50,-0.045505375,-0.09580079,9.910591,-0.0055964254,-0.001972107,-5.6278496E-4,9.911158609696502,0.005960361561977103,stand
19/08/2020, 20:40:50,-0.045505375,-0.09580079,9.910591,-0.0019312352,-7.5037696E-4,-5.6278496E-4,9.911158609696502,0.002146965735216506,stand
19/08/2020, 20:40:50,-0.05748047,-0.11496094,9.869876,-0.0019312352,-7.5037696E-4,-5.6278496E-4,9.870712763477902,0.002146965735216506,stand
19/08/2020, 20:40:50,-0.05748047,-0.11496094,9.869876,-0.0031529646,4.7135307E-4,6.589452E-4,9.870712763477902,0.003255390677498371,stand
19/08/2020, 20:40:50,-0.05748047,-0.11496094,9.869876,-7.0950575E-4,4.7135307E-4,-5.6278496E-4,9.870712763477902,0.001020930475394288,stand
19/08/2020, 20:40:51,-0.043110352,-0.08861572,9.8866415,-0.004374696,0.0016930832,-0.001784515,9.88713261999631,0.005018863323323221,stand
19/08/2020, 20:40:51,-0.043110352,-0.08861572,9.8866415,-7.0950575E-4,0.002914813,-5.6278496E-4,9.88713261999631,0.003052255037667285,stand
19/08/2020, 20:40:51,-0.05508545,-0.07424561,9.977652,-7.0950575E-4,0.002914813,-5.6278496E-4,9.978079884922682,0.003052255037667285,stand
19/08/2020, 20:40:51,-0.05508545,-0.07424561,9.977652,-7.0950575E-4,0.002914813,-5.6278496E-4,9.978079884922682,0.003052255037667285,stand
19/08/2020, 20:40:51,-0.098195806,-0.11256592,9.898616,-7.0950575E-4,0.002914813,-5.6278496E-4,9.899742875098635,0.003052255037667285,stand
19/08/2020, 20:40:51,-0.098195806,-0.11256592,9.898616,-7.0950575E-4,-7.5037696E-4,-0.001784515,9.899742875098635,0.002061785082080619,stand
19/08/2020, 20:40:51,-0.09580079,-0.06466553,9.970467,-7.0950575E-4,-7.5037696E-4,-0.001784515,9.97113654095455,0.002061785082080619,stand
19/08/2020, 20:40:51,-0.09580079,-0.06466553,9.970467,-0.0031529646,-0.001972107,0.0018806751,9.97113654095455,0.004167412955899532,stand
19/08/2020, 20:40:51,-0.040715333,-0.098195806,9.929751,-0.0031529646,-0.001972107,0.0018806751,9.930320384791958,0.004167412955899532,stand
19/08/2020, 20:40:51,-0.040715333,-0.098195806,9.929751,-0.0031529646,-0.001972107,6.589452E-4,9.930320384791958,0.0037768506333898505,stand
19/08/2020, 20:40:51,-0.05748047,-0.102985844,9.831555,-0.0031529646,-0.001972107,6.589452E-4,9.83226276160761,0.0037768506333898505,stand
19/08/2020, 20:40:51,-0.05748047,-0.102985844,9.831555,-0.0031529646,4.7135307E-4,-5.6278496E-4,9.83226276160761,0.003237296190346003,stand
19/08/2020, 20:40:51,-0.09580079,-0.07903565,9.932146,-0.0031529646,4.7135307E-4,-5.6278496E-4,9.932922532044982,0.003237296190346003,stand
19/08/2020, 20:40:51,-0.09580079,-0.07903565,9.932146,-0.0019312352,0.0016930832,6.589452E-4,9.932922532044982,0.0026514918195802905,stand
19/08/2020, 20:40:51,-0.09340577,-0.119750984,9.963282,-0.0019312352,0.0016930832,6.589452E-4,9.964439061166527,0.0026514918195802905,stand
19/08/2020, 20:40:51,-0.09340577,-0.119750984,9.963282,-0.004374696,4.7135307E-4,6.589452E-4,9.964439061166527,0.0044490838434692705,stand
19/08/2020, 20:40:51,-0.06227051,-0.100590825,9.960887,-0.004374696,4.7135307E-4,6.589452E-4,9.961589484922412,0.0044490838434692705,stand
19/08/2020, 20:40:51,-0.06227051,-0.100590825,9.960887,-0.0031529646,-0.001972107,-5.6278496E-4,9.961589484922412,0.0037612655938955913,stand
19/08/2020, 20:40:51,0.0,-0.086220704,9.8866415,-0.0031529646,-0.001972107,-5.6278496E-4,9.887017457574936,0.0037612655938955913,stand
19/08/2020, 20:40:51,0.0,-0.086220704,9.8866415,-0.0031529646,-0.0031938371,0.0018806751,9.887017457574936,0.0048660785412083475,stand
19/08/2020, 20:40:51,-0.086220704,-0.14130616,9.860296,-0.0031529646,-0.0031938371,0.0018806751,9.861685635169806,0.0048660785412083475,stand
19/08/2020, 20:40:51,-0.086220704,-0.14130616,9.860296,-0.0019312352,4.7135307E-4,6.589452E-4,9.861685635169806,0.0020942902946601318,stand
19/08/2020, 20:40:51,-0.043110352,-0.102985844,9.855506,-0.0019312352,4.7135307E-4,6.589452E-4,9.856138289660256,0.0020942902946601318,stand
19/08/2020, 20:40:51,-0.043110352,-0.102985844,9.855506,-7.0950575E-4,0.0016930832,6.589452E-4,9.856138289660256,0.0019504199306039061,stand
19/08/2020, 20:40:51,-0.10777588,-0.09580079,9.932146,-7.0950575E-4,0.0016930832,6.589452E-4,9.933192791584831,0.0019504199306039061,stand
19/08/2020, 20:40:51,-0.10777588,-0.09580079,9.932146,-7.0950575E-4,4.7135307E-4,6.589452E-4,9.933192791584831,0.001076931230257237,stand
19/08/2020, 20:40:51,-0.06466553,-0.098195806,10.015972,-7.0950575E-4,4.7135307E-4,6.589452E-4,10.016662213820473,0.001076931230257237,stand
19/08/2020, 20:40:51,-0.06466553,-0.098195806,10.015972,-0.0019312352,-7.5037696E-4,6.589452E-4,10.016662213820473,0.0021741535611148333,stand
19/08/2020, 20:40:51,-0.035925295,-0.100590825,9.936936,-0.0019312352,-7.5037696E-4,6.589452E-4,9.93751043928334,0.0021741535611148333,stand
19/08/2020, 20:40:51,-0.035925295,-0.100590825,9.936936,-0.004374696,-7.5037696E-4,6.589452E-4,9.93751043928334,0.004487230650993995,stand
19/08/2020, 20:40:52,-0.028740235,-0.050295413,9.903406,-0.004374696,-7.5037696E-4,-5.6278496E-4,9.903575559693325,0.004474120815993398,stand
19/08/2020, 20:40:52,-0.06945557,-0.119750984,9.951306,-0.004374696,-7.5037696E-4,-5.6278496E-4,9.952269203974405,0.004474120815993398,stand
19/08/2020, 20:40:52,-0.06945557,-0.119750984,9.951306,-7.0950575E-4,-7.5037696E-4,-0.001784515,9.952269203974405,0.002061785082080619,stand
19/08/2020, 20:40:52,-0.1101709,-0.081430666,9.970467,-7.0950575E-4,-7.5037696E-4,-0.001784515,9.971407778095836,0.002061785082080619,stand
19/08/2020, 20:40:52,-0.1101709,-0.081430666,9.970467,-0.0031529646,0.0016930832,0.0018806751,9.971407778095836,0.004042852400496318,stand
19/08/2020, 20:40:52,-0.07903565,-0.12693603,10.008787,-0.0031529646,0.0016930832,0.0018806751,10.009904080820188,0.004042852400496318,stand
19/08/2020, 20:40:52,-0.07903565,-0.12693603,10.008787,-0.0031529646,4.7135307E-4,6.589452E-4,10.009904080820188,0.003255390677498371,stand
19/08/2020, 20:40:52,-0.07185059,-0.07903565,9.927357,-0.0031529646,4.7135307E-4,6.589452E-4,9.927931334695051,0.003255390677498371,stand
19/08/2020, 20:40:52,-0.07185059,-0.07903565,9.927357,-0.0019312352,-7.5037696E-4,6.589452E-4,9.927931334695051,0.0021741535611148333,stand
19/08/2020, 20:40:52,-0.09101075,-0.07185059,9.927357,-0.0019312352,-7.5037696E-4,6.589452E-4,9.928033889415612,0.0021741535611148333,stand
19/08/2020, 20:40:52,-0.09101075,-0.07185059,9.927357,-7.0950575E-4,-7.5037696E-4,0.0018806751,9.928033889415612,0.002145554189892675,stand
19/08/2020, 20:40:52,-0.098195806,-0.100590825,9.932146,-7.0950575E-4,-7.5037696E-4,0.0018806751,9.93314081918108,0.002145554189892675,stand
19/08/2020, 20:40:52,-0.098195806,-0.100590825,9.932146,-0.0019312352,-7.5037696E-4,6.589452E-4,9.93314081918108,0.0021741535611148333,stand
19/08/2020, 20:40:52,-0.09101075,-0.13891114,9.939331,-0.0019312352,-7.5037696E-4,6.589452E-4,9.940718338068187,0.0021741535611148333,stand
19/08/2020, 20:40:52,-0.09101075,-0.13891114,9.939331,-7.0950575E-4,4.7135307E-4,6.589452E-4,9.940718338068187,0.001076931230257237,stand
19/08/2020, 20:40:52,-0.06945557,-0.08861572,10.027947,-7.0950575E-4,4.7135307E-4,6.589452E-4,10.028579480575512,0.001076931230257237,stand
19/08/2020, 20:40:52,-0.06945557,-0.08861572,10.027947,5.1222555E-4,0.0016930832,6.589452E-4,10.028579480575512,0.0018876213898739158,stand
19/08/2020, 20:40:52,-0.102985844,-0.083825685,9.963282,5.1222555E-4,0.0016930832,6.589452E-4,9.964166482828833,0.0018876213898739158,stand
19/08/2020, 20:40:52,-0.102985844,-0.083825685,9.963282,-0.0019312352,0.0016930832,-5.6278496E-4,9.964166482828833,0.002629244574052905,stand
19/08/2020, 20:40:52,-0.08861572,-0.11496094,9.922566,-0.0019312352,0.0016930832,-5.6278496E-4,9.923628016084997,0.002629244574052905,stand
19/08/2020, 20:40:52,-0.08861572,-0.11496094,9.922566,-7.0950575E-4,-7.5037696E-4,-5.6278496E-4,9.923628016084997,0.0011760913674496113,stand
19/08/2020, 20:40:52,-0.07903565,-0.05508545,9.910591,-7.0950575E-4,-7.5037696E-4,-5.6278496E-4,9.911059352914021,0.0011760913674496113,stand
19/08/2020, 20:40:52,-0.07903565,-0.05508545,9.910591,-0.0019312352,0.0016930832,-5.6278496E-4,9.911059352914021,0.002629244574052905,stand
19/08/2020, 20:40:52,-0.045505375,-0.11256592,9.934542,-0.0019312352,0.0016930832,-5.6278496E-4,9.9352836225025,0.002629244574052905,stand
19/08/2020, 20:40:52,-0.045505375,-0.11256592,9.934542,-0.0019312352,0.0016930832,-5.6278496E-4,9.9352836225025,0.002629244574052905,stand
19/08/2020, 20:40:52,-0.05269043,-0.10538086,9.958491,-0.0019312352,0.0016930832,-5.6278496E-4,9.95918826438594,0.002629244574052905,stand
19/08/2020, 20:40:52,-0.05269043,-0.10538086,9.958491,-0.0019312352,4.7135307E-4,-0.003006245,9.95918826438594,0.003604074381195131,stand
19/08/2020, 20:40:52,-0.07424561,-0.1341211,9.968072,-0.0019312352,4.7135307E-4,-0.003006245,9.969250675638818,0.003604074381195131,stand
19/08/2020, 20:40:52,-0.07424561,-0.1341211,9.968072,-0.0031529646,-7.5037696E-4,6.589452E-4,9.969250675638818,0.003307334324217011,stand
19/08/2020, 20:40:52,-0.043110352,-0.1101709,9.884246,-0.0031529646,-7.5037696E-4,6.589452E-4,9.884953849048728,0.003307334324217011,stand
19/08/2020, 20:40:53,-0.06945557,-0.07185059,9.960887,-0.0019312352,4.7135307E-4,6.589452E-4,9.961388232532848,0.0020942902946601318,stand
19/08/2020, 20:40:53,-0.059875492,-0.102985844,9.881851,-0.0019312352,4.7135307E-4,6.589452E-4,9.882569211708578,0.0020942902946601318,stand
19/08/2020, 20:40:53,-0.059875492,-0.102985844,9.881851,-0.0031529646,4.7135307E-4,-5.6278496E-4,9.882569211708578,0.003237296190346003,stand
19/08/2020, 20:40:53,-0.06466553,-0.117355965,9.917776,-0.0031529646,4.7135307E-4,-5.6278496E-4,9.918681211632302,0.003237296190346003,stand
19/08/2020, 20:40:53,-0.06466553,-0.117355965,9.917776,-0.0031529646,0.0016930832,-0.003006245,9.918681211632302,0.0046738876538719165,stand
19/08/2020, 20:40:53,-0.07903565,-0.086220704,9.922566,-0.0031529646,0.0016930832,-0.003006245,9.923255760141396,0.0046738876538719165,stand
19/08/2020, 20:40:53,-0.07903565,-0.086220704,9.922566,-0.0031529646,0.002914813,-5.6278496E-4,9.923255760141396,0.004330594463050686,stand
19/08/2020, 20:40:53,-0.098195806,-0.07185059,9.898616,-0.0031529646,0.002914813,-5.6278496E-4,9.899363636826228,0.004330594463050686,stand
19/08/2020, 20:40:53,-0.098195806,-0.07185059,9.898616,-0.0031529646,0.002914813,6.589452E-4,9.899363636826228,0.004344137456678807,stand
19/08/2020, 20:40:53,-0.07424561,-0.117355965,9.982442,-0.0031529646,0.002914813,6.589452E-4,9.983407793086423,0.004344137456678807,stand
19/08/2020, 20:40:53,-0.07424561,-0.117355965,9.982442,-7.0950575E-4,0.0016930832,0.0018806751,9.983407793086423,0.0026280920729226556,stand
19/08/2020, 20:40:53,-0.09101075,-0.09340577,9.920172,-7.0950575E-4,0.0016930832,0.0018806751,9.921028923399376,0.0026280920729226556,stand
19/08/2020, 20:40:53,-0.09101075,-0.09340577,9.920172,-0.0031529646,4.7135307E-4,6.589452E-4,9.921028923399376,0.003255390677498371,stand
19/08/2020, 20:40:53,-0.038320314,-0.098195806,9.8866415,-0.0031529646,4.7135307E-4,6.589452E-4,9.887203399314203,0.003255390677498371,stand
19/08/2020, 20:40:53,-0.038320314,-0.098195806,9.8866415,-0.0031529646,4.7135307E-4,-0.003006245,9.887203399314203,0.004381879593282174,stand
19/08/2020, 20:40:53,-0.06945557,-0.07185059,9.891431,-0.0031529646,4.7135307E-4,-0.003006245,9.8919356517816,0.004381879593282174,stand
19/08/2020, 20:40:53,-0.06945557,-0.07185059,9.891431,-0.0019312352,4.7135307E-4,-5.6278496E-4,9.8919356517816,0.0020660517900558694,stand
19/08/2020, 20:40:53,-0.086220704,-0.09580079,9.81958,-0.0019312352,4.7135307E-4,-5.6278496E-4,9.820425892563982,0.0020660517900558694,stand
19/08/2020, 20:40:53,-0.086220704,-0.09580079,9.81958,-0.0031529646,0.002914813,6.589452E-4,9.820425892563982,0.004344137456678807,stand
19/08/2020, 20:40:53,-0.07664063,-0.1101709,9.982442,-0.0031529646,0.002914813,6.589452E-4,9.983344016075144,0.004344137456678807,stand
19/08/2020, 20:40:53,-0.07664063,-0.1101709,9.982442,-0.0031529646,4.7135307E-4,0.003102405,9.983344016075144,0.004448401564174203,stand
19/08/2020, 20:40:53,-0.06466553,-0.098195806,9.987232,-0.0031529646,4.7135307E-4,0.003102405,9.987924270293895,0.004448401564174203,stand
19/08/2020, 20:40:53,-0.06466553,-0.098195806,9.987232,-0.0019312352,-7.5037696E-4,-5.6278496E-4,9.987924270293895,0.002146965735216506,stand
19/08/2020, 20:40:53,-0.102985844,-0.119750984,9.960887,-0.0019312352,-7.5037696E-4,-5.6278496E-4,9.96213909347451,0.002146965735216506,stand
19/08/2020, 20:40:53,-0.102985844,-0.119750984,9.960887,0.001733955,-7.5037696E-4,-5.6278496E-4,9.96213909347451,0.0019713935225006514,stand
19/08/2020, 20:40:53,-0.035925295,-0.043110352,9.896221,0.001733955,-7.5037696E-4,-5.6278496E-4,9.896380267274829,0.0019713935225006514,stand
19/08/2020, 20:40:53,-0.035925295,-0.043110352,9.896221,-0.0031529646,4.7135307E-4,0.0018806751,9.896380267274829,0.0037013914277208323,stand
19/08/2020, 20:40:53,-0.11256592,-0.12933107,9.908196,-0.0031529646,4.7135307E-4,0.0018806751,9.909679837853265,0.0037013914277208323,stand
19/08/2020, 20:40:53,-0.11256592,-0.12933107,9.908196,-7.0950575E-4,0.0016930832,0.0018806751,9.909679837853265,0.0026280920729226556,stand
19/08/2020, 20:40:53,-0.09101075,-0.06466553,10.023157,-7.0950575E-4,0.0016930832,0.0018806751,10.023778889966907,0.0026280920729226556,stand
19/08/2020, 20:40:54,-0.038320314,-0.07664063,9.891431,-0.0019312352,0.004136543,-0.003006245,9.8918019889005,0.005466092268119786,stand
19/08/2020, 20:40:54,-0.100590825,-0.100590825,9.970467,-0.0019312352,0.004136543,-0.003006245,9.971481410726982,0.005466092268119786,stand
19/08/2020, 20:40:54,-0.100590825,-0.100590825,9.970467,-0.0019312352,0.0016930832,-5.6278496E-4,9.971481410726982,0.002629244574052905,stand
19/08/2020, 20:40:54,-0.102985844,-0.12454102,9.994417,-0.0019312352,0.0016930832,-5.6278496E-4,9.995723662096506,0.002629244574052905,stand
19/08/2020, 20:40:54,-0.102985844,-0.12454102,9.994417,-0.0019312352,-0.001972107,-0.001784515,9.995723662096506,0.0032868478916870734,stand
19/08/2020, 20:40:54,-0.06706055,-0.08861572,9.901011,-0.0019312352,-0.001972107,-0.001784515,9.901635114127888,0.0032868478916870734,stand
19/08/2020, 20:40:54,-0.06706055,-0.08861572,9.901011,-0.0019312352,-7.5037696E-4,-5.6278496E-4,9.901635114127888,0.002146965735216506,stand
19/08/2020, 20:40:54,-0.040715333,-0.12454102,9.924961,-0.0019312352,-7.5037696E-4,-5.6278496E-4,9.925825952747598,0.002146965735216506,stand
19/08/2020, 20:40:54,-0.040715333,-0.12454102,9.924961,-0.0031529646,4.7135307E-4,-5.6278496E-4,9.925825952747598,0.003237296190346003,stand
19/08/2020, 20:40:54,-0.05748047,-0.06945557,9.898616,-0.0031529646,4.7135307E-4,-5.6278496E-4,9.899026395115618,0.003237296190346003,stand
19/08/2020, 20:40:54,-0.05748047,-0.06945557,9.898616,-0.0031529646,0.002914813,-5.6278496E-4,9.899026395115618,0.004330594463050686,stand
19/08/2020, 20:40:54,-0.081430666,-0.09580079,9.917776,-0.0031529646,0.002914813,-5.6278496E-4,9.918573066143725,0.004330594463050686,stand
19/08/2020, 20:40:54,-0.081430666,-0.09580079,9.917776,-0.0031529646,-7.5037696E-4,6.589452E-4,9.918573066143725,0.003307334324217011,stand
19/08/2020, 20:40:54,-0.06227051,-0.10538086,9.956097,-0.0031529646,-7.5037696E-4,6.589452E-4,9.956849061345755,0.003307334324217011,stand
19/08/2020, 20:40:54,-0.06227051,-0.10538086,9.956097,-0.004374696,-0.001972107,-5.6278496E-4,9.956849061345755,0.00483155228171017,stand
19/08/2020, 20:40:54,-0.059875492,-0.13172609,9.924961,-0.004374696,-0.001972107,-5.6278496E-4,9.926015790641848,0.00483155228171017,stand
19/08/2020, 20:40:54,-0.059875492,-0.13172609,9.924961,-0.004374696,-0.001972107,-5.6278496E-4,9.926015790641848,0.00483155228171017,stand
19/08/2020, 20:40:54,-0.05748047,-0.12454102,9.999207,-0.004374696,-0.001972107,-5.6278496E-4,10.000147296887036,0.00483155228171017,stand
19/08/2020, 20:40:54,-0.05748047,-0.12454102,9.999207,-7.0950575E-4,4.7135307E-4,-5.6278496E-4,10.000147296887036,0.001020930475394288,stand
19/08/2020, 20:40:54,-0.05748047,-0.07424561,9.889036,-7.0950575E-4,4.7135307E-4,-5.6278496E-4,9.889481935688162,0.001020930475394288,stand
19/08/2020, 20:40:54,-0.05748047,-0.07424561,9.889036,-0.0019312352,0.002914813,6.589452E-4,9.889481935688162,0.0035580912885540376,stand
19/08/2020, 20:40:54,-0.1101709,-0.12693603,9.977652,-0.0019312352,0.002914813,6.589452E-4,9.97906717867457,0.0035580912885540376,stand
19/08/2020, 20:40:54,-0.1101709,-0.12693603,9.977652,-0.0019312352,4.7135307E-4,0.0018806751,9.97906717867457,0.002736563881287915,stand
19/08/2020, 20:40:54,-0.059875492,-0.098195806,9.867481,-0.0019312352,4.7135307E-4,0.0018806751,9.868151465630797,0.002736563881287915,stand
19/08/2020, 20:40:54,-0.059875492,-0.098195806,9.867481,-0.004374696,-7.5037696E-4,6.589452E-4,9.868151465630797,0.004487230650993995,stand
19/08/2020, 20:40:54,-0.05508545,-0.11496094,9.910591,-0.004374696,-7.5037696E-4,6.589452E-4,9.91141094299288,0.004487230650993995,stand
19/08/2020, 20:40:54,-0.05508545,-0.11496094,9.910591,-0.0019312352,-7.5037696E-4,0.0018806751,9.91141094299288,0.002798155418373016,stand
19/08/2020, 20:40:54,-0.07903565,-0.13891114,9.960887,-0.0019312352,-7.5037696E-4,0.0018806751,9.96216903463589,0.002798155418373016,stand
19/08/2020, 20:40:54,-0.07903565,-0.13891114,9.960887,-0.0019312352,4.7135307E-4,6.589452E-4,9.96216903463589,0.0020942902946601318,stand
19/08/2020, 20:40:54,-0.040715333,-0.06466553,9.941727,-0.0019312352,4.7135307E-4,6.589452E-4,9.94202036008179,0.0020942902946601318,stand
19/08/2020, 20:40:55,-0.026345216,-0.10777588,9.901011,-0.0019312352,0.0016930832,6.589452E-4,9.901633086535663,0.0026514918195802905,stand
19/08/2020, 20:40:55,-0.083825685,-0.10777588,9.941727,-0.0019312352,0.0016930832,6.589452E-4,9.942664223280076,0.0026514918195802905,stand
19/08/2020, 20:40:55,-0.083825685,-0.10777588,9.941727,-0.0031529646,-7.5037696E-4,0.0018806751,9.942664223280076,0.003747157638825187,stand
19/08/2020, 20:40:55,-0.06466553,-0.12454102,9.910591,-0.0031529646,-7.5037696E-4,0.0018806751,9.911584563225748,0.003747157638825187,stand
19/08/2020, 20:40:55,-0.06466553,-0.12454102,9.910591,-0.004374696,-0.0031938371,6.589452E-4,9.911584563225748,0.005456442881055606,stand
19/08/2020, 20:40:55,-0.07664063,-0.12933107,9.874666,-0.004374696,-0.0031938371,6.589452E-4,9.875810505905228,0.005456442881055606,stand
19/08/2020, 20:40:55,-0.07664063,-0.12933107,9.874666,-7.0950575E-4,-7.5037696E-4,-5.6278496E-4,9.875810505905228,0.0011760913674496113,stand
19/08/2020, 20:40:55,-0.06706055,-0.043110352,9.924961,-7.0950575E-4,-7.5037696E-4,-5.6278496E-4,9.925281268554338,0.0011760913674496113,stand
19/08/2020, 20:40:55,-0.06706055,-0.043110352,9.924961,-0.0019312352,0.0016930832,6.589452E-4,9.925281268554338,0.0026514918195802905,stand
19/08/2020, 20:40:55,-0.059875492,-0.07903565,9.977652,-0.0019312352,0.0016930832,6.589452E-4,9.978144270385073,0.0026514918195802905,stand
19/08/2020, 20:40:55,-0.059875492,-0.07903565,9.977652,-0.0031529646,0.0016930832,-5.6278496E-4,9.978144270385073,0.003622767402832029,stand
19/08/2020, 20:40:55,-0.07664063,-0.08861572,9.968072,-0.0031529646,0.0016930832,-5.6278496E-4,9.96876043872303,0.003622767402832029,stand
19/08/2020, 20:40:55,-0.07664063,-0.08861572,9.968072,-0.0019312352,0.0016930832,-5.6278496E-4,9.96876043872303,0.002629244574052905,stand
19/08/2020, 20:40:55,-0.10538086,-0.05748047,9.941727,-0.0019312352,0.0016930832,-5.6278496E-4,9.942451337639527,0.002629244574052905,stand
19/08/2020, 20:40:55,-0.10538086,-0.05748047,9.941727,-0.0019312352,-7.5037696E-4,-5.6278496E-4,9.942451337639527,0.002146965735216506,stand
19/08/2020, 20:40:55,-0.09340577,-0.100590825,9.874666,-0.0019312352,-7.5037696E-4,-5.6278496E-4,9.875620283776533,0.002146965735216506,stand
19/08/2020, 20:40:55,-0.09340577,-0.100590825,9.874666,-0.0031529646,4.7135307E-4,0.0018806751,9.875620283776533,0.0037013914277208323,stand
19/08/2020, 20:40:55,-0.102985844,-0.12454102,9.934542,-0.0031529646,4.7135307E-4,0.0018806751,9.935856046881481,0.0037013914277208323,stand
19/08/2020, 20:40:55,-0.102985844,-0.12454102,9.934542,-0.0019312352,0.0016930832,6.589452E-4,9.935856046881481,0.0026514918195802905,stand
19/08/2020, 20:40:55,-0.083825685,-0.081430666,9.901011,-0.0019312352,0.0016930832,6.589452E-4,9.901701155263082,0.0026514918195802905,stand
19/08/2020, 20:40:55,-0.083825685,-0.081430666,9.901011,-0.0019312352,4.7135307E-4,6.589452E-4,9.901701155263082,0.0020942902946601318,stand
19/08/2020, 20:40:55,-0.059875492,-0.102985844,10.001602,-0.0019312352,4.7135307E-4,6.589452E-4,10.002311591957122,0.0020942902946601318,stand
19/08/2020, 20:40:55,-0.059875492,-0.102985844,10.001602,-7.0950575E-4,4.7135307E-4,0.0018806751,10.002311591957122,0.002064584925055233,stand
19/08/2020, 20:40:55,-0.09580079,-0.07424561,9.901011,-7.0950575E-4,4.7135307E-4,0.0018806751,9.901753292756082,0.002064584925055233,stand
19/08/2020, 20:40:55,-0.09580079,-0.07424561,9.901011,-7.0950575E-4,-7.5037696E-4,0.0018806751,9.901753292756082,0.002145554189892675,stand
19/08/2020, 20:40:55,-0.09340577,-0.13891114,9.992022,-7.0950575E-4,-7.5037696E-4,0.0018806751,9.993423628169404,0.002145554189892675,stand
19/08/2020, 20:40:55,-0.09340577,-0.13891114,9.992022,-0.0019312352,-7.5037696E-4,-5.6278496E-4,9.993423628169404,0.002146965735216506,stand
19/08/2020, 20:40:55,-0.06706055,-0.119750984,9.908196,-0.0019312352,-7.5037696E-4,-5.6278496E-4,9.909147001301337,0.002146965735216506,stand
19/08/2020, 20:40:55,-0.06706055,-0.119750984,9.908196,-0.0031529646,4.7135307E-4,6.589452E-4,9.909147001301337,0.003255390677498371,stand
19/08/2020, 20:40:55,-0.047900394,-0.117355965,9.867481,-0.0031529646,4.7135307E-4,6.589452E-4,9.8682953303998,0.003255390677498371,stand
19/08/2020, 20:40:56,-0.081430666,-0.102985844,9.946517,-0.0031529646,-7.5037696E-4,6.589452E-4,9.947383439024426,0.003307334324217011,stand
19/08/2020, 20:40:56,-0.043110352,-0.05269043,9.877061,-0.0031529646,-7.5037696E-4,6.589452E-4,9.877295511054305,0.003307334324217011,stand
19/08/2020, 20:40:56,-0.043110352,-0.05269043,9.877061,-0.0019312352,4.7135307E-4,-5.6278496E-4,9.877295511054305,0.0020660517900558694,stand
19/08/2020, 20:40:56,-0.09340577,-0.11496094,9.865086,-0.0019312352,4.7135307E-4,-5.6278496E-4,9.866197574848416,0.0020660517900558694,stand
19/08/2020, 20:40:56,-0.09340577,-0.11496094,9.865086,5.1222555E-4,4.7135307E-4,-0.001784515,9.866197574848416,0.0019154744742496787,stand
19/08/2020, 20:40:56,-0.122146,-0.06945557,9.850716,5.1222555E-4,4.7135307E-4,-0.001784515,9.851717732840298,0.0019154744742496787,stand
19/08/2020, 20:40:56,-0.122146,-0.06945557,9.850716,-0.0019312352,0.0016930832,-0.001784515,9.851717732840298,0.0031274100866831214,stand
19/08/2020, 20:40:56,-0.081430666,-0.06227051,10.032737,-0.0019312352,0.0016930832,-0.001784515,10.033260478616047,0.0031274100866831214,stand
19/08/2020, 20:40:56,-0.081430666,-0.06227051,10.032737,-0.0031529646,0.0016930832,0.0018806751,10.033260478616047,0.004042852400496318,stand
19/08/2020, 20:40:56,-0.035925295,-0.07185059,9.982442,-0.0031529646,0.0016930832,0.0018806751,9.982765121157067,0.004042852400496318,stand
19/08/2020, 20:40:56,-0.035925295,-0.07185059,9.982442,-7.0950575E-4,-7.5037696E-4,6.589452E-4,9.982765121157067,0.001225019487071147,stand
19/08/2020, 20:40:56,-0.028740235,-0.122146,9.975257,-7.0950575E-4,-7.5037696E-4,6.589452E-4,9.976046123808613,0.001225019487071147,stand
19/08/2020, 20:40:56,-0.028740235,-0.122146,9.975257,-0.004374696,-0.001972107,-5.6278496E-4,9.976046123808613,0.00483155228171017,stand
19/08/2020, 20:40:56,-0.040715333,-0.09580079,9.817185,-0.004374696,-0.001972107,-5.6278496E-4,9.81773725176937,0.00483155228171017,stand
19/08/2020, 20:40:56,-0.040715333,-0.09580079,9.817185,-0.006818155,4.7135307E-4,-5.6278496E-4,9.81773725176937,0.00685756048938155,stand
19/08/2020, 20:40:56,-0.07664063,-0.07185059,9.848321,-0.006818155,4.7135307E-4,-5.6278496E-4,9.848881258502812,0.00685756048938155,stand
19/08/2020, 20:40:56,-0.07664063,-0.07185059,9.848321,-0.004374696,0.002914813,-5.6278496E-4,9.848881258502812,0.00528685416731739,stand
19/08/2020, 20:40:56,-0.09580079,-0.1101709,10.003997,-0.004374696,0.002914813,-5.6278496E-4,10.005062137449302,0.00528685416731739,stand
19/08/2020, 20:40:56,-0.09580079,-0.1101709,10.003997,-0.0031529646,0.0016930832,6.589452E-4,10.005062137449302,0.003638945656936482,stand
19/08/2020, 20:40:56,-0.059875492,-0.098195806,9.944121,-0.0031529646,0.0016930832,6.589452E-4,9.944786429520999,0.003638945656936482,stand
19/08/2020, 20:40:56,-0.059875492,-0.098195806,9.944121,-0.004374696,-7.5037696E-4,6.589452E-4,9.944786429520999,0.004487230650993995,stand
19/08/2020, 20:40:56,-0.06227051,-0.10538086,10.013577,-0.004374696,-7.5037696E-4,6.589452E-4,10.014325554679987,0.004487230650993995,stand
19/08/2020, 20:40:56,-0.06227051,-0.10538086,10.013577,-7.0950575E-4,-0.001972107,-5.6278496E-4,10.014325554679987,0.0021700993708544357,stand
19/08/2020, 20:40:56,-0.059875492,-0.06466553,9.908196,-7.0950575E-4,-0.001972107,-5.6278496E-4,9.908588374904856,0.0021700993708544357,stand
19/08/2020, 20:40:56,-0.059875492,-0.06466553,9.908196,-0.004374696,-0.001972107,6.589452E-4,9.908588374904856,0.00484369479736423,stand
19/08/2020, 20:40:56,-0.07424561,-0.09580079,9.841136,-0.004374696,-0.001972107,6.589452E-4,9.841882317553663,0.00484369479736423,stand
19/08/2020, 20:40:56,-0.07424561,-0.09580079,9.841136,-0.0055964254,4.7135307E-4,0.0018806751,9.841882317553663,0.0059227603009810075,stand
19/08/2020, 20:40:56,-0.08861572,-0.1101709,9.881851,-0.0055964254,4.7135307E-4,0.0018806751,9.882862613602505,0.0059227603009810075,stand
19/08/2020, 20:40:56,-0.08861572,-0.1101709,9.881851,-0.0031529646,4.7135307E-4,0.0018806751,9.882862613602505,0.0037013914277208323,stand
19/08/2020, 20:40:56,-0.06466553,-0.098195806,9.970467,-0.0031529646,4.7135307E-4,0.0018806751,9.97115983945065,0.0037013914277208323,stand
19/08/2020, 20:40:57,-0.11256592,-0.10777588,9.910591,-0.0019312352,4.7135307E-4,-5.6278496E-4,9.911816341297603,0.0020660517900558694,stand
19/08/2020, 20:40:57,-0.083825685,-0.117355965,9.898616,-0.0019312352,4.7135307E-4,-5.6278496E-4,9.899666391270467,0.0020660517900558694,stand
19/08/2020, 20:40:57,-0.083825685,-0.117355965,9.898616,-0.0019312352,-7.5037696E-4,-5.6278496E-4,9.899666391270467,0.002146965735216506,stand
19/08/2020, 20:40:57,-0.09340577,-0.07903565,9.869876,-0.0019312352,-7.5037696E-4,-5.6278496E-4,9.87063431134909,0.002146965735216506,stand
19/08/2020, 20:40:57,-0.09340577,-0.07903565,9.869876,-0.0031529646,4.7135307E-4,-5.6278496E-4,9.87063431134909,0.003237296190346003,stand
19/08/2020, 20:40:57,-0.045505375,-0.100590825,9.975257,-0.0031529646,4.7135307E-4,-5.6278496E-4,9.975867875550772,0.003237296190346003,stand
19/08/2020, 20:40:57,-0.045505375,-0.100590825,9.975257,-0.0031529646,0.0016930832,6.589452E-4,9.975867875550772,0.003638945656936482,stand
19/08/2020, 20:40:57,-0.07903565,-0.102985844,9.939331,-0.0031529646,0.0016930832,6.589452E-4,9.940178797802053,0.003638945656936482,stand
19/08/2020, 20:40:57,-0.07903565,-0.102985844,9.939331,-7.0950575E-4,-7.5037696E-4,-5.6278496E-4,9.940178797802053,0.0011760913674496113,stand
19/08/2020, 20:40:57,-0.07903565,-0.07664063,9.891431,-7.0950575E-4,-7.5037696E-4,-5.6278496E-4,9.892043508531017,0.0011760913674496113,stand
19/08/2020, 20:40:57,-0.07903565,-0.07664063,9.891431,-0.0019312352,-7.5037696E-4,6.589452E-4,9.892043508531017,0.0021741535611148333,stand
19/08/2020, 20:40:57,-0.035925295,-0.117355965,9.891431,-0.0019312352,-7.5037696E-4,6.589452E-4,9.892192244624654,0.0021741535611148333,stand
19/08/2020, 20:40:57,-0.035925295,-0.117355965,9.891431,-0.004374696,4.7135307E-4,6.589452E-4,9.892192244624654,0.0044490838434692705,stand
19/08/2020, 20:40:57,-0.10777588,-0.119750984,9.843531,-0.004374696,4.7135307E-4,6.589452E-4,9.84484899289912,0.0044490838434692705,stand
19/08/2020, 20:40:57,-0.10777588,-0.119750984,9.843531,-0.004374696,0.002914813,-5.6278496E-4,9.84484899289912,0.00528685416731739,stand
19/08/2020, 20:40:57,-0.086220704,-0.117355965,9.968072,-0.004374696,0.002914813,-5.6278496E-4,9.969135598673173,0.00528685416731739,stand
19/08/2020, 20:40:57,-0.086220704,-0.117355965,9.968072,-0.0019312352,0.0016930832,6.589452E-4,9.969135598673173,0.0026514918195802905,stand
19/08/2020, 20:40:57,-0.09101075,-0.13891114,9.984837,-0.0019312352,0.0016930832,6.589452E-4,9.98621754013341,0.0026514918195802905,stand
19/08/2020, 20:40:57,-0.09101075,-0.13891114,9.984837,-7.0950575E-4,-7.5037696E-4,-5.6278496E-4,9.98621754013341,0.0011760913674496113,stand
19/08/2020, 20:40:57,-0.117355965,-0.09580079,9.982442,-7.0950575E-4,-7.5037696E-4,-5.6278496E-4,9.983591365003985,0.0011760913674496113,stand
19/08/2020, 20:40:57,-0.117355965,-0.09580079,9.982442,-0.0019312352,-0.001972107,6.589452E-4,9.983591365003985,0.002837795637832582,stand
19/08/2020, 20:40:57,-0.09580079,-0.102985844,9.869876,-0.0019312352,-0.001972107,6.589452E-4,9.870878092257154,0.002837795637832582,stand
19/08/2020, 20:40:57,-0.09580079,-0.102985844,9.869876,-0.0031529646,-7.5037696E-4,6.589452E-4,9.870878092257154,0.003307334324217011,stand
19/08/2020, 20:40:57,-0.083825685,-0.07185059,9.862691,-0.0031529646,-7.5037696E-4,6.589452E-4,9.863308853863277,0.003307334324217011,stand
19/08/2020, 20:40:57,-0.083825685,-0.07185059,9.862691,-0.0019312352,4.7135307E-4,6.589452E-4,9.863308853863277,0.0020942902946601318,stand
19/08/2020, 20:40:57,-0.059875492,-0.07664063,9.929751,-0.0019312352,4.7135307E-4,6.589452E-4,9.930227673642165,0.0020942902946601318,stand
19/08/2020, 20:40:57,-0.059875492,-0.07664063,9.929751,-7.0950575E-4,0.0016930832,6.589452E-4,9.930227673642165,0.0019504199306039061,stand
19/08/2020, 20:40:57,-0.031135255,-0.12933107,9.948912,-7.0950575E-4,0.0016930832,6.589452E-4,9.949800967067725,0.0019504199306039061,stand
19/08/2020, 20:40:57,-0.031135255,-0.12933107,9.948912,-0.0031529646,4.7135307E-4,6.589452E-4,9.949800967067725,0.003255390677498371,stand
19/08/2020, 20:40:57,-0.06945557,-0.081430666,9.944121,-0.0031529646,4.7135307E-4,6.589452E-4,9.944697314031,0.003255390677498371,stand
19/08/2020, 20:40:58,-0.028740235,-0.09101075,9.989627,-0.0019312352,-7.5037696E-4,-0.001784515,9.990082794868092,0.0027344521733419364,stand
19/08/2020, 20:40:58,-0.028740235,-0.09101075,9.989627,-7.0950575E-4,4.7135307E-4,6.589452E-4,9.990082794868092,0.001076931230257237,stand
19/08/2020, 20:40:58,-0.07664063,-0.06227051,9.865086,-7.0950575E-4,4.7135307E-4,6.589452E-4,9.86557982753211,0.001076931230257237,stand
19/08/2020, 20:40:58,-0.07664063,-0.06227051,9.865086,-0.0019312352,0.002914813,-5.6278496E-4,9.86557982753211,0.0035415436999378636,stand
19/08/2020, 20:40:58,-0.11256592,-0.09580079,9.968072,-0.0019312352,0.002914813,-5.6278496E-4,9.969167820310412,0.0035415436999378636,stand
19/08/2020, 20:40:58,-0.11256592,-0.09580079,9.968072,-0.0031529646,0.0016930832,-5.6278496E-4,9.969167820310412,0.003622767402832029,stand
19/08/2020, 20:40:58,-0.05748047,-0.086220704,9.841136,-0.0031529646,0.0016930832,-5.6278496E-4,9.841681531394745,0.003622767402832029,stand
19/08/2020, 20:40:58,-0.05748047,-0.086220704,9.841136,-0.0019312352,4.7135307E-4,-0.001784515,9.841681531394745,0.002671392299774361,stand
19/08/2020, 20:40:58,-0.06706055,-0.14130616,9.867481,-0.0019312352,4.7135307E-4,-0.001784515,9.868720809042863,0.002671392299774361,stand
19/08/2020, 20:40:58,-0.06706055,-0.14130616,9.867481,-7.0950575E-4,0.0016930832,-0.001784515,9.868720809042863,0.0025601607150104997,stand
19/08/2020, 20:40:58,-0.102985844,-0.06945557,9.944121,-7.0950575E-4,0.0016930832,-0.001784515,9.944897173846178,0.0025601607150104997,stand
19/08/2020, 20:40:58,-0.102985844,-0.06945557,9.944121,-0.0019312352,0.0016930832,6.589452E-4,9.944897173846178,0.0026514918195802905,stand
19/08/2020, 20:40:58,-0.059875492,-0.09101075,9.968072,-0.0019312352,0.0016930832,6.589452E-4,9.968667222022725,0.0026514918195802905,stand
19/08/2020, 20:40:58,-0.059875492,-0.09101075,9.968072,-0.0019312352,4.7135307E-4,0.0018806751,9.968667222022725,0.002736563881287915,stand
19/08/2020, 20:40:58,-0.07903565,-0.07185059,9.963282,-0.0019312352,4.7135307E-4,0.0018806751,9.963854174407334,0.002736563881287915,stand
19/08/2020, 20:40:58,-0.07903565,-0.07185059,9.963282,-0.0019312352,4.7135307E-4,0.0018806751,9.963854174407334,0.002736563881287915,stand
19/08/2020, 20:40:58,-0.086220704,-0.07424561,9.862691,-0.0019312352,4.7135307E-4,0.0018806751,9.863347236825046,0.002736563881287915,stand
19/08/2020, 20:40:58,-0.086220704,-0.07424561,9.862691,-0.0055964254,4.7135307E-4,-0.001784515,9.863347236825046,0.005892931742842505,stand
19/08/2020, 20:40:58,-0.06706055,-0.102985844,9.896221,-0.0055964254,4.7135307E-4,-0.001784515,9.896984210707576,0.005892931742842505,stand
19/08/2020, 20:40:58,-0.06706055,-0.102985844,9.896221,-7.0950575E-4,4.7135307E-4,-0.001784515,9.896984210707576,0.0019773886455852563,stand
19/08/2020, 20:40:58,-0.045505375,-0.059875492,9.941727,-7.0950575E-4,4.7135307E-4,-0.001784515,9.942011128758825,0.0019773886455852563,stand
19/08/2020, 20:40:58,-0.045505375,-0.059875492,9.941727,-7.0950575E-4,4.7135307E-4,-5.6278496E-4,9.942011128758825,0.001020930475394288,stand
19/08/2020, 20:40:58,-0.098195806,-0.12454102,9.989627,-7.0950575E-4,4.7135307E-4,-5.6278496E-4,9.990885755187643,0.001020930475394288,stand
19/08/2020, 20:40:58,-0.098195806,-0.12454102,9.989627,-0.0019312352,4.7135307E-4,6.589452E-4,9.990885755187643,0.0020942902946601318,stand
19/08/2020, 20:40:58,-0.100590825,-0.07664063,9.977652,-0.0019312352,4.7135307E-4,6.589452E-4,9.978452969901612,0.0020942902946601318,stand
19/08/2020, 20:40:58,-0.100590825,-0.07664063,9.977652,-0.0019312352,-0.001972107,6.589452E-4,9.978452969901612,0.002837795637832582,stand
19/08/2020, 20:40:58,-0.07424561,-0.11496094,9.8938265,-0.0019312352,-0.001972107,6.589452E-4,9.894772909819132,0.002837795637832582,stand
19/08/2020, 20:40:58,-0.07424561,-0.11496094,9.8938265,-0.0019312352,-7.5037696E-4,6.589452E-4,9.894772909819132,0.0021741535611148333,stand
19/08/2020, 20:40:58,-0.035925295,-0.098195806,9.829161,-0.0019312352,-7.5037696E-4,6.589452E-4,9.829716828020459,0.0021741535611148333,stand
19/08/2020, 20:40:58,-0.035925295,-0.098195806,9.829161,-7.0950575E-4,4.7135307E-4,-5.6278496E-4,9.829716828020459,0.001020930475394288,stand
19/08/2020, 20:40:59,-0.07903565,-0.12454102,9.963282,0.0012106467,1.6867975E-4,-6.053499E-4,9.964373435778302,0.0013640259505300451,stand
19/08/2020, 20:40:59,-0.059875492,-0.098195806,9.912986,0.0012106467,1.6867975E-4,-6.053499E-4,9.913652959203763,0.0013640259505300451,stand
19/08/2020, 20:40:59,-0.059875492,-0.098195806,9.912986,0.002432378,0.0013904099,0.0018381102,9.913652959203763,0.0033508732260607043,stand
19/08/2020, 20:40:59,-0.098195806,-0.06227051,9.917776,0.002432378,0.0013904099,0.0018381102,9.918457690442084,0.0033508732260607043,stand
19/08/2020, 20:40:59,-0.098195806,-0.06227051,9.917776,-1.1082739E-5,0.0026121398,6.1638025E-4,9.918457690442084,0.0026839004738289916,stand
19/08/2020, 20:40:59,-0.06945557,-0.06466553,9.965676,-1.1082739E-5,0.0026121398,6.1638025E-4,9.966128133686809,0.0026839004738289916,stand
19/08/2020, 20:40:59,-0.06945557,-0.06466553,9.965676,-0.0012328122,0.0013904099,-6.053499E-4,9.966128133686809,0.0019543577020104774,stand
19/08/2020, 20:40:59,-0.081430666,-0.09580079,9.956097,-0.0012328122,0.0013904099,-6.053499E-4,9.956890540315893,0.0019543577020104774,stand
19/08/2020, 20:40:59,-0.081430666,-0.09580079,9.956097,-1.1082739E-5,-0.0022747803,-6.053499E-4,9.956890540315893,0.002353974668839357,stand
19/08/2020, 20:40:59,-0.045505375,-0.13172609,10.001602,-1.1082739E-5,-0.0022747803,-6.053499E-4,10.002573095203186,0.002353974668839357,stand
19/08/2020, 20:40:59,-0.045505375,-0.13172609,10.001602,0.0012106467,-0.0022747803,-0.0018270799,10.002573095203186,0.0031588782648391818,stand
19/08/2020, 20:40:59,-0.06227051,-0.07185059,9.889036,0.0012106467,-0.0022747803,-0.0018270799,9.889493246133211,0.0031588782648391818,stand
19/08/2020, 20:40:59,-0.06227051,-0.07185059,9.889036,-1.1082739E-5,1.6867975E-4,6.1638025E-4,9.889493246133211,6.391402760647951E-4,stand
19/08/2020, 20:40:59,-0.16286133,-0.10777588,9.836346,-1.1082739E-5,1.6867975E-4,6.1638025E-4,9.838284181974865,6.391402760647951E-4,stand
19/08/2020, 20:40:59,-0.16286133,-0.10777588,9.836346,0.0012106467,0.0026121398,0.0018381102,9.838284181974865,0.0034157852244833856,stand
19/08/2020, 20:40:59,-0.102985844,-0.1101709,9.903406,0.0012106467,0.0026121398,0.0018381102,9.904554353851506,0.0034157852244833856,stand
19/08/2020, 20:40:59,-0.102985844,-0.1101709,9.903406,-1.1082739E-5,0.0038338697,0.0018381102,9.904554353851506,0.00425174419290366,stand
19/08/2020, 20:40:59,-0.06706055,-0.11496094,9.960887,-1.1082739E-5,0.0038338697,0.0018381102,9.961776050013619,0.00425174419290366,stand
19/08/2020, 20:40:59,-0.06706055,-0.11496094,9.960887,-1.1082739E-5,1.6867975E-4,6.1638025E-4,9.961776050013619,6.391402760647951E-4,stand
19/08/2020, 20:40:59,-0.047900394,-0.102985844,9.994417,-1.1082739E-5,1.6867975E-4,6.1638025E-4,9.995062556611225,6.391402760647951E-4,stand
19/08/2020, 20:40:59,-0.047900394,-0.102985844,9.994417,-1.1082739E-5,-0.0034965104,-6.053499E-4,9.995062556611225,0.0035485428834157663,stand
19/08/2020, 20:40:59,-0.07664063,-0.13651612,10.001602,-1.1082739E-5,-0.0034965104,-6.053499E-4,10.002827423384186,0.0035485428834157663,stand
19/08/2020, 20:40:59,-0.07664063,-0.13651612,10.001602,-1.1082739E-5,-0.0022747803,0.0018381102,10.002827423384186,0.0029246191524172306,stand
19/08/2020, 20:40:59,-0.086220704,-0.08861572,9.841136,-1.1082739E-5,-0.0022747803,0.0018381102,9.841912624454398,0.0029246191524172306,stand
19/08/2020, 20:40:59,-0.119750984,-0.050295413,9.908196,-1.1082739E-5,-0.0022747803,0.0018381102,9.90904772438882,0.0029246191524172306,stand
19/08/2020, 20:40:59,-0.119750984,-0.050295413,9.908196,-0.0024545435,1.6867975E-4,-6.053499E-4,9.90904772438882,0.0025337097462088064,stand
19/08/2020, 20:40:59,-0.119750984,-0.050295413,9.908196,-1.1082739E-5,1.6867975E-4,-0.0018270799,9.90904772438882,0.0018348832974914044,stand
19/08/2020, 20:40:59,-0.06466553,-0.081430666,9.965676,-1.1082739E-5,1.6867975E-4,-0.0018270799,9.966218784175096,0.0018348832974914044,stand
19/08/2020, 20:40:59,-0.06466553,-0.081430666,9.965676,0.0012106467,1.6867975E-4,-0.00304881,9.966218784175096,0.0032847161782628338,stand
19/08/2020, 20:40:59,-0.05748047,-0.13651612,9.984837,0.0012106467,1.6867975E-4,-0.00304881,9.98593521675408,0.0032847161782628338,stand
19/08/2020, 20:41:00,-0.086220704,-0.09580079,9.908196,0.0012106467,-0.0010530503,-0.0018270799,9.909034699613896,0.0024316252503330926,stand
19/08/2020, 20:41:00,-0.028740235,-0.098195806,9.908196,0.0012106467,-0.0010530503,-0.0018270799,9.90872470578097,0.0024316252503330926,stand
19/08/2020, 20:41:00,-0.028740235,-0.098195806,9.908196,-1.1082739E-5,0.0013904099,-0.0018270799,9.90872470578097,0.0022959929261024046,stand
19/08/2020, 20:41:00,-0.05508545,-0.098195806,9.924961,-1.1082739E-5,0.0013904099,-0.0018270799,9.925599702937358,0.0022959929261024046,stand
19/08/2020, 20:41:00,-0.05508545,-0.098195806,9.924961,0.0012106467,0.0026121398,6.1638025E-4,9.925599702937358,0.002944293526101081,stand
19/08/2020, 20:41:00,-0.07424561,-0.12933107,10.051897,0.0012106467,0.0026121398,6.1638025E-4,10.053003193978634,0.002944293526101081,stand
19/08/2020, 20:41:00,-0.07424561,-0.12933107,10.051897,0.002432378,0.0026121398,6.1638025E-4,10.053003193978634,0.0036221073568855114,stand
19/08/2020, 20:41:00,-0.047900394,-0.086220704,9.963282,0.002432378,0.0026121398,6.1638025E-4,9.963769835031876,0.0036221073568855114,stand
19/08/2020, 20:41:00,-0.047900394,-0.086220704,9.963282,-0.0012328122,1.6867975E-4,-6.053499E-4,9.963769835031876,0.0013837366895866861,stand
19/08/2020, 20:41:00,-0.07903565,-0.102985844,9.941727,-0.0012328122,1.6867975E-4,-6.053499E-4,9.94257422342401,0.0013837366895866861,stand
19/08/2020, 20:41:00,-0.07903565,-0.102985844,9.941727,-1.1082739E-5,-0.0010530503,-0.00304881,9.94257422342401,0.0032255665836475366,stand
19/08/2020, 20:41:00,-0.07903565,-0.06466553,9.81958,-1.1082739E-5,-0.0010530503,-0.00304881,9.820111057186466,0.0032255665836475366,stand
19/08/2020, 20:41:00,-0.07903565,-0.06466553,9.81958,-0.0012328122,0.0013904099,-6.053499E-4,9.820111057186466,0.0019543577020104774,stand
19/08/2020, 20:41:00,-0.040715333,-0.14370118,9.939331,-0.0012328122,0.0013904099,-6.053499E-4,9.940453187978429,0.0019543577020104774,stand
19/08/2020, 20:41:00,-0.040715333,-0.14370118,9.939331,0.0036541075,0.0026121398,6.1638025E-4,9.940453187978429,0.00453383945381672,stand
19/08/2020, 20:41:00,-0.07424561,-0.086220704,9.999207,0.0036541075,0.0026121398,6.1638025E-4,9.999853894395525,0.00453383945381672,stand
19/08/2020, 20:41:00,-0.07424561,-0.086220704,9.999207,0.002432378,0.0026121398,6.1638025E-4,9.999853894395525,0.0036221073568855114,stand
19/08/2020, 20:41:00,-0.05269043,-0.07664063,10.027947,0.002432378,0.0026121398,6.1638025E-4,10.0283787145744,0.0036221073568855114,stand
19/08/2020, 20:41:00,-0.05269043,-0.07664063,10.027947,-1.1082739E-5,1.6867975E-4,-6.053499E-4,10.0283787145744,6.285094902212242E-4,stand
19/08/2020, 20:41:00,-0.06466553,-0.11496094,9.939331,-1.1082739E-5,1.6867975E-4,-6.053499E-4,9.940206208290467,6.285094902212242E-4,stand
19/08/2020, 20:41:00,-0.06466553,-0.11496094,9.939331,-1.1082739E-5,-0.0010530503,-6.053499E-4,9.940206208290467,0.0012146959321251707,stand
19/08/2020, 20:41:00,-0.06945557,-0.102985844,9.793235,-1.1082739E-5,-0.0010530503,-6.053499E-4,9.794022590371084,0.0012146959321251707,stand
19/08/2020, 20:41:00,-0.06945557,-0.102985844,9.793235,-0.0024545435,-0.0022747803,0.0018381102,9.794022590371084,0.0038181223245753967,stand
19/08/2020, 20:41:00,-0.1341211,-0.12454102,9.934542,-0.0024545435,-0.0022747803,0.0018381102,9.936227542237049,0.0038181223245753967,stand
19/08/2020, 20:41:00,-0.098195806,-0.1101709,9.958491,-0.0024545435,-0.0022747803,0.0018381102,9.959584806675911,0.0038181223245753967,stand
19/08/2020, 20:41:00,-0.09340577,-0.14849122,10.061478,-0.0024545435,-0.0022747803,0.0018381102,10.06300685705066,0.0038181223245753967,stand
19/08/2020, 20:41:00,-0.09340577,-0.14849122,10.061478,-1.1082739E-5,0.0026121398,6.1638025E-4,10.06300685705066,0.0026839004738289916,stand
19/08/2020, 20:41:00,-0.09340577,-0.14849122,10.061478,0.0012106467,0.0013904099,6.1638025E-4,10.06300685705066,0.0019439212196508337,stand
19/08/2020, 20:41:00,-0.09340577,-0.14849122,10.061478,0.0012106467,-0.0010530503,0.0018381102,10.06300685705066,0.0024399240289588947,stand
19/08/2020, 20:41:00,-0.06227051,-0.07424561,9.915381,0.0012106467,-0.0010530503,0.0018381102,9.915854928383785,0.0024399240289588947,stand
19/08/2020, 20:41:01,-0.043110352,-0.081430666,9.984837,-0.0012328122,-0.0022747803,-6.053499E-4,9.985261686735013,0.0026572353656286337,stand
19/08/2020, 20:41:01,-0.06466553,-0.043110352,9.903406,-0.0012328122,-0.0022747803,-6.053499E-4,9.90371109083003,0.0026572353656286337,stand
19/08/2020, 20:41:01,-0.06466553,-0.043110352,9.903406,-0.0012328122,-0.0010530503,-6.053499E-4,9.90371109083003,0.0017306615077280754,stand
19/08/2020, 20:41:01,-0.06706055,-0.11256592,9.946517,-0.0012328122,-0.0010530503,-6.053499E-4,9.94737997914615,0.0017306615077280754,stand
19/08/2020, 20:41:01,-0.06706055,-0.11256592,9.946517,-1.1082739E-5,1.6867975E-4,0.0018381102,9.94737997914615,0.0018458669032317744,stand
19/08/2020, 20:41:01,-0.09340577,-0.10777588,9.82437,-1.1082739E-5,1.6867975E-4,0.0018381102,9.82540552468599,0.0018458669032317744,stand
19/08/2020, 20:41:01,-0.09340577,-0.10777588,9.82437,-0.0012328122,0.0026121398,-0.0018270799,9.82540552468599,0.0034177947895030814,stand
19/08/2020, 20:41:01,-0.07424561,-0.12933107,9.951306,-0.0012328122,0.0026121398,-0.0018270799,9.952423668094502,0.0034177947895030814,stand
19/08/2020, 20:41:01,-0.07424561,-0.12933107,9.951306,-0.0012328122,0.0026121398,-6.053499E-4,9.952423668094502,0.0029511944509028245,stand
19/08/2020, 20:41:01,-0.081430666,-0.059875492,9.968072,-0.0012328122,0.0026121398,-6.053499E-4,9.968584361900353,0.0029511944509028245,stand
19/08/2020, 20:41:01,-0.081430666,-0.059875492,9.968072,-1.1082739E-5,1.6867975E-4,-0.0018270799,9.968584361900353,0.0018348832974914044,stand
19/08/2020, 20:41:01,-0.11256592,-0.12693603,9.953702,-1.1082739E-5,1.6867975E-4,-0.0018270799,9.955147754272366,0.0018348832974914044,stand
19/08/2020, 20:41:01,-0.11256592,-0.12693603,9.953702,0.0012106467,-0.0010530503,-0.0018270799,9.955147754272366,0.0024316252503330926,stand
19/08/2020, 20:41:01,-0.07664063,-0.07903565,9.920172,0.0012106467,-0.0010530503,-0.0018270799,9.920782616523647,0.0024316252503330926,stand
19/08/2020, 20:41:01,-0.07664063,-0.07903565,9.920172,0.002432378,0.0013904099,6.1638025E-4,9.920782616523647,0.002868732654879536,stand
19/08/2020, 20:41:01,-0.059875492,-0.083825685,9.836346,0.002432378,0.0013904099,6.1638025E-4,9.83688507664116,0.002868732654879536,stand
19/08/2020, 20:41:01,-0.059875492,-0.083825685,9.836346,-0.0012328122,-0.0010530503,-6.053499E-4,9.83688507664116,0.0017306615077280754,stand
19/08/2020, 20:41:01,-0.035925295,-0.13891114,9.817185,-0.0012328122,-0.0010530503,-6.053499E-4,9.818233860938145,0.0017306615077280754,stand
19/08/2020, 20:41:01,-0.035925295,-0.13891114,9.817185,0.0012106467,1.6867975E-4,6.1638025E-4,9.818233860938145,0.0013689568681698604,stand
19/08/2020, 20:41:01,-0.05508545,-0.11496094,10.003997,0.0012106467,1.6867975E-4,6.1638025E-4,10.004809012683626,0.0013689568681698604,stand
19/08/2020, 20:41:01,-0.05508545,-0.11496094,10.003997,0.0012106467,1.6867975E-4,-6.053499E-4,10.004809012683626,0.0013640259505300451,stand
19/08/2020, 20:41:01,-0.05748047,-0.09580079,9.920172,0.0012106467,1.6867975E-4,-6.053499E-4,9.920800829573732,0.0013640259505300451,stand
19/08/2020, 20:41:01,-0.05748047,-0.09580079,9.920172,-0.0012328122,-0.0010530503,-0.0018270799,9.920800829573732,0.0024427365372561983,stand
19/08/2020, 20:41:01,-0.098195806,-0.13172609,9.951306,-0.0012328122,-0.0010530503,-0.0018270799,9.952662563952972,0.0024427365372561983,stand
19/08/2020, 20:41:01,-0.098195806,-0.13172609,9.951306,-0.0012328122,-0.0010530503,6.1638025E-4,9.952662563952972,0.001734550479957748,stand
19/08/2020, 20:41:01,-0.05748047,-0.12693603,9.869876,-0.0012328122,-0.0010530503,6.1638025E-4,9.870859496428254,0.001734550479957748,stand
19/08/2020, 20:41:01,-0.05748047,-0.12693603,9.869876,-1.1082739E-5,-0.0010530503,-0.0018270799,9.870859496428254,0.0021088524708087627,stand
19/08/2020, 20:41:01,-0.026345216,-0.09101075,9.831555,-1.1082739E-5,-0.0010530503,-0.0018270799,9.832011897458194,0.0021088524708087627,stand
19/08/2020, 20:41:01,-0.026345216,-0.09101075,9.831555,-1.1082739E-5,1.6867975E-4,-6.053499E-4,9.832011897458194,6.285094902212242E-4,stand
19/08/2020, 20:41:01,-0.08861572,-0.08861572,9.898616,-1.1082739E-5,1.6867975E-4,-6.053499E-4,9.899409122929523,6.285094902212242E-4,stand
19/08/2020, 20:41:02,-0.09340577,-0.117355965,10.001602,-1.1082739E-5,-0.0010530503,0.0018381102,10.002726782436655,0.002118416071660559,stand
19/08/2020, 20:41:02,-0.06706055,-0.09101075,9.915381,-1.1082739E-5,-0.0010530503,0.0018381102,9.916025867650577,0.002118416071660559,stand
19/08/2020, 20:41:02,-0.06706055,-0.09101075,9.915381,0.0012106467,-0.0010530503,-6.053499E-4,9.916025867650577,0.0017149428042773575,stand
19/08/2020, 20:41:02,-0.06466553,-0.12693603,9.857901,0.0012106467,-0.0010530503,-6.053499E-4,9.858929912108948,0.0017149428042773575,stand
19/08/2020, 20:41:02,-0.06466553,-0.12693603,9.857901,-0.0012328122,-0.0010530503,-0.0018270799,9.858929912108948,0.0024427365372561983,stand
19/08/2020, 20:41:02,-0.031135255,-0.07185059,9.896221,-0.0012328122,-0.0010530503,-0.0018270799,9.896530966793158,0.0024427365372561983,stand
19/08/2020, 20:41:02,-0.031135255,-0.07185059,9.896221,-1.1082739E-5,1.6867975E-4,-6.053499E-4,9.896530966793158,6.285094902212242E-4,stand
19/08/2020, 20:41:02,-0.05748047,-0.122146,9.970467,-1.1082739E-5,1.6867975E-4,-6.053499E-4,9.971380453411921,6.285094902212242E-4,stand
19/08/2020, 20:41:02,-0.05748047,-0.122146,9.970467,-1.1082739E-5,0.0013904099,-6.053499E-4,9.971380453411921,0.0015165127696783484,stand
19/08/2020, 20:41:02,-0.09101075,-0.09101075,9.972861,-1.1082739E-5,0.0013904099,-6.053499E-4,9.97369180505058,0.0015165127696783484,stand
19/08/2020, 20:41:02,-0.09101075,-0.09101075,9.972861,0.0012106467,0.0013904099,-6.053499E-4,9.97369180505058,0.0019404519048455556,stand
19/08/2020, 20:41:02,-0.081430666,-0.13891114,9.975257,0.0012106467,0.0013904099,-6.053499E-4,9.976556413725898,0.0019404519048455556,stand
19/08/2020, 20:41:02,-0.081430666,-0.13891114,9.975257,-1.1082739E-5,-0.0022747803,0.0018381102,9.976556413725898,0.0029246191524172306,stand
19/08/2020, 20:41:02,-0.07424561,-0.098195806,9.872271,-1.1082739E-5,-0.0022747803,0.0018381102,9.873038099423335,0.0029246191524172306,stand
19/08/2020, 20:41:02,-0.07424561,-0.09340577,9.857901,-1.1082739E-5,-0.0022747803,0.0018381102,9.858622706652643,0.0029246191524172306,stand
19/08/2020, 20:41:02,-0.07424561,-0.09340577,9.857901,-1.1082739E-5,-0.0022747803,-6.053499E-4,9.858622706652643,0.002353974668839357,stand
19/08/2020, 20:41:02,-0.07424561,-0.09340577,9.857901,0.0012106467,0.0013904099,-6.053499E-4,9.858622706652643,0.0019404519048455556,stand
19/08/2020, 20:41:02,-0.07424561,-0.06227051,9.924961,0.0012106467,0.0013904099,-6.053499E-4,9.925434129890656,0.0019404519048455556,stand
19/08/2020, 20:41:02,-0.07424561,-0.06227051,9.924961,-0.0012328122,0.0026121398,6.1638025E-4,9.925434129890656,0.00295347673094434,stand
19/08/2020, 20:41:02,-0.07664063,-0.11496094,9.901011,-0.0012328122,0.0026121398,6.1638025E-4,9.901975453039507,0.00295347673094434,stand
19/08/2020, 20:41:02,-0.07664063,-0.11496094,9.901011,-0.0024545435,0.0026121398,6.1638025E-4,9.901975453039507,0.0036370293719125827,stand
19/08/2020, 20:41:02,-0.081430666,-0.1341211,9.975257,-0.0024545435,0.0026121398,6.1638025E-4,9.97649086810826,0.0036370293719125827,stand
19/08/2020, 20:41:02,-0.081430666,-0.1341211,9.975257,-1.1082739E-5,-0.0022747803,6.1638025E-4,9.97649086810826,0.0023568353473943406,stand
19/08/2020, 20:41:02,-0.040715333,-0.06706055,9.948912,-1.1082739E-5,-0.0022747803,6.1638025E-4,9.94922098514443,0.0023568353473943406,stand
19/08/2020, 20:41:02,-0.040715333,-0.06706055,9.948912,-0.0024545435,-0.0022747803,-6.053499E-4,9.94922098514443,0.0034008613085912093,stand
19/08/2020, 20:41:02,-0.038320314,-0.122146,9.884246,-0.0024545435,-0.0022747803,-6.053499E-4,9.885074838386252,0.0034008613085912093,stand
19/08/2020, 20:41:02,-0.038320314,-0.122146,9.884246,-1.1082739E-5,1.6867975E-4,6.1638025E-4,9.885074838386252,6.391402760647951E-4,stand
19/08/2020, 20:41:02,-0.06706055,-0.06706055,9.85311,-1.1082739E-5,1.6867975E-4,6.1638025E-4,9.853566718896701,6.391402760647951E-4,stand
19/08/2020, 20:41:02,-0.06706055,-0.06706055,9.85311,-0.0012328122,0.0013904099,6.1638025E-4,9.853566718896701,0.001957802375266133,stand
19/08/2020, 20:41:02,-0.081430666,-0.05748047,9.934542,-0.0012328122,0.0013904099,6.1638025E-4,9.93504171062696,0.001957802375266133,stand
19/08/2020, 20:41:03,-0.07664063,-0.06227051,9.881851,0.0012106467,-0.0010530503,6.1638025E-4,9.882344583550777,0.0017188673407603993,stand
19/08/2020, 20:41:03,-0.06227051,-0.08861572,9.956097,0.0012106467,-0.0010530503,6.1638025E-4,9.956685736252812,0.0017188673407603993,stand
19/08/2020, 20:41:03,-0.06227051,-0.08861572,9.956097,-0.0012328122,-0.0010530503,0.00305984,9.956685736252812,0.0034628545982062966,stand
19/08/2020, 20:41:03,-0.07185059,-0.11496094,9.946517,-0.0012328122,-0.0010530503,0.00305984,9.947440815118592,0.0034628545982062966,stand
19/08/2020, 20:41:03,-0.07185059,-0.11496094,9.946517,-1.1082739E-5,-0.0022747803,0.0018381102,9.947440815118592,0.0029246191524172306,stand
19/08/2020, 20:41:03,-0.098195806,-0.117355965,9.982442,-1.1082739E-5,-0.0022747803,0.0018381102,9.983614634434593,0.0029246191524172306,stand
19/08/2020, 20:41:03,-0.098195806,-0.117355965,9.982442,0.0012106467,-0.0010530503,0.0018381102,9.983614634434593,0.0024399240289588947,stand
19/08/2020, 20:41:03,-0.06227051,-0.102985844,9.874666,0.0012106467,-0.0010530503,0.0018381102,9.87539956347598,0.0024399240289588947,stand
19/08/2020, 20:41:03,-0.06227051,-0.102985844,9.874666,-0.0012328122,1.6867975E-4,0.0018381102,9.87539956347598,0.002219668369657197,stand
19/08/2020, 20:41:03,-0.11496094,-0.119750984,9.891431,-0.0012328122,1.6867975E-4,0.0018381102,9.892823695529723,0.002219668369657197,stand
19/08/2020, 20:41:03,-0.11496094,-0.119750984,9.891431,-1.1082739E-5,1.6867975E-4,-6.053499E-4,9.892823695529723,6.285094902212242E-4,stand
19/08/2020, 20:41:03,-0.023950197,-0.059875492,9.872271,-1.1082739E-5,1.6867975E-4,-6.053499E-4,9.872481206479115,6.285094902212242E-4,stand
19/08/2020, 20:41:03,-0.023950197,-0.059875492,9.872271,-0.0012328122,0.0013904099,-6.053499E-4,9.872481206479115,0.0019543577020104774,stand
19/08/2020, 20:41:03,-0.081430666,-0.09580079,9.8866415,-0.0012328122,0.0013904099,-6.053499E-4,9.887440970281924,0.0019543577020104774,stand
19/08/2020, 20:41:03,-0.081430666,-0.09580079,9.8866415,-0.0012328122,0.0013904099,-6.053499E-4,9.887440970281924,0.0019543577020104774,stand
19/08/2020, 20:41:03,-0.047900394,-0.081430666,10.018367,-0.0012328122,0.0013904099,-6.053499E-4,10.018812255658567,0.0019543577020104774,stand
19/08/2020, 20:41:03,-0.047900394,-0.081430666,10.018367,-1.1082739E-5,0.0013904099,-6.053499E-4,10.018812255658567,0.0015165127696783484,stand
19/08/2020, 20:41:03,-0.09101075,-0.06706055,9.905801,-1.1082739E-5,0.0013904099,-6.053499E-4,9.906445878707853,0.0015165127696783484,stand
19/08/2020, 20:41:03,-0.09101075,-0.06706055,9.905801,-1.1082739E-5,1.6867975E-4,6.1638025E-4,9.906445878707853,6.391402760647951E-4,stand
19/08/2020, 20:41:03,-0.06227051,-0.07185059,9.912986,-1.1082739E-5,1.6867975E-4,6.1638025E-4,9.91344176502373,6.391402760647951E-4,stand
19/08/2020, 20:41:03,-0.06227051,-0.07185059,9.912986,0.0012106467,-0.0010530503,0.0018381102,9.91344176502373,0.0024399240289588947,stand
19/08/2020, 20:41:03,-0.07424561,-0.06945557,9.79563,0.0012106467,-0.0010530503,0.0018381102,9.79615804783557,0.0024399240289588947,stand
19/08/2020, 20:41:03,-0.07424561,-0.06945557,9.79563,-0.003676273,-0.0010530503,0.0018381102,9.79615804783557,0.004242940781106304,stand
19/08/2020, 20:41:03,-0.06466553,-0.119750984,9.905801,-0.003676273,-0.0010530503,0.0018381102,9.906735678465127,0.004242940781106304,stand
19/08/2020, 20:41:03,-0.06466553,-0.119750984,9.905801,-1.1082739E-5,1.6867975E-4,-6.053499E-4,9.906735678465127,6.285094902212242E-4,stand
19/08/2020, 20:41:03,-0.07185059,-0.07424561,9.956097,-1.1082739E-5,1.6867975E-4,-6.053499E-4,9.956632734286288,6.285094902212242E-4,stand
19/08/2020, 20:41:03,-0.07185059,-0.07424561,9.956097,-0.0012328122,0.0013904099,6.1638025E-4,9.956632734286288,0.001957802375266133,stand
