DATE,TIME,ax,ay,az,gx,gy,gz,ma,mg,label
09/07/2020, 21:37:24,9.090333,-1.1988041,3.6897326,0.1306589,-0.07448778,0.0,9.883593043284018,0.1504000551957383,rest
09/07/2020, 21:37:24,9.138189,-1.174876,3.696911,0.1306589,-0.07448778,0.0,9.927436183784403,0.1504000551957383,rest
09/07/2020, 21:37:24,9.138189,-1.174876,3.696911,0.14653334,-0.08059334,-0.0036633335999999997,9.927436183784403,0.16727440412719854,rest
09/07/2020, 21:37:24,9.164511,-1.18684,3.6634114,0.14653334,-0.08059334,-0.0036633335999999997,9.940695605265311,0.16727440412719854,rest
09/07/2020, 21:37:24,9.164511,-1.18684,3.6634114,0.14287001,-0.07815111400000001,-0.0024422223,9.940695605265311,0.16286620450520226,rest
09/07/2020, 21:37:24,9.18126,-1.1988041,3.6849468,0.14287001,-0.07815111400000001,-0.0024422223,9.965515605941,0.16286620450520226,rest
09/07/2020, 21:37:24,9.18126,-1.1988041,3.6849468,0.13432223,-0.07815111400000001,-0.006105555699999999,9.965515605941,0.15552277931092326,rest
09/07/2020, 21:37:24,9.186047,-1.1533405,3.7016966,0.13432223,-0.07815111400000001,-0.006105555699999999,9.970767489519078,0.15552277931092326,rest
09/07/2020, 21:37:24,9.186047,-1.1533405,3.7016966,0.1306589,-0.07326667,-0.007326666999999999,9.970767489519078,0.14997810435304418,rest
09/07/2020, 21:37:24,9.164511,-1.1557333,3.6993039,0.1306589,-0.07326667,-0.007326666999999999,9.950317860351198,0.14997810435304418,rest
09/07/2020, 21:37:24,9.164511,-1.1557333,3.6993039,0.12089001,-0.064718895,-0.007326666999999999,9.950317860351198,0.13731936874032674,rest
09/07/2020, 21:37:24,9.147761000000001,-1.1437693000000002,3.6801612,0.12089001,-0.064718895,-0.007326666999999999,9.926395745122845,0.13731936874032674,rest
09/07/2020, 21:37:24,9.147761000000001,-1.1437693000000002,3.6801612,0.117226675,-0.06716111,-0.0048844446,9.926395745122845,0.13519085127860453,rest
09/07/2020, 21:37:24,9.128618,-1.160519,3.7256248,0.117226675,-0.06716111,-0.0048844446,9.927676237914826,0.13519085127860453,rest
09/07/2020, 21:37:24,9.128618,-1.160519,3.7256248,0.12089001,-0.06838222599999999,-0.0048844446,9.927676237914826,0.13897618600197975,rest
09/07/2020, 21:37:24,9.152547,-1.1796615,3.7040894,0.12089001,-0.06838222599999999,-0.0048844446,9.943892297740057,0.13897618600197975,rest
09/07/2020, 21:37:24,9.152547,-1.1796615,3.7040894,0.11844778,-0.06594,-0.0036633335999999997,9.943892297740057,0.13561482352489998,rest
09/07/2020, 21:37:24,9.174082,-1.1653046999999999,3.6897326,0.11844778,-0.06594,-0.0036633335999999997,9.956698156074038,0.13561482352489998,rest
09/07/2020, 21:37:24,9.174082,-1.1653046999999999,3.6897326,0.12089001,-0.06716111,0.006105555699999999,9.956698156074038,0.13842791107934269,rest
09/07/2020, 21:37:24,9.200403,-1.1629118,3.6753755,0.12089001,-0.06716111,0.006105555699999999,9.97537808134212,0.13842791107934269,rest
09/07/2020, 21:37:25,9.446864,-1.3471591,3.9242291,0.10379445,-0.029306669,-0.035412222,10.317831846174744,0.11351737208286007,rest
09/07/2020, 21:37:25,9.446864,-1.3471591,3.9242291,0.11844778,-0.023201112000000003,-0.05006556,10.317831846174744,0.13067030440697985,rest
09/07/2020, 21:37:25,9.509077,-1.294517,3.9625144,0.11844778,-0.023201112000000003,-0.05006556,10.382670249290374,0.13067030440697985,rest
09/07/2020, 21:37:25,9.509077,-1.294517,3.9625144,0.12821667,-0.014653333999999999,-0.064718895,10.382670249290374,0.14437025225099873,rest
09/07/2020, 21:37:25,9.497113,-1.2466606000000002,3.9840497999999998,0.12821667,-0.014653333999999999,-0.064718895,10.374101169499953,0.14437025225099873,rest
09/07/2020, 21:37:25,9.497113,-1.2466606000000002,3.9840497999999998,0.13188,-0.012211111,-0.07448778,10.374101169499953,0.15195353079503215,rest
09/07/2020, 21:37:25,9.430114,-1.2011969,4.0031924,0.13188,-0.012211111,-0.07448778,10.314817969398273,0.15195353079503215,rest
09/07/2020, 21:37:25,9.430114,-1.2011969,4.0031924,0.12089001,-0.0012211112,-0.08059334,10.314817969398273,0.1452968383472576,rest
09/07/2020, 21:37:25,9.353543,-1.1533405,3.991228,0.12089001,-0.0012211112,-0.08059334,10.23468943882811,0.1452968383472576,rest
09/07/2020, 21:37:25,9.353543,-1.1533405,3.991228,0.10745778,0.015874445,-0.08425667,10.23468943882811,0.13747130257095086,rest
09/07/2020, 21:37:25,9.296116,-1.1126626,3.9673,0.10745778,0.015874445,-0.08425667,10.168345840116931,0.13747130257095086,rest
09/07/2020, 21:37:25,9.296116,-1.1126626,3.9673,0.09646778,0.02198,-0.08059334,10.168345840116931,0.12761049763351576,rest
09/07/2020, 21:37:25,9.233903,-1.0743774,3.9338005,0.09646778,0.02198,-0.08059334,10.094257586813839,0.12761049763351576,rest
09/07/2020, 21:37:25,9.233903,-1.0743774,3.9338005,0.085477784,0.036633335,-0.07570889,10.094257586813839,0.11991784118904975,rest
09/07/2020, 21:37:25,9.162118,-1.0504491000000002,3.9218364,0.085477784,0.036633335,-0.07570889,10.02140955255433,0.11991784118904975,rest
09/07/2020, 21:37:25,9.162118,-1.0504491000000002,3.9218364,0.07693,0.046402223,-0.06716111,10.02140955255433,0.11216954378014013,rest
09/07/2020, 21:37:25,9.114262,-1.0600204,3.9003010000000002,0.07693,0.046402223,-0.06716111,9.970243532039053,0.11216954378014013,rest
09/07/2020, 21:37:25,9.114262,-1.0600204,3.9003010000000002,0.07693,0.05250778,-0.057392225,9.970243532039053,0.10940365431175393,rest
09/07/2020, 21:37:25,9.073584,-1.0504491000000002,3.9290147000000006,0.07693,0.05250778,-0.057392225,9.943365585011088,0.10940365431175393,rest
09/07/2020, 21:37:25,9.073584,-1.0504491000000002,3.9290147000000006,0.091583334,0.054950003,-0.051286668,9.943365585011088,0.11847924757371005,rest
09/07/2020, 21:37:26,8.606983,-1.3232309,4.3836512999999995,-0.07937223,0.091583334,0.10501556,9.74923062598344,0.16036123455592474,rest
09/07/2020, 21:37:26,8.609376,-1.3734802,4.3812584999999995,-0.07937223,0.091583334,0.10501556,9.757214157210123,0.16036123455592474,rest
09/07/2020, 21:37:26,8.609376,-1.3734802,4.3812584999999995,-0.051286668,0.07326667,0.10135223,9.757214157210123,0.13516878962535336,rest
09/07/2020, 21:37:26,8.635697,-1.3950156,4.395615,-0.051286668,0.07326667,0.10135223,9.789932053302618,0.13516878962535336,rest
09/07/2020, 21:37:26,8.635697,-1.3950156,4.395615,-0.019537778999999998,0.05617111,0.09402556,9.789932053302618,0.1112552222119547,rest
09/07/2020, 21:37:26,8.650053999999999,-1.4093726,4.398008,-0.019537778999999998,0.05617111,0.09402556,9.805724760549449,0.1112552222119547,rest
09/07/2020, 21:37:26,8.650053999999999,-1.4093726,4.398008,0.0048844446,0.046402223,0.09524667,9.805724760549449,0.10606108043877696,rest
09/07/2020, 21:37:26,8.671588999999999,-1.3878371999999999,4.4315076,0.0048844446,0.046402223,0.09524667,9.83670704672176,0.10606108043877696,rest
09/07/2020, 21:37:26,8.671588999999999,-1.3878371999999999,4.4315076,0.013432221999999999,0.037854444,0.091583334,9.83670704672176,0.10000445288817976,rest
09/07/2020, 21:37:26,8.657232,-1.3998013,4.476971,0.013432221999999999,0.037854444,0.091583334,9.84633866231533,0.10000445288817976,rest
09/07/2020, 21:37:26,8.657232,-1.3998013,4.476971,0.012211111,0.026864445,0.09036223,9.84633866231533,0.09505862385082632,rest
09/07/2020, 21:37:26,8.676374000000001,-1.3998013,4.4721855999999995,0.012211111,0.026864445,0.09036223,9.8610020302642,0.09505862385082632,rest
09/07/2020, 21:37:26,8.676374000000001,-1.3998013,4.4721855999999995,0.017095556,0.019537778999999998,0.08792,9.8610020302642,0.09167284061839023,rest
09/07/2020, 21:37:26,8.700303,-1.4141582000000001,4.4339004,0.017095556,0.019537778999999998,0.08792,9.866842934740232,0.09167284061839023,rest
09/07/2020, 21:37:26,8.700303,-1.4141582000000001,4.4339004,0.018316668,0.009768889000000001,0.08425667,9.866842934740232,0.08677625353381199,rest
09/07/2020, 21:37:26,8.736196000000001,-1.4524434,4.436293,0.018316668,0.009768889000000001,0.08425667,9.905119956223672,0.08677625353381199,rest
09/07/2020, 21:37:26,8.736196000000001,-1.4524434,4.436293,0.037854444,0.0024422223,0.081814446,9.905119956223672,0.09018052394922632,rest
09/07/2020, 21:37:26,8.738588,-1.4811572,4.465007,0.037854444,0.0024422223,0.081814446,9.924365905962015,0.09018052394922632,rest
09/07/2020, 21:37:26,8.738588,-1.4811572,4.465007,0.064718895,-0.0048844446,0.07815111400000001,9.924365905962015,0.1015873505389721,rest
09/07/2020, 21:37:26,8.774481,-1.4883357,4.469793,0.064718895,-0.0048844446,0.07815111400000001,9.959202023988176,0.1015873505389721,rest
09/07/2020, 21:37:27,8.831908,-1.7563317999999999,4.4554358,-0.034191112999999995,-0.0024422223,0.029306669,10.046801085784443,0.04509853091994378,rest
09/07/2020, 21:37:27,8.827123,-1.7682958999999998,4.4315076,-0.034191112999999995,-0.0024422223,0.029306669,10.034103088243596,0.04509853091994378,rest
09/07/2020, 21:37:27,8.827123,-1.7682958999999998,4.4315076,-0.051286668,0.0048844446,0.046402223,10.034103088243596,0.06933503017023791,rest
09/07/2020, 21:37:27,8.819944,-1.7611175,4.366901400000001,-0.051286668,0.0048844446,0.046402223,9.99813889760924,0.06933503017023791,rest
09/07/2020, 21:37:27,8.819944,-1.7611175,4.366901400000001,-0.057392225,0.014653333999999999,0.059834447,9.99813889760924,0.08419470696079626,rest
09/07/2020, 21:37:27,8.82473,-1.7898313000000001,4.3525443,-0.057392225,0.014653333999999999,0.059834447,10.001199733777751,0.08419470696079626,rest
09/07/2020, 21:37:27,8.82473,-1.7898313000000001,4.3525443,-0.05372889,0.019537778999999998,0.07204556,10.001199733777751,0.09197326073095284,rest
09/07/2020, 21:37:27,8.805588,-1.7946168999999998,4.347759,-0.05372889,0.019537778999999998,0.07204556,9.983087309274177,0.09197326073095284,rest
09/07/2020, 21:37:27,8.805588,-1.7946168999999998,4.347759,-0.05006556,0.01099,0.08669889,9.983087309274177,0.10071761378404903,rest
09/07/2020, 21:37:27,8.843872,-1.8113668,4.369294,-0.05006556,0.01099,0.08669889,10.02924994112078,0.10071761378404903,rest
09/07/2020, 21:37:27,8.843872,-1.8113668,4.369294,-0.037854444,-0.0012211112,0.09768889,10.02924994112078,0.10477389696106884,rest
09/07/2020, 21:37:27,8.894122,-1.7706887999999998,4.3740797,-0.037854444,-0.0012211112,0.09768889,10.068431870904737,0.10477389696106884,rest
09/07/2020, 21:37:27,8.894122,-1.7706887999999998,4.3740797,-0.029306669,0.0024422223,0.10135223,10.068431870904737,0.10553255305074036,rest
09/07/2020, 21:37:27,8.925228,-1.7395821,4.3716870000000005,-0.029306669,0.0024422223,0.10135223,10.089474187752694,0.10553255305074036,rest
09/07/2020, 21:37:27,8.925228,-1.7395821,4.3716870000000005,-0.037854444,0.014653333999999999,0.09646778,10.089474187752694,0.10465997977367532,rest
09/07/2020, 21:37:27,8.920442999999999,-1.6917256,4.345366,-0.037854444,0.014653333999999999,0.09646778,10.065705989799094,0.10465997977367532,rest
09/07/2020, 21:37:27,8.920442999999999,-1.6917256,4.345366,-0.054950003,0.02075889,0.09402556,10.065705989799094,0.1108658656350241,rest
09/07/2020, 21:37:27,8.910871499999999,-1.6749758999999997,4.369294,-0.054950003,0.02075889,0.09402556,10.064785475987797,0.1108658656350241,rest
09/07/2020, 21:37:27,8.910871499999999,-1.6749758999999997,4.369294,-0.07693,0.029306669,0.091583334,10.064785475987797,0.1231446831879893,rest
09/07/2020, 21:37:27,8.896514999999999,-1.6438692,4.3740797,-0.07693,0.029306669,0.091583334,10.049022654655431,0.1231446831879893,rest
09/07/2020, 21:37:28,9.145369,-1.1940184999999999,3.9577286,-0.064718895,0.006105555699999999,0.03052778,10.036287281354713,0.0718175360049492,rest
09/07/2020, 21:37:28,9.145369,-1.1940184999999999,3.9577286,-0.06838222599999999,0.012211111,0.037854444,10.036287281354713,0.07910877961776751,rest
09/07/2020, 21:37:28,9.12144,-1.1653046999999999,3.9625144,-0.06838222599999999,0.012211111,0.037854444,10.012997642664422,0.07910877961776751,rest
09/07/2020, 21:37:28,9.12144,-1.1653046999999999,3.9625144,-0.06838222599999999,0.014653333999999999,0.039075557000000004,10.012997642664422,0.08011084944062041,rest
09/07/2020, 21:37:28,9.099903999999999,-1.1820544,3.979264,-0.06838222599999999,0.014653333999999999,0.039075557000000004,10.002002232634268,0.08011084944062041,rest
09/07/2020, 21:37:28,9.099903999999999,-1.1820544,3.979264,-0.06716111,0.01099,0.039075557000000004,10.002002232634268,0.07847480089709005,rest
09/07/2020, 21:37:28,9.06162,-1.174876,3.9888352999999994,-0.06716111,0.01099,0.039075557000000004,9.97016015585266,0.07847480089709005,rest
09/07/2020, 21:37:28,9.06162,-1.174876,3.9888352999999994,-0.05617111,0.0036633335999999997,0.04151778,9.97016015585266,0.06994526289872667,rest
09/07/2020, 21:37:28,9.049655,-1.1988041,3.9984066,-0.05617111,0.0036633335999999997,0.04151778,9.965974212321235,0.06994526289872667,rest
09/07/2020, 21:37:28,9.049655,-1.1988041,3.9984066,-0.04151778,0.0036633335999999997,0.04151778,9.965974212321235,0.058829176414548386,rest
09/07/2020, 21:37:28,9.044869,-1.2155539,3.9816568,-0.04151778,0.0036633335999999997,0.04151778,9.956948573919801,0.058829176414548386,rest
09/07/2020, 21:37:28,9.044869,-1.2155539,3.9816568,-0.023201112000000003,0.0024422223,0.04151778,9.956948573919801,0.0476233348942911,rest
09/07/2020, 21:37:28,9.044869,-1.2059826,4.031905999999999,-0.023201112000000003,0.0024422223,0.04151778,9.975987362220462,0.0476233348942911,rest
09/07/2020, 21:37:28,9.044869,-1.2059826,4.031905999999999,-0.012211111,-0.0012211112,0.037854444,9.975987362220462,0.03979398574964897,rest
09/07/2020, 21:37:28,9.056833000000001,-1.2107682,4.0558343,-0.012211111,-0.0012211112,0.037854444,9.99709859582667,0.03979398574964897,rest
09/07/2020, 21:37:28,9.056833000000001,-1.2107682,4.0558343,-0.0012211112,-0.0036633335999999997,0.034191112999999995,9.99709859582667,0.034408477608430736,rest
09/07/2020, 21:37:28,9.073584,-1.1676973999999998,4.1036906,-0.0012211112,-0.0036633335999999997,0.034191112999999995,10.02665015972883,0.034408477608430736,rest
09/07/2020, 21:37:28,9.073584,-1.1676973999999998,4.1036906,0.009768889000000001,-0.0048844446,0.023201112000000003,10.02665015972883,0.025643334058778628,rest
09/07/2020, 21:37:28,9.071191,-1.1700903,4.132405,0.009768889000000001,-0.0048844446,0.023201112000000003,10.036552394389565,0.025643334058778628,rest
09/07/2020, 21:37:28,9.071191,-1.1700903,4.132405,0.007326666999999999,0.0,0.014653333999999999,10.036552394389565,0.01638292590111866,rest
09/07/2020, 21:37:29,8.985049,-1.3112668,3.952943,0.07937223,-0.029306669,-0.03297,9.903347393608971,0.09080667480267754,rest
09/07/2020, 21:37:29,8.982656500000001,-1.3471591,3.940979,0.07937223,-0.029306669,-0.03297,9.901225716792895,0.09080667480267754,rest
09/07/2020, 21:37:29,8.982656500000001,-1.3471591,3.940979,0.08914111599999999,-0.035412222,-0.037854444,9.901225716792895,0.1031170349971172,rest
09/07/2020, 21:37:29,8.987442,-1.3567305,3.9242291,0.08914111599999999,-0.035412222,-0.037854444,9.9002225191542,0.1031170349971172,rest
09/07/2020, 21:37:29,8.987442,-1.3567305,3.9242291,0.10501556,-0.04151778,-0.04029667,9.9002225191542,0.11989918956467215,rest
09/07/2020, 21:37:29,8.939586,-1.3591232,3.9242291,0.10501556,-0.04151778,-0.04029667,9.857128515426849,0.11989918956467215,rest
09/07/2020, 21:37:29,8.939586,-1.3591232,3.9242291,0.117226675,-0.046402223,-0.04396,9.857128515426849,0.13352056553439626,rest
09/07/2020, 21:37:29,8.939586,-1.3543376,3.9481572999999996,0.117226675,-0.046402223,-0.04396,9.866020912334923,0.13352056553439626,rest
09/07/2020, 21:37:29,8.939586,-1.3543376,3.9481572999999996,0.11478445,-0.048844445,-0.05006556,9.866020912334923,0.13441655331172736,rest
09/07/2020, 21:37:29,8.953942,-1.3639089,3.9625144,0.11478445,-0.048844445,-0.05006556,9.886093794702527,0.13441655331172736,rest
09/07/2020, 21:37:29,8.953942,-1.3639089,3.9625144,0.10745778,-0.04396,-0.05617111,9.886093794702527,0.1289761600259618,rest
09/07/2020, 21:37:29,8.963513,-1.3519448,3.938586,0.10745778,-0.04396,-0.05617111,9.883561423807777,0.1289761600259618,rest
09/07/2020, 21:37:29,8.963513,-1.3519448,3.938586,0.09280445,-0.04151778,-0.06105556,9.883561423807777,0.11859246479936365,rest
09/07/2020, 21:37:29,8.985049,-1.3710874,3.9673,0.09280445,-0.04151778,-0.06105556,9.917180019034424,0.11859246479936365,rest
09/07/2020, 21:37:29,8.985049,-1.3710874,3.9673,0.07815111400000001,-0.034191112999999995,-0.058613338,9.917180019034424,0.10349952759137936,rest
09/07/2020, 21:37:29,9.025727,-1.3902299999999999,3.9457644999999997,0.07815111400000001,-0.034191112999999995,-0.058613338,9.948143037487462,0.10349952759137936,rest
09/07/2020, 21:37:29,9.025727,-1.3902299999999999,3.9457644999999997,0.06349778,-0.03052778,-0.054950003,9.948143037487462,0.08934996593597314,rest
09/07/2020, 21:37:29,9.0544405,-1.4261223,3.9673,0.06349778,-0.03052778,-0.054950003,9.987801879021976,0.08934996593597314,rest
09/07/2020, 21:37:29,9.0544405,-1.4261223,3.9673,0.048844445,-0.029306669,-0.051286668,9.987801879021976,0.07664843744893376,rest
09/07/2020, 21:37:29,9.092725999999999,-1.4237294,3.9601214,0.048844445,-0.029306669,-0.051286668,10.01934272010808,0.07664843744893376,rest
09/07/2020, 21:37:30,9.226724,-1.5984055,4.156333,-0.109900005,-0.0036633335999999997,-0.03297,10.245117546162987,0.1147974392199633,rest
09/07/2020, 21:37:30,9.221938,-1.5936198000000001,4.1491546999999995,-0.109900005,-0.0036633335999999997,-0.03297,10.237150555365515,0.1147974392199633,rest
09/07/2020, 21:37:30,9.221938,-1.5936198000000001,4.1491546999999995,-0.10135223,-0.0024422223,-0.028085556,10.237150555365515,0.10519998748624387,rest
09/07/2020, 21:37:30,9.217153,-1.5888343,4.15394,-0.10135223,-0.0024422223,-0.028085556,10.234037109005484,0.10519998748624387,rest
09/07/2020, 21:37:30,9.217153,-1.5888343,4.15394,-0.07937223,-0.0048844446,-0.029306669,10.234037109005484,0.0847507468069527,rest
09/07/2020, 21:37:30,9.21476,-1.6199409,4.165904,-0.07937223,-0.0048844446,-0.029306669,10.241619189410446,0.0847507468069527,rest
09/07/2020, 21:37:30,9.21476,-1.6199409,4.165904,-0.057392225,-0.0048844446,-0.025643334,10.241619189410446,0.06305002632815628,rest
09/07/2020, 21:37:30,9.243474,-1.6127625,4.213761,-0.057392225,-0.0048844446,-0.025643334,10.28584439704791,0.06305002632815628,rest
09/07/2020, 21:37:30,9.243474,-1.6127625,4.213761,-0.03297,-0.01099,-0.02075889,10.28584439704791,0.040481261210258516,rest
09/07/2020, 21:37:30,9.269794000000001,-1.6247265,4.228117500000001,-0.03297,-0.01099,-0.02075889,10.317257533999024,0.040481261210258516,rest
09/07/2020, 21:37:30,9.269794000000001,-1.6247265,4.228117500000001,-0.018316668,-0.013432221999999999,-0.019537778999999998,10.317257533999024,0.029960802724426982,rest
09/07/2020, 21:37:30,9.243474,-1.6366907,4.237689,-0.018316668,-0.013432221999999999,-0.019537778999999998,10.299445445836787,0.029960802724426982,rest
09/07/2020, 21:37:30,9.243474,-1.6366907,4.237689,-0.0048844446,-0.009768889000000001,-0.019537778999999998,10.299445445836787,0.022383337303507597,rest
09/07/2020, 21:37:30,9.174082,-1.5864413999999998,4.182654,-0.0048844446,-0.009768889000000001,-0.019537778999999998,10.206623678038484,0.022383337303507597,rest
09/07/2020, 21:37:30,9.174082,-1.5864413999999998,4.182654,0.0012211112,-0.0048844446,-0.017095556,10.206623678038484,0.017821530893493427,rest
09/07/2020, 21:37:30,9.142975,-1.5553347,4.1252260000000005,0.0012211112,-0.0048844446,-0.017095556,10.150396291974108,0.017821530893493427,rest
09/07/2020, 21:37:30,9.142975,-1.5553347,4.1252260000000005,0.0024422223,-0.009768889000000001,-0.015874445,10.150396291974108,0.018798767664882088,rest
09/07/2020, 21:37:30,9.109475999999999,-1.5481563,4.113262000000001,0.0024422223,-0.009768889000000001,-0.015874445,10.114260633746273,0.018798767664882088,rest
09/07/2020, 21:37:30,9.109475999999999,-1.5481563,4.113262000000001,-0.006105555699999999,-0.017095556,-0.013432221999999999,10.114260633746273,0.02258230415170769,rest
09/07/2020, 21:37:30,9.12144,-1.5170496,4.1874394,-0.006105555699999999,-0.017095556,-0.013432221999999999,10.150702186719109,0.02258230415170769,rest
09/07/2020, 21:37:31,8.60459,-1.7659031000000003,4.462614,0.023201112000000003,0.02075889,-0.039075557000000004,9.852528319292054,0.049961207435100255,rest
09/07/2020, 21:37:31,8.618947,-1.8233308999999998,4.5128636,0.023201112000000003,0.02075889,-0.039075557000000004,9.898319129177343,0.049961207435100255,rest
09/07/2020, 21:37:31,8.618947,-1.8233308999999998,4.5128636,0.07204556,-0.0048844446,-0.039075557000000004,9.898319129177343,0.08210553743721903,rest
09/07/2020, 21:37:31,8.630911,-1.8137596,4.57747,0.07204556,-0.0048844446,-0.039075557000000004,9.93657769412154,0.08210553743721903,rest
09/07/2020, 21:37:31,8.630911,-1.8137596,4.57747,0.10135223,-0.015874445,-0.042738892,9.93657769412154,0.11113453732858856,rest
09/07/2020, 21:37:31,8.626125,-1.7443677,4.5966125,0.10135223,-0.015874445,-0.042738892,9.928831909768217,0.11113453732858856,rest
09/07/2020, 21:37:31,8.626125,-1.7443677,4.5966125,0.117226675,-0.02075889,-0.04396,9.928831909768217,0.12690747252021228,rest
09/07/2020, 21:37:31,8.595019,-1.6989040000000002,4.6085763,0.117226675,-0.02075889,-0.04396,9.899475131776203,0.12690747252021228,rest
09/07/2020, 21:37:31,8.595019,-1.6989040000000002,4.6085763,0.117226675,-0.026864445,-0.04396,9.899475131776203,0.1280479343050768,rest
09/07/2020, 21:37:31,8.547162,-1.6558331999999998,4.615755,0.117226675,-0.026864445,-0.04396,9.853981830377858,0.1280479343050768,rest
09/07/2020, 21:37:31,8.547162,-1.6558331999999998,4.615755,0.109900005,-0.026864445,-0.048844445,9.853981830377858,0.12322941770066036,rest
09/07/2020, 21:37:31,8.484949,-1.6438692,4.5846480000000005,0.109900005,-0.026864445,-0.048844445,9.783438339862327,0.12322941770066036,rest
09/07/2020, 21:37:31,8.484949,-1.6438692,4.5846480000000005,0.11478445,-0.034191112999999995,-0.047623335999999995,9.783438339862327,0.12888942616690033,rest
09/07/2020, 21:37:31,8.408379,-1.6414764,4.5942197,0.11478445,-0.034191112999999995,-0.047623335999999995,9.72122060017768,0.12888942616690033,rest
09/07/2020, 21:37:31,8.408379,-1.6414764,4.5942197,0.123332225,-0.042738892,-0.05006556,9.72122060017768,0.13979989524386344,rest
09/07/2020, 21:37:31,8.374879,-1.6606188999999998,4.5918264,0.123332225,-0.042738892,-0.05006556,9.694386081191196,0.13979989524386344,rest
09/07/2020, 21:37:31,8.374879,-1.6606188999999998,4.5918264,0.14897557,-0.05617111,-0.05372889,9.694386081191196,0.16803483762618285,rest
09/07/2020, 21:37:31,8.355737,-1.7036897,4.610969,0.14897557,-0.05617111,-0.05372889,9.694427814508185,0.16803483762618285,rest
09/07/2020, 21:37:31,8.355737,-1.7036897,4.610969,0.17828223,-0.06960334,-0.057392225,9.694427814508185,0.1998075227641773,rest
09/07/2020, 21:37:31,8.341380000000001,-1.7252251,4.6348970000000005,0.17828223,-0.06960334,-0.057392225,9.6972829318998,0.1998075227641773,rest
09/07/2020, 21:37:32,8.62134,-1.6582261000000003,4.331009,-0.08669889,0.009768889000000001,-0.02075889,9.789527670249804,0.08968310976303644,rest
09/07/2020, 21:37:32,8.62134,-1.6582261000000003,4.331009,-0.05617111,-0.01099,-0.02198,9.789527670249804,0.061311453521305626,rest
09/07/2020, 21:37:32,8.676374000000001,-1.6917256,4.326223400000001,-0.05617111,-0.01099,-0.02198,9.841626774349633,0.061311453521305626,rest
09/07/2020, 21:37:32,8.676374000000001,-1.6917256,4.326223400000001,-0.03297,-0.015874445,-0.03174889,9.841626774349633,0.04844595951916978,rest
09/07/2020, 21:37:32,8.73141,-1.7156538000000001,4.359723000000001,-0.03297,-0.015874445,-0.03174889,9.908994619334015,0.04844595951916978,rest
09/07/2020, 21:37:32,8.73141,-1.7156538000000001,4.359723000000001,-0.024422223,-0.017095556,-0.03052778,9.908994619334015,0.04266905619913774,rest
09/07/2020, 21:37:32,8.755338,-1.7156538000000001,4.345366,-0.024422223,-0.017095556,-0.03052778,9.923790207024382,0.04266905619913774,rest
09/07/2020, 21:37:32,8.755338,-1.7156538000000001,4.345366,-0.02198,-0.02198,-0.03052778,9.923790207024382,0.04356817874908465,rest
09/07/2020, 21:37:32,8.755338,-1.7180467000000001,4.3716870000000005,-0.02198,-0.02198,-0.03052778,9.935757118179232,0.04356817874908465,rest
09/07/2020, 21:37:32,8.755338,-1.7180467000000001,4.3716870000000005,-0.02075889,-0.026864445,-0.028085556,9.935757118179232,0.0440616425434675,rest
09/07/2020, 21:37:32,8.755338,-1.7491534,4.398008,-0.02075889,-0.026864445,-0.028085556,9.952786004928207,0.0440616425434675,rest
09/07/2020, 21:37:32,8.755338,-1.7491534,4.398008,-0.017095556,-0.03174889,-0.02198,9.952786004928207,0.042229972204148335,rest
09/07/2020, 21:37:32,8.7673025,-1.7491534,4.409972,-0.017095556,-0.03174889,-0.02198,9.968599982555178,0.042229972204148335,rest
09/07/2020, 21:37:32,8.7673025,-1.7491534,4.409972,-0.008547778,-0.04396,-0.02198,9.968599982555178,0.04988653784231025,rest
09/07/2020, 21:37:32,8.738588,-1.7467605,4.4315076,-0.008547778,-0.04396,-0.02198,9.952505099434877,0.04988653784231025,rest
09/07/2020, 21:37:32,8.738588,-1.7467605,4.4315076,-0.019537778999999998,-0.046402223,-0.02075889,9.952505099434877,0.0544593667498593,rest
09/07/2020, 21:37:32,8.693125,-1.7347964,4.412365,-0.019537778999999998,-0.046402223,-0.02075889,9.9019645217606,0.0544593667498593,rest
09/07/2020, 21:37:32,8.693125,-1.7347964,4.412365,-0.034191112999999995,-0.04029667,-0.02075889,9.9019645217606,0.05677838779810105,rest
09/07/2020, 21:37:32,8.702696000000001,-1.7228323,4.436293,-0.034191112999999995,-0.04029667,-0.02075889,9.918959769053961,0.05677838779810105,rest
09/07/2020, 21:37:32,8.702696000000001,-1.7228323,4.436293,-0.048844445,-0.03174889,-0.013432221999999999,9.918959769053961,0.05978458435829745,rest
09/07/2020, 21:37:33,8.908479,-1.4356936000000002,4.158725700000001,-0.059834447,0.036633335,0.017095556,9.935653443476967,0.07221094312820474,rest
09/07/2020, 21:37:33,8.908479,-1.4356936000000002,4.158725700000001,-0.06105556,0.04029667,0.018316668,9.935653443476967,0.07541288545313599,rest
09/07/2020, 21:37:33,8.930014,-1.4261223,4.139583,-0.06105556,0.04029667,0.018316668,9.94560792889958,0.07541288545313599,rest
09/07/2020, 21:37:33,8.930014,-1.4261223,4.139583,-0.06227667,0.037854444,0.019537778999999998,9.94560792889958,0.07545241694281546,rest
09/07/2020, 21:37:33,8.930014,-1.4093726,4.1611185,-0.06227667,0.037854444,0.019537778999999998,9.952204890156494,0.07545241694281546,rest
09/07/2020, 21:37:33,8.930014,-1.4093726,4.1611185,-0.07570889,0.037854444,0.023201112000000003,9.952204890156494,0.0877672280878432,rest
09/07/2020, 21:37:33,8.927621,-1.457229,4.1467614,-0.07570889,0.037854444,0.023201112000000003,9.950957812178988,0.0877672280878432,rest
09/07/2020, 21:37:33,8.927621,-1.457229,4.1467614,-0.08914111599999999,0.04151778,0.023201112000000003,9.950957812178988,0.10103541981608398,rest
09/07/2020, 21:37:33,8.898908,-1.4931214,4.130012000000001,-0.08914111599999999,0.04151778,0.023201112000000003,9.923556240136858,0.10103541981608398,rest
09/07/2020, 21:37:33,8.898908,-1.4931214,4.130012000000001,-0.08792,0.051286668,0.028085556,9.923556240136858,0.10558905049892924,rest
09/07/2020, 21:37:33,8.88455,-1.4979069,4.1419760000000005,-0.08792,0.051286668,0.028085556,9.916396508921492,0.10558905049892924,rest
09/07/2020, 21:37:33,8.88455,-1.4979069,4.1419760000000005,-0.07693,0.051286668,0.025643334,9.916396508921492,0.09594856930691513,rest
09/07/2020, 21:37:33,8.836694,-1.4763715,4.156333,-0.07693,0.051286668,0.025643334,9.876331976681868,0.09594856930691513,rest
09/07/2020, 21:37:33,8.836694,-1.4763715,4.156333,-0.06227667,0.036633335,0.025643334,9.876331976681868,0.07666788954840176,rest
09/07/2020, 21:37:33,8.807981,-1.5002997999999999,4.180261,-0.06227667,0.036633335,0.025643334,9.864380559826783,0.07666788954840176,rest
09/07/2020, 21:37:33,8.807981,-1.5002997999999999,4.180261,-0.06227667,0.029306669,0.029306669,9.864380559826783,0.07480738702529224,rest
09/07/2020, 21:37:33,8.788837,-1.5314065000000001,4.197011,-0.06227667,0.029306669,0.029306669,9.85919726142386,0.07480738702529224,rest
09/07/2020, 21:37:33,8.788837,-1.5314065000000001,4.197011,-0.06227667,0.025643334,0.029306669,9.85919726142386,0.07344960780081848,rest
09/07/2020, 21:37:33,8.7984085,-1.5290136,4.216153599999999,-0.06227667,0.025643334,0.029306669,9.87551650966252,0.07344960780081848,rest
09/07/2020, 21:37:33,8.7984085,-1.5290136,4.216153599999999,-0.06227667,0.017095556,0.03174889,9.87551650966252,0.07196272372546275,rest
09/07/2020, 21:37:34,8.980264,-1.3471591,4.0558343,0.023201112000000003,-0.01099,-0.0024422223,9.945338902462312,0.02578829465911374,rest
09/07/2020, 21:37:34,8.958728,-1.3328022,4.0773697,0.023201112000000003,-0.01099,-0.0024422223,9.932779554611171,0.02578829465911374,rest
09/07/2020, 21:37:34,8.958728,-1.3328022,4.0773697,0.023201112000000003,-0.015874445,-0.0048844446,9.932779554611171,0.02853326833280055,rest
09/07/2020, 21:37:34,8.992227999999999,-1.3208381,4.089334,0.023201112000000003,-0.015874445,-0.0048844446,9.966314379587605,0.02853326833280055,rest
09/07/2020, 21:37:34,8.992227999999999,-1.3208381,4.089334,0.026864445,-0.012211111,-0.007326666999999999,9.966314379587605,0.0304054220429225,rest
09/07/2020, 21:37:34,9.004191,-1.3232309,4.098905,0.026864445,-0.012211111,-0.007326666999999999,9.981353894490184,0.0304054220429225,rest
09/07/2020, 21:37:34,9.004191,-1.3232309,4.098905,0.02198,-0.012211111,-0.009768889000000001,9.981353894490184,0.02697522692904954,rest
09/07/2020, 21:37:34,8.982656500000001,-1.3280165000000002,4.0965123,0.02198,-0.012211111,-0.009768889000000001,9.961584134187977,0.02697522692904954,rest
09/07/2020, 21:37:34,8.982656500000001,-1.3280165000000002,4.0965123,0.01099,-0.009768889000000001,-0.01099,9.961584134187977,0.018357325850398225,rest
09/07/2020, 21:37:34,8.956335000000001,-1.3423735,4.074977,0.01099,-0.009768889000000001,-0.01099,9.93092852359176,0.018357325850398225,rest
09/07/2020, 21:37:34,8.956335000000001,-1.3423735,4.074977,0.0024422223,-0.0012211112,-0.012211111,9.93092852359176,0.012512665716268013,rest
09/07/2020, 21:37:34,8.932407000000001,-1.3734802,4.089334,0.0024422223,-0.0012211112,-0.012211111,9.919526304373564,0.012512665716268013,rest
09/07/2020, 21:37:34,8.932407000000001,-1.3734802,4.089334,-0.0048844446,0.0012211112,-0.009768889000000001,9.919526304373564,0.010990000446327029,rest
09/07/2020, 21:37:34,8.930014,-1.4069797,4.082155,-0.0048844446,0.0012211112,-0.009768889000000001,9.919109185313904,0.010990000446327029,rest
09/07/2020, 21:37:34,8.930014,-1.4069797,4.082155,-0.0048844446,0.0036633335999999997,-0.008547778,9.919109185313904,0.01050439552691326,rest
09/07/2020, 21:37:34,8.932407000000001,-1.4356936000000002,4.0845485,-0.0048844446,0.0036633335999999997,-0.008547778,9.926361568748009,0.01050439552691326,rest
09/07/2020, 21:37:34,8.932407000000001,-1.4356936000000002,4.0845485,-0.0048844446,0.0048844446,-0.008547778,9.926361568748009,0.010990000536872279,rest
09/07/2020, 21:37:34,8.941978,-1.457229,4.0701914,-0.0048844446,0.0048844446,-0.008547778,9.932217929096147,0.010990000536872279,rest
09/07/2020, 21:37:34,8.941978,-1.457229,4.0701914,0.0,0.0036633335999999997,-0.006105555699999999,9.932217929096147,0.007120240396387798,rest
09/07/2020, 21:37:34,8.944371,-1.457229,4.0701914,0.0,0.0036633335999999997,-0.006105555699999999,9.934372194134124,0.007120240396387798,rest
09/07/2020, 21:37:35,8.927621,-1.4165510000000001,4.0534415,0.10135223,-0.037854444,-0.006105555699999999,9.906534188426537,0.10836286830234264,rest
09/07/2020, 21:37:35,8.927621,-1.4165510000000001,4.0534415,0.09036223,-0.035412222,-0.0024422223,9.906534188426537,0.09708409889511133,rest
09/07/2020, 21:37:35,8.949157000000001,-1.4380864,4.015156299999999,0.09036223,-0.035412222,-0.0024422223,9.913474621321855,0.09708409889511133,rest
09/07/2020, 21:37:35,8.949157000000001,-1.4380864,4.015156299999999,0.07937223,-0.035412222,-0.0012211112,9.913474621321855,0.08692218956780243,rest
09/07/2020, 21:37:35,8.975478,-1.4285151000000003,3.9625144,0.07937223,-0.035412222,-0.0012211112,9.914705447953695,0.08692218956780243,rest
09/07/2020, 21:37:35,8.975478,-1.4285151000000003,3.9625144,0.07204556,-0.035412222,-0.0036633335999999997,9.914705447953695,0.08036173095964957,rest
09/07/2020, 21:37:35,8.987442,-1.4141582000000001,3.9098723,0.07204556,-0.035412222,-0.0036633335999999997,9.902578393455963,0.08036173095964957,rest
09/07/2020, 21:37:35,8.987442,-1.4141582000000001,3.9098723,0.07815111400000001,-0.04151778,-0.0024422223,9.902578393455963,0.08852845365267077,rest
09/07/2020, 21:37:35,9.004191,-1.4045869,3.9098723,0.07815111400000001,-0.04151778,-0.0024422223,9.916422161514408,0.08852845365267077,rest
09/07/2020, 21:37:35,9.004191,-1.4045869,3.9098723,0.091583334,-0.046402223,0.0,9.916422161514408,0.10266778164160194,rest
09/07/2020, 21:37:35,9.035298,-1.4285151000000003,3.9457644999999997,0.091583334,-0.046402223,0.0,9.962245197242627,0.10266778164160194,rest
09/07/2020, 21:37:35,9.035298,-1.4285151000000003,3.9457644999999997,0.10135223,-0.05006556,-0.0036633335999999997,9.962245197242627,0.1131028497404492,rest
09/07/2020, 21:37:35,9.073584,-1.4141582000000001,4.0295134,0.10135223,-0.05006556,-0.0036633335999999997,10.028297003745806,0.1131028497404492,rest
09/07/2020, 21:37:35,9.073584,-1.4141582000000001,4.0295134,0.10135223,-0.047623335999999995,-0.0048844446,10.028297003745806,0.11208976059094013,rest
09/07/2020, 21:37:35,9.078369,-1.4093726,4.0534415,0.10135223,-0.047623335999999995,-0.0048844446,10.041588792707927,0.11208976059094013,rest
09/07/2020, 21:37:35,9.078369,-1.4093726,4.0534415,0.09646778,-0.04029667,-0.007326666999999999,10.041588792707927,0.10480235626295037,rest
09/07/2020, 21:37:35,9.071191,-1.3686945,4.067798600000001,0.09646778,-0.04029667,-0.007326666999999999,10.035278445073,0.10480235626295037,rest
09/07/2020, 21:37:35,9.071191,-1.3686945,4.067798600000001,0.07937223,-0.03174889,-0.008547778,10.035278445073,0.08591278737286248,rest
09/07/2020, 21:37:35,9.056833000000001,-1.3471591,4.082155,0.07937223,-0.03174889,-0.008547778,10.025221089873817,0.08591278737286248,rest
09/07/2020, 21:37:35,9.056833000000001,-1.3471591,4.082155,0.05617111,-0.018316668,-0.009768889000000001,10.025221089873817,0.05988426591188964,rest
09/07/2020, 21:37:36,8.776874000000001,-1.8735800999999999,4.199404,-0.01099,-0.0024422223,-0.006105555699999999,9.908521803828966,0.012807121744049622,rest
09/07/2020, 21:37:36,8.752945,-1.8927227,4.1874394,-0.01099,-0.0024422223,-0.006105555699999999,9.885903784051825,0.012807121744049622,rest
09/07/2020, 21:37:36,8.752945,-1.8927227,4.1874394,0.0012211112,-0.008547778,-0.0048844446,9.885903784051825,0.009920354066188942,rest
09/07/2020, 21:37:36,8.762516999999999,-1.8879370999999998,4.206582,0.0012211112,-0.008547778,-0.0048844446,9.901582844528932,0.009920354066188942,rest
09/07/2020, 21:37:36,8.762516999999999,-1.8879370999999998,4.206582,0.014653333999999999,-0.009768889000000001,-0.0024422223,9.901582844528932,0.017779647257670478,rest
09/07/2020, 21:37:36,8.745766999999999,-1.9046868000000001,4.223332,0.014653333999999999,-0.009768889000000001,-0.0024422223,9.897110615288677,0.017779647257670478,rest
09/07/2020, 21:37:36,8.745766999999999,-1.9046868000000001,4.223332,0.024422223,-0.009768889000000001,0.0048844446,9.897110615288677,0.026753204692445385,rest
09/07/2020, 21:37:36,8.752945,-1.8975084,4.213761,0.024422223,-0.009768889000000001,0.0048844446,9.897997970309877,0.026753204692445385,rest
09/07/2020, 21:37:36,8.752945,-1.8975084,4.213761,0.028085556,-0.014653333999999999,0.01099,9.897997970309877,0.03353056464296681,rest
09/07/2020, 21:37:36,8.733803,-1.8711872999999999,4.2041892999999995,0.028085556,-0.014653333999999999,0.01099,9.871973509140359,0.03353056464296681,rest
09/07/2020, 21:37:36,8.733803,-1.8711872999999999,4.2041892999999995,0.042738892,-0.025643334,0.018316668,9.871973509140359,0.05310078886871932,rest
09/07/2020, 21:37:36,8.7984085,-1.8544376,4.182654,0.042738892,-0.025643334,0.018316668,9.91693121550972,0.05310078886871932,rest
09/07/2020, 21:37:36,8.7984085,-1.8544376,4.182654,0.06349778,-0.029306669,0.013432221999999999,9.91693121550972,0.07121287609822294,rest
09/07/2020, 21:37:36,8.822337,-1.8113668,4.1922255,0.06349778,-0.029306669,0.013432221999999999,9.934255721782119,0.07121287609822294,rest
09/07/2020, 21:37:36,8.822337,-1.8113668,4.1922255,0.08425667,-0.035412222,0.009768889000000001,9.934255721782119,0.09191650203015143,rest
09/07/2020, 21:37:36,8.915657000000001,-1.7778671999999998,4.1635113,0.08425667,-0.035412222,0.009768889000000001,9.999228892152411,0.09191650203015143,rest
09/07/2020, 21:37:36,8.915657000000001,-1.7778671999999998,4.1635113,0.09280445,-0.036633335,0.007326666999999999,9.999228892152411,0.10004172448681292,rest
09/07/2020, 21:37:36,8.930014,-1.7252251,4.180261,0.09280445,-0.036633335,0.007326666999999999,10.009801630379064,0.10004172448681292,rest
09/07/2020, 21:37:36,8.930014,-1.7252251,4.180261,0.08059334,-0.026864445,0.006105555699999999,10.009801630379064,0.08517195944051817,rest
09/07/2020, 21:37:36,8.906086,-1.6486547999999999,4.208975,0.08059334,-0.026864445,0.006105555699999999,9.987587254661506,0.08517195944051817,rest
09/07/2020, 21:37:37,9.016156,-1.3280165000000002,3.9984066,-0.054950003,0.03052778,0.017095556,9.95198252437315,0.0651437347454965,rest
09/07/2020, 21:37:37,9.016156,-1.3280165000000002,3.9984066,-0.05617111,0.036633335,0.014653333999999999,9.95198252437315,0.06864339183545623,rest
09/07/2020, 21:37:37,8.992227999999999,-1.3016955,3.979264,-0.05617111,0.036633335,0.014653333999999999,9.919128470949198,0.06864339183545623,rest
09/07/2020, 21:37:37,8.992227999999999,-1.3016955,3.979264,-0.06716111,0.042738892,0.009768889000000001,9.919128470949198,0.08020386026650297,rest
09/07/2020, 21:37:37,8.975478,-1.3232309,3.9673,-0.06716111,0.042738892,0.009768889000000001,9.90200066334649,0.08020386026650297,rest
09/07/2020, 21:37:37,8.975478,-1.3232309,3.9673,-0.07448778,0.046402223,0.013432221999999999,9.90200066334649,0.08878074540564734,rest
09/07/2020, 21:37:37,8.968299,-1.3423735,3.9338005,-0.07448778,0.046402223,0.013432221999999999,9.88469210516459,0.08878074540564734,rest
09/07/2020, 21:37:37,8.968299,-1.3423735,3.9338005,-0.07204556,0.035412222,0.023201112000000003,9.88469210516459,0.0835636247064694,rest
09/07/2020, 21:37:37,9.06162,-1.4213367000000001,3.938586,-0.07204556,0.035412222,0.023201112000000003,9.982264781973852,0.0835636247064694,rest
09/07/2020, 21:37:37,9.06162,-1.4213367000000001,3.938586,-0.057392225,0.03174889,0.018316668,9.982264781973852,0.06809816321831026,rest
09/07/2020, 21:37:37,9.159725,-1.4620147,3.9361932,-0.057392225,0.03174889,0.018316668,10.076292452012376,0.06809816321831026,rest
09/07/2020, 21:37:37,9.159725,-1.4620147,3.9361932,-0.039075557000000004,0.034191112999999995,0.012211111,10.076292452012376,0.05333894086686189,rest
09/07/2020, 21:37:37,9.178867,-1.4620147,3.952943,-0.039075557000000004,0.034191112999999995,0.012211111,10.100240175527887,0.05333894086686189,rest
09/07/2020, 21:37:37,9.178867,-1.4620147,3.952943,-0.03052778,0.037854444,0.0048844446,10.100240175527887,0.048874963829680526,rest
09/07/2020, 21:37:37,9.164511,-1.4117653000000001,3.9960138999999995,-0.03052778,0.037854444,0.0048844446,10.09700278092867,0.048874963829680526,rest
09/07/2020, 21:37:37,9.164511,-1.4117653000000001,3.9960138999999995,-0.048844445,0.045181114,0.0012211112,10.09700278092867,0.0665477576715524,rest
09/07/2020, 21:37:37,9.133403999999999,-1.3663018,4.0558343,-0.048844445,0.045181114,0.0012211112,10.08640852478846,0.0665477576715524,rest
09/07/2020, 21:37:37,9.133403999999999,-1.3663018,4.0558343,-0.081814446,0.05250778,0.006105555699999999,10.08640852478846,0.0974061000347662,rest
09/07/2020, 21:37:37,9.040084,-1.3495518999999998,4.0390844,-0.081814446,0.05250778,0.006105555699999999,9.992928004080118,0.0974061000347662,rest
09/07/2020, 21:37:37,9.040084,-1.3495518999999998,4.0390844,-0.11844778,0.06227667,0.01099,9.992928004080118,0.1342722619199894,rest
09/07/2020, 21:37:38,9.052048,-1.1892328,3.7950168,0.07693,-0.029306669,0.0036633335999999997,9.887163145368735,0.0824046476877563,rest
09/07/2020, 21:37:38,9.052048,-1.1892328,3.7950168,0.070824444,-0.03052778,0.006105555699999999,9.887163145368735,0.07736488261025977,rest
09/07/2020, 21:37:38,9.064013000000001,-1.2323036,3.7471601999999997,0.070824444,-0.03052778,0.006105555699999999,9.885145666360891,0.07736488261025977,rest
09/07/2020, 21:37:38,9.064013000000001,-1.2323036,3.7471601999999997,0.08059334,-0.035412222,0.007326666999999999,9.885145666360891,0.08833454589170707,rest
09/07/2020, 21:37:38,9.097511,-1.2418749,3.7543387000000004,0.08059334,-0.035412222,0.007326666999999999,9.9197794548721,0.08833454589170707,rest
09/07/2020, 21:37:38,9.097511,-1.2418749,3.7543387000000004,0.09646778,-0.04029667,0.0012211112,9.9197794548721,0.10455307235331184,rest
09/07/2020, 21:37:38,9.123833,-1.2418749,3.7830527000000003,0.09646778,-0.04029667,0.0012211112,9.954801059636493,0.10455307235331184,rest
09/07/2020, 21:37:38,9.123833,-1.2418749,3.7830527000000003,0.10501556,-0.04151778,-0.0012211112,9.954801059636493,0.11293132937170022,rest
09/07/2020, 21:37:38,9.152547,-1.2370893,3.8165522000000003,0.10501556,-0.04151778,-0.0012211112,9.993276475854517,0.11293132937170022,rest
09/07/2020, 21:37:38,9.152547,-1.2370893,3.8165522000000003,0.09646778,-0.042738892,0.0012211112,9.993276475854517,0.10551841650929132,rest
09/07/2020, 21:37:38,9.171689,-1.1988041,3.8691942999999998,0.09646778,-0.042738892,0.0012211112,10.026349055679905,0.10551841650929132,rest
09/07/2020, 21:37:38,9.171689,-1.1988041,3.8691942999999998,0.07937223,-0.03297,-0.0012211112,10.026349055679905,0.08595616595524189,rest
09/07/2020, 21:37:38,9.171689,-1.2131611,3.897908,0.07937223,-0.03297,-0.0012211112,10.039189517541855,0.08595616595524189,rest
09/07/2020, 21:37:38,9.171689,-1.2131611,3.897908,0.058613338,-0.02198,-0.0012211112,10.039189517541855,0.0626109805331014,rest
09/07/2020, 21:37:38,9.169296000000001,-1.2323036,3.912265,0.058613338,-0.02198,-0.0012211112,10.044918323072087,0.0626109805331014,rest
09/07/2020, 21:37:38,9.169296000000001,-1.2323036,3.912265,0.039075557000000004,-0.0036633335999999997,-0.0012211112,10.044918323072087,0.039265892215984984,rest
09/07/2020, 21:37:38,9.138189,-1.2418749,3.897908,0.039075557000000004,-0.0036633335999999997,-0.0012211112,10.012114855610786,0.039265892215984984,rest
09/07/2020, 21:37:38,9.138189,-1.2418749,3.897908,0.024422223,-0.0024422223,0.007326666999999999,10.012114855610786,0.025614243421500645,rest
09/07/2020, 21:37:38,9.073584,-1.2490535,3.8739797999999994,0.024422223,-0.0024422223,0.007326666999999999,9.944735971089752,0.025614243421500645,rest
09/07/2020, 21:37:38,9.073584,-1.2490535,3.8739797999999994,0.02075889,-0.006105555699999999,0.013432221999999999,9.944735971089752,0.02546829219672924,rest
09/07/2020, 21:37:39,8.803194,-1.7587247,4.218546400000001,0.035412222,0.0,0.037854444,9.91894508475438,0.05183613050538197,rest
09/07/2020, 21:37:39,8.803194,-1.7587247,4.218546400000001,0.03174889,0.0,0.046402223,9.91894508475438,0.056224179932940016,rest
09/07/2020, 21:37:39,8.817552000000001,-1.7371893,4.1611185,0.03174889,0.0,0.046402223,9.903633187736787,0.056224179932940016,rest
09/07/2020, 21:37:39,8.817552000000001,-1.7371893,4.1611185,0.029306669,-0.0024422223,0.054950003,9.903633187736787,0.062324538257150036,rest
09/07/2020, 21:37:39,8.839087,-1.6845471999999997,4.1204405,0.029306669,-0.0024422223,0.054950003,9.896725707368727,0.062324538257150036,rest
09/07/2020, 21:37:39,8.839087,-1.6845471999999997,4.1204405,0.035412222,-0.0012211112,0.05372889,9.896725707368727,0.06436078134586094,rest
09/07/2020, 21:37:39,8.894122,-1.6295122,4.091727,0.035412222,-0.0012211112,0.05372889,9.924865055672113,0.06436078134586094,rest
09/07/2020, 21:37:39,8.894122,-1.6295122,4.091727,0.051286668,-0.01099,0.05250778,9.924865055672113,0.0742170424598836,rest
09/07/2020, 21:37:39,8.944371,-1.5840486,4.041477700000001,0.051286668,-0.01099,0.05250778,9.942058563542382,0.0742170424598836,rest
09/07/2020, 21:37:39,8.944371,-1.5840486,4.041477700000001,0.05372889,-0.02075889,0.05006556,9.942058563542382,0.07631700480196169,rest
09/07/2020, 21:37:39,8.906086,-1.5242280000000001,4.015156299999999,0.05372889,-0.02075889,0.05006556,9.887523353199047,0.07631700480196169,rest
09/07/2020, 21:37:39,8.906086,-1.5242280000000001,4.015156299999999,0.04396,-0.014653333999999999,0.047623335999999995,9.887523353199047,0.0664468515933972,rest
09/07/2020, 21:37:39,8.894122,-1.4715858999999998,3.9984066,0.04396,-0.014653333999999999,0.047623335999999995,9.861958682312208,0.0664468515933972,rest
09/07/2020, 21:37:39,8.894122,-1.4715858999999998,3.9984066,0.036633335,-0.014653333999999999,0.054950003,9.861958682312208,0.06764779545319194,rest
09/07/2020, 21:37:39,8.908479,-1.4596218,3.9553358999999997,0.036633335,-0.014653333999999999,0.054950003,9.855768407200319,0.06764779545319194,rest
09/07/2020, 21:37:39,8.908479,-1.4596218,3.9553358999999997,0.03052778,-0.013432221999999999,0.05250778,9.855768407200319,0.06220479847108571,rest
09/07/2020, 21:37:39,8.925228,-1.5074782,3.9673,0.03052778,-0.013432221999999999,0.05250778,9.882897166797015,0.06220479847108571,rest
09/07/2020, 21:37:39,8.925228,-1.5074782,3.9673,0.037854444,-0.017095556,0.045181114,9.882897166797015,0.06137222566105014,rest
09/07/2020, 21:37:39,8.9348,-1.5050854999999999,4.022335,0.037854444,-0.017095556,0.045181114,9.91338061542278,0.06137222566105014,rest
09/07/2020, 21:37:39,8.9348,-1.5050854999999999,4.022335,0.046402223,-0.024422223,0.04029667,9.91338061542278,0.06613193569124916,rest
09/07/2020, 21:37:40,9.042477,-1.4380864,3.926622,-0.04029667,0.046402223,0.04396,9.96257176437962,0.07556103275050215,rest
09/07/2020, 21:37:40,9.042477,-1.4380864,3.926622,-0.039075557000000004,0.046402223,0.045181114,9.96257176437962,0.07563992719442743,rest
09/07/2020, 21:37:40,9.035298,-1.4380864,3.95055,-0.039075557000000004,0.046402223,0.045181114,9.965518281745164,0.07563992719442743,rest
09/07/2020, 21:37:40,9.035298,-1.4380864,3.95055,-0.039075557000000004,0.042738892,0.04396,9.965518281745164,0.07270484016352552,rest
09/07/2020, 21:37:40,8.997013,-1.4620147,3.9457644999999997,-0.039075557000000004,0.042738892,0.04396,9.932411052037473,0.07270484016352552,rest
09/07/2020, 21:37:40,8.997013,-1.4620147,3.9457644999999997,-0.039075557000000004,0.042738892,0.045181114,9.932411052037473,0.07344960959689087,rest
09/07/2020, 21:37:40,9.006584,-1.4811572,3.9218364,-0.039075557000000004,0.042738892,0.045181114,9.934444399672683,0.07344960959689087,rest
09/07/2020, 21:37:40,9.006584,-1.4811572,3.9218364,-0.04029667,0.04396,0.04029667,9.934444399672683,0.07197308490101309,rest
09/07/2020, 21:37:40,9.013762,-1.4787643999999998,3.938586,-0.04029667,0.04396,0.04029667,9.947216584856651,0.07197308490101309,rest
09/07/2020, 21:37:40,9.013762,-1.4787643999999998,3.938586,-0.045181114,0.04396,0.036633335,9.947216584856651,0.0729096429558629,rest
09/07/2020, 21:37:40,9.025727,-1.4668003,3.9481572999999996,-0.045181114,0.04396,0.036633335,9.960080428974175,0.0729096429558629,rest
09/07/2020, 21:37:40,9.025727,-1.4668003,3.9481572999999996,-0.05006556,0.042738892,0.036633335,9.960080428974175,0.07533375257236376,rest
09/07/2020, 21:37:40,9.032906,-1.4668003,3.9361932,-0.05006556,0.042738892,0.036633335,9.961852414718262,0.07533375257236376,rest
09/07/2020, 21:37:40,9.032906,-1.4668003,3.9361932,-0.059834447,0.048844445,0.03174889,9.961852414718262,0.08351007691670764,rest
09/07/2020, 21:37:40,9.02812,-1.4380864,3.9146578,-0.059834447,0.048844445,0.03174889,9.944827292347748,0.08351007691670764,rest
09/07/2020, 21:37:40,9.02812,-1.4380864,3.9146578,-0.070824444,0.05617111,0.026864445,9.944827292347748,0.09430267282843703,rest
09/07/2020, 21:37:40,9.0233345,-1.4452649,3.940979,-0.070824444,0.05617111,0.026864445,9.951917996002788,0.09430267282843703,rest
09/07/2020, 21:37:40,9.0233345,-1.4452649,3.940979,-0.08303556,0.054950003,0.023201112000000003,9.951917996002788,0.10223843864743554,rest
09/07/2020, 21:37:40,8.987442,-1.4668003,3.8931224,-0.08303556,0.054950003,0.023201112000000003,9.903636680878655,0.10223843864743554,rest
09/07/2020, 21:37:40,8.987442,-1.4668003,3.8931224,-0.08792,0.05006556,0.024422223,9.903636680878655,0.10408137185079352,rest
09/07/2020, 21:37:41,9.126225,-1.0671989,3.6466617999999995,0.07448778,-0.0036633335999999997,-0.023201112000000003,9.885597947041104,0.07810340207581755,rest
09/07/2020, 21:37:41,9.126225,-1.0671989,3.6466617999999995,0.064718895,-0.01099,-0.019537778999999998,9.885597947041104,0.06849116895501173,rest
09/07/2020, 21:37:41,9.15494,-1.0767702,3.6442690000000004,0.064718895,-0.01099,-0.019537778999999998,9.91226767823957,0.06849116895501173,rest
09/07/2020, 21:37:41,9.15494,-1.0767702,3.6442690000000004,0.058613338,-0.014653333999999999,-0.017095556,9.91226767823957,0.06278934306202971,rest
09/07/2020, 21:37:41,9.164511,-1.0863415,3.615555,0.058613338,-0.014653333999999999,-0.017095556,9.911641288114946,0.06278934306202971,rest
09/07/2020, 21:37:41,9.164511,-1.0863415,3.615555,0.058613338,-0.018316668,-0.014653333999999999,9.911641288114946,0.0631327479205698,rest
09/07/2020, 21:37:41,9.178867,-1.0815558,3.6203406000000005,0.058613338,-0.018316668,-0.014653333999999999,9.926138959623364,0.0631327479205698,rest
09/07/2020, 21:37:41,9.178867,-1.0815558,3.6203406000000005,0.06105556,-0.018316668,-0.01099,9.926138959623364,0.06468432408664966,rest
09/07/2020, 21:37:41,9.190832,-1.105484,3.6203406000000005,0.06105556,-0.018316668,-0.01099,9.939836831670926,0.06468432408664966,rest
09/07/2020, 21:37:41,9.190832,-1.105484,3.6203406000000005,0.06227667,-0.012211111,-0.013432221999999999,9.939836831670926,0.06486847711117308,rest
09/07/2020, 21:37:41,9.200403,-1.1150553,3.6394832000000004,0.06227667,-0.012211111,-0.013432221999999999,9.956736700564237,0.06486847711117308,rest
09/07/2020, 21:37:41,9.200403,-1.1150553,3.6394832000000004,0.05617111,-0.0048844446,-0.012211111,9.956736700564237,0.057690231730334725,rest
09/07/2020, 21:37:41,9.2075815,-1.0863415,3.6490544999999996,0.05617111,-0.0048844446,-0.012211111,9.96369882359193,0.057690231730334725,rest
09/07/2020, 21:37:41,9.2075815,-1.0863415,3.6490544999999996,0.039075557000000004,-0.008547778,-0.019537778999999998,9.96369882359193,0.04451615965420491,rest
09/07/2020, 21:37:41,9.176475,-1.0983056,3.682554,0.039075557000000004,-0.008547778,-0.019537778999999998,9.948626273078956,0.04451615965420491,rest
09/07/2020, 21:37:41,9.176475,-1.0983056,3.682554,0.037854444,-0.0036633335999999997,-0.018316668,9.948626273078956,0.04221231183826173,rest
09/07/2020, 21:37:41,9.174082,-1.1102697,3.6897326,0.037854444,-0.0036633335999999997,-0.018316668,9.950407124801801,0.04221231183826173,rest
09/07/2020, 21:37:41,9.174082,-1.1102697,3.6897326,0.029306669,0.0012211112,-0.018316668,9.950407124801801,0.03458138599334823,rest
09/07/2020, 21:37:41,9.174082,-1.119841,3.7160535000000006,0.029306669,0.0012211112,-0.018316668,9.96126870664224,0.03458138599334823,rest
09/07/2020, 21:37:41,9.174082,-1.119841,3.7160535000000006,0.018316668,-0.007326666999999999,-0.019537778999999998,9.96126870664224,0.02776517878582152,rest
09/07/2020, 21:37:42,9.183653,-1.3184453,3.8021949999999998,0.11234222,-0.06594,0.0012211112,10.02668766949852,0.13027029559506412,rest
09/07/2020, 21:37:42,9.171689,-1.3663018,3.7591242999999994,0.11234222,-0.06594,0.0012211112,10.005882050714996,0.13027029559506412,rest
09/07/2020, 21:37:42,9.171689,-1.3663018,3.7591242999999994,0.11966889,-0.06960334,0.0,10.005882050714996,0.13843868264579826,rest
09/07/2020, 21:37:42,9.176475,-1.3926228,3.7184464999999998,0.11966889,-0.06960334,0.0,9.998696326082658,0.13843868264579826,rest
09/07/2020, 21:37:42,9.176475,-1.3926228,3.7184464999999998,0.13920668,-0.07326667,0.006105555699999999,9.998696326082658,0.15742865643941611,rest
09/07/2020, 21:37:42,9.188439,-1.4117653000000001,3.6993039,0.13920668,-0.07326667,0.006105555699999999,10.005266038293438,0.15742865643941611,rest
09/07/2020, 21:37:42,9.188439,-1.4117653000000001,3.6993039,0.16973445,-0.091583334,0.01099,10.005266038293438,0.19317885510874436,rest
09/07/2020, 21:37:42,9.12144,-1.4380864,3.546163,0.16973445,-0.091583334,0.01099,9.891614202800149,0.19317885510874436,rest
09/07/2020, 21:37:42,9.12144,-1.4380864,3.546163,0.20026223,-0.081814446,0.008547778,9.891614202800149,0.21649856864840225,rest
09/07/2020, 21:37:42,9.083155,-1.5290136,3.5605202000000005,0.20026223,-0.081814446,0.008547778,9.875165087173439,0.21649856864840225,rest
09/07/2020, 21:37:42,9.083155,-1.5290136,3.5605202000000005,0.23323223,-0.08059334,0.017095556,9.875165087173439,0.2473556500391281,rest
09/07/2020, 21:37:42,9.12144,-1.4069797,3.6586258000000003,0.23323223,-0.08059334,0.017095556,9.928031090355603,0.2473556500391281,rest
09/07/2020, 21:37:42,9.12144,-1.4069797,3.6586258000000003,0.24910668,-0.10013112,0.013432221999999999,9.928031090355603,0.268813691753766,rest
09/07/2020, 21:37:42,9.169296000000001,-1.2586247,3.7591242999999994,0.24910668,-0.10013112,0.013432221999999999,9.989551811830037,0.268813691753766,rest
09/07/2020, 21:37:42,9.169296000000001,-1.2586247,3.7591242999999994,0.21980001,-0.09646778,0.007326666999999999,9.989551811830037,0.24014944680222625,rest
09/07/2020, 21:37:42,9.21476,-1.2011969,3.737589,0.21980001,-0.09646778,0.007326666999999999,10.016199046109707,0.24014944680222625,rest
09/07/2020, 21:37:42,9.21476,-1.2011969,3.737589,0.16118668,-0.06960334,0.013432221999999999,10.016199046109707,0.17608576106433318,rest
09/07/2020, 21:37:42,9.241081,-1.1437693000000002,3.6729827000000004,0.16118668,-0.06960334,0.013432221999999999,10.009824795383585,0.17608576106433318,rest
09/07/2020, 21:37:42,9.241081,-1.1437693000000002,3.6729827000000004,0.10501556,-0.039075557000000004,0.01099,10.009824795383585,0.11258750961878763,rest
09/07/2020, 21:37:42,9.236296000000001,-1.1509477,3.6418760000000003,0.10501556,-0.039075557000000004,0.01099,9.99485365148845,0.11258750961878763,rest
09/07/2020, 21:37:43,9.114262,-1.1653046999999999,3.6658044000000003,-0.025643334,0.026864445,0.028085556,9.89271559072186,0.04656261819916748,rest
09/07/2020, 21:37:43,9.08794,-1.18684,3.6394832000000004,-0.025643334,0.026864445,0.028085556,9.861292245610963,0.04656261819916748,rest
09/07/2020, 21:37:43,9.08794,-1.18684,3.6394832000000004,-0.01099,0.018316668,0.025643334,9.861292245610963,0.033374555945327566,rest
09/07/2020, 21:37:43,9.042477,-1.2083754999999998,3.6681972000000003,-0.01099,0.018316668,0.025643334,9.832712018804184,0.033374555945327566,rest
09/07/2020, 21:37:43,9.042477,-1.2083754999999998,3.6681972000000003,0.0,0.008547778,0.019537778999999998,9.832712018804184,0.021325789653895186,rest
09/07/2020, 21:37:43,9.056833000000001,-1.2394822,3.6753755,0.0,0.008547778,0.019537778999999998,9.85245805113994,0.021325789653895186,rest
09/07/2020, 21:37:43,9.056833000000001,-1.2394822,3.6753755,0.014653333999999999,-0.0024422223,0.02198,9.85245805113994,0.026529325052444267,rest
09/07/2020, 21:37:43,9.075975999999999,-1.2490535,3.7184464999999998,0.014653333999999999,-0.0024422223,0.02198,9.887382161864464,0.026529325052444267,rest
09/07/2020, 21:37:43,9.075975999999999,-1.2490535,3.7184464999999998,0.013432221999999999,-0.0012211112,0.018316668,9.887382161864464,0.02274678045042209,rest
09/07/2020, 21:37:43,9.085547,-1.2681959999999999,3.723232,0.013432221999999999,-0.0012211112,0.018316668,9.900401518721065,0.02274678045042209,rest
09/07/2020, 21:37:43,9.085547,-1.2681959999999999,3.723232,-0.0048844446,0.0012211112,0.012211111,9.900401518721065,0.013208336493616073,rest
09/07/2020, 21:37:43,9.066405,-1.2610176000000002,3.7471601999999997,-0.0048844446,0.0012211112,0.012211111,9.890959499616633,0.013208336493616073,rest
09/07/2020, 21:37:43,9.066405,-1.2610176000000002,3.7471601999999997,-0.035412222,0.0048844446,0.014653333999999999,9.890959499616633,0.03863422686843302,rest
09/07/2020, 21:37:43,9.073584,-1.2634103,3.751946,-0.035412222,0.0048844446,0.014653333999999999,9.899657753707073,0.03863422686843302,rest
09/07/2020, 21:37:43,9.073584,-1.2634103,3.751946,-0.054950003,0.006105555699999999,0.015874445,9.899657753707073,0.0575219837267751,rest
09/07/2020, 21:37:43,9.068798,-1.3519448,3.7830527000000003,-0.054950003,0.006105555699999999,0.015874445,9.918787259645883,0.0575219837267751,rest
09/07/2020, 21:37:43,9.068798,-1.3519448,3.7830527000000003,-0.05372889,0.006105555699999999,0.019537778999999998,9.918787259645883,0.057496053667557924,rest
09/07/2020, 21:37:43,9.090333,-1.4380864,3.8021949999999998,-0.05372889,0.006105555699999999,0.019537778999999998,9.957857882606863,0.057496053667557924,rest
09/07/2020, 21:37:43,9.090333,-1.4380864,3.8021949999999998,-0.034191112999999995,-0.006105555699999999,0.017095556,9.957857882606863,0.03871134287918125,rest
09/07/2020, 21:37:43,9.071191,-1.4835501,3.8021949999999998,-0.034191112999999995,-0.006105555699999999,0.017095556,9.947065463232043,0.03871134287918125,rest
09/07/2020, 21:37:44,9.315259,-0.7704889,3.5772698,0.07815111400000001,0.091583334,-0.070824444,10.008224727789123,0.1396825172436318,rest
09/07/2020, 21:37:44,9.315259,-0.7704889,3.5772698,0.06838222599999999,0.085477784,-0.06838222599999999,10.008224727789123,0.12906862225656526,rest
09/07/2020, 21:37:44,9.293723,-0.7704889,3.4576287000000003,0.06838222599999999,0.085477784,-0.06838222599999999,9.945960927136698,0.12906862225656526,rest
09/07/2020, 21:37:44,9.293723,-0.7704889,3.4576287000000003,0.070824444,0.085477784,-0.064718895,9.945960927136698,0.12849548178967124,rest
09/07/2020, 21:37:44,9.284152,-0.7513463,3.4791641,0.070824444,0.085477784,-0.064718895,9.943067091187476,0.12849548178967124,rest
09/07/2020, 21:37:44,9.284152,-0.7513463,3.4791641,0.070824444,0.08792,-0.06716111,9.943067091187476,0.13136454573527012,rest
09/07/2020, 21:37:44,9.257831,-0.72741807,3.493521,0.070824444,0.08792,-0.06716111,9.921756579864,0.13136454573527012,rest
09/07/2020, 21:37:44,9.257831,-0.72741807,3.493521,0.06594,0.08425667,-0.06838222599999999,9.921756579864,0.1269779473327529,rest
09/07/2020, 21:37:44,9.217153,-0.6939185999999999,3.5006995,0.06594,0.08425667,-0.06838222599999999,9.883942639599573,0.1269779473327529,rest
09/07/2020, 21:37:44,9.217153,-0.6939185999999999,3.5006995,0.064718895,0.07693,-0.05617111,9.883942639599573,0.11516055850307225,rest
09/07/2020, 21:37:44,9.212367,-0.70588267,3.4911282,0.064718895,0.07693,-0.05617111,9.876940482853056,0.11516055850307225,rest
09/07/2020, 21:37:44,9.212367,-0.70588267,3.4911282,0.059834447,0.081814446,-0.05006556,9.876940482853056,0.11305009800359984,rest
09/07/2020, 21:37:44,9.209974,-0.715454,3.5389847999999997,0.059834447,0.081814446,-0.05006556,9.892416997141572,0.11305009800359984,rest
09/07/2020, 21:37:44,9.209974,-0.715454,3.5389847999999997,0.05617111,0.07937223,-0.05250778,9.892416997141572,0.11050887411548746,rest
09/07/2020, 21:37:44,9.188439,-0.73459655,3.5389847999999997,0.05617111,0.07937223,-0.05250778,9.873776550792314,0.11050887411548746,rest
09/07/2020, 21:37:44,9.188439,-0.73459655,3.5389847999999997,0.058613338,0.07937223,-0.058613338,9.873776550792314,0.1147649647457538,rest
09/07/2020, 21:37:44,9.174082,-0.6891329,3.5341989999999996,0.058613338,0.07937223,-0.058613338,9.855416971268154,0.1147649647457538,rest
09/07/2020, 21:37:44,9.174082,-0.6891329,3.5341989999999996,0.05372889,0.07204556,-0.06349778,9.855416971268154,0.11004237450003028,rest
09/07/2020, 21:37:44,9.195618,-0.66999036,3.5916269999999995,0.05372889,0.07204556,-0.06349778,9.894849932469867,0.11004237450003028,rest
09/07/2020, 21:37:44,9.195618,-0.66999036,3.5916269999999995,0.05372889,0.06594,-0.064718895,9.894849932469867,0.10688036548906253,rest
09/07/2020, 21:37:45,9.454042,-0.18903299,3.4504502,-0.013432221999999999,-0.02198,-0.03052778,10.065796455583774,0.03994358984375415,rest
09/07/2020, 21:37:45,9.454042,-0.18903299,3.4504502,-0.037854444,-0.018316668,-0.04151778,10.065796455583774,0.059094714230263974,rest
09/07/2020, 21:37:45,9.442079,-0.19860429,3.4097722000000004,-0.037854444,-0.018316668,-0.04151778,10.040858426284053,0.059094714230263974,rest
09/07/2020, 21:37:45,9.442079,-0.19860429,3.4097722000000004,-0.05372889,-0.015874445,-0.042738892,10.040858426284053,0.07046562640575571,rest
09/07/2020, 21:37:45,9.41815,-0.27038896,3.4313076000000002,-0.05372889,-0.015874445,-0.042738892,10.027389000494443,0.07046562640575571,rest
09/07/2020, 21:37:45,9.41815,-0.27038896,3.4313076000000002,-0.054950003,-0.008547778,-0.051286668,10.027389000494443,0.07564978234280946,rest
09/07/2020, 21:37:45,9.363114999999999,-0.29671,3.4432718999999996,-0.054950003,-0.008547778,-0.051286668,9.980585471869263,0.07564978234280946,rest
09/07/2020, 21:37:45,9.363114999999999,-0.29671,3.4432718999999996,-0.034191112999999995,-0.026864445,-0.05250778,9.980585471869263,0.06817475789789063,rest
09/07/2020, 21:37:45,9.348758,-0.35653058,3.455236,-0.034191112999999995,-0.026864445,-0.05250778,9.973216177911835,0.06817475789789063,rest
09/07/2020, 21:37:45,9.348758,-0.35653058,3.455236,-0.02198,-0.03052778,-0.058613338,9.973216177911835,0.06964617083767151,rest
09/07/2020, 21:37:45,9.293723,-0.37567315,3.5270207,-0.02198,-0.03052778,-0.058613338,9.947577315993836,0.06964617083767151,rest
09/07/2020, 21:37:45,9.293723,-0.37567315,3.5270207,-0.025643334,-0.028085556,-0.06349778,9.947577315993836,0.07401585846818788,rest
09/07/2020, 21:37:45,9.257831,-0.35892340000000006,3.546163,-0.025643334,-0.028085556,-0.06349778,9.920258383786676,0.07401585846818788,rest
09/07/2020, 21:37:45,9.257831,-0.35892340000000006,3.546163,-0.036633335,-0.02075889,-0.06349778,9.920258383786676,0.07618990105560591,rest
09/07/2020, 21:37:45,9.23151,-0.2943172,3.5437703000000003,-0.036633335,-0.02075889,-0.06349778,9.89270996828996,0.07618990105560591,rest
09/07/2020, 21:37:45,9.23151,-0.2943172,3.5437703000000003,-0.046402223,-0.008547778,-0.06349778,9.89270996828996,0.07910878040843397,rest
09/07/2020, 21:37:45,9.212367,-0.33260235,3.5892339,-0.046402223,-0.008547778,-0.06349778,9.892468394872695,0.07910878040843397,rest
09/07/2020, 21:37:45,9.212367,-0.33260235,3.5892339,-0.05250778,0.0,-0.058613338,9.892468394872695,0.07869301337521607,rest
09/07/2020, 21:37:45,9.193225,-0.3924229,3.603591,-0.05250778,0.0,-0.058613338,9.882066979030807,0.07869301337521607,rest
09/07/2020, 21:37:45,9.193225,-0.3924229,3.603591,-0.045181114,-0.0048844446,-0.05617111,9.882066979030807,0.07225222957709926,rest
09/07/2020, 21:37:46,9.322436999999999,-0.53359944,3.7351959999999997,0.12943779,-0.05250778,0.0048844446,10.05705003088799,0.1397679008785293,rest
09/07/2020, 21:37:46,9.339186999999999,-0.47138608,3.7184464999999998,0.12943779,-0.05250778,0.0048844446,10.063272667541051,0.1397679008785293,rest
09/07/2020, 21:37:46,9.339186999999999,-0.47138608,3.7184464999999998,0.13310112,-0.051286668,0.0036633335999999997,10.063272667541051,0.1426872474599258,rest
09/07/2020, 21:37:46,9.341579,-0.4354937,3.6634114,0.13310112,-0.051286668,0.0036633335999999997,10.04367184264473,0.1426872474599258,rest
09/07/2020, 21:37:46,9.341579,-0.4354937,3.6634114,0.13188,-0.054950003,0.0012211112,10.04367184264473,0.14287521953695545,rest
09/07/2020, 21:37:46,9.391829,-0.4354937,3.6418760000000003,0.13188,-0.054950003,0.0012211112,10.082626577827766,0.14287521953695545,rest
09/07/2020, 21:37:46,9.391829,-0.4354937,3.6418760000000003,0.13310112,-0.05617111,0.0012211112,10.082626577827766,0.14447350349364482,rest
09/07/2020, 21:37:46,9.41815,-0.45463630000000005,3.65384,0.13310112,-0.05617111,0.0012211112,10.112308828167526,0.14447350349364482,rest
09/07/2020, 21:37:46,9.41815,-0.45463630000000005,3.65384,0.1306589,-0.057392225,0.0012211112,10.112308828167526,0.14271336780204294,rest
09/07/2020, 21:37:46,9.394221,-0.49292147,3.6059837,0.1306589,-0.057392225,0.0012211112,10.074595982529988,0.14271336780204294,rest
09/07/2020, 21:37:46,9.394221,-0.49292147,3.6059837,0.1306589,-0.057392225,0.0024422223,10.074595982529988,0.14272903939563794,rest
09/07/2020, 21:37:46,9.396614,-0.50009996,3.5988052,0.1306589,-0.057392225,0.0024422223,10.074614376009203,0.14272903939563794,rest
09/07/2020, 21:37:46,9.396614,-0.50009996,3.5988052,0.1306589,-0.05372889,-0.0024422223,10.074614376009203,0.1412958060944751,rest
09/07/2020, 21:37:46,9.379864999999999,-0.5168497000000001,3.5724843,0.1306589,-0.05372889,-0.0024422223,10.050454666984283,0.1412958060944751,rest
09/07/2020, 21:37:46,9.379864999999999,-0.5168497000000001,3.5724843,0.13676445,-0.051286668,0.0012211112,10.050454666984283,0.14606960216767714,rest
09/07/2020, 21:37:46,9.387042999999998,-0.5455635999999999,3.5533415999999995,0.13676445,-0.051286668,0.0012211112,10.05188801208162,0.14606960216767714,rest
09/07/2020, 21:37:46,9.387042999999998,-0.5455635999999999,3.5533415999999995,0.13920668,-0.051286668,0.0012211112,10.05188801208162,0.14835872907874176,rest
09/07/2020, 21:37:46,9.382257000000001,-0.53359944,3.5270207,0.13920668,-0.051286668,0.0012211112,10.037497616477424,0.14835872907874176,rest
09/07/2020, 21:37:46,9.382257000000001,-0.53359944,3.5270207,0.13554333,-0.05250778,0.0024422223,10.037497616477424,0.14537890554431487,rest
09/07/2020, 21:37:46,9.391829,-0.5455635999999999,3.495914,0.13554333,-0.05250778,0.0024422223,10.036209317204852,0.14537890554431487,rest
09/07/2020, 21:37:47,9.123833,-0.5288138000000001,3.790231,-0.2845189,0.081814446,0.06960334,9.893928347849096,0.3041204224192818,rest
09/07/2020, 21:37:47,9.099903999999999,-0.5455635999999999,3.7686956,-0.2845189,0.081814446,0.06960334,9.864530399259817,0.3041204224192818,rest
09/07/2020, 21:37:47,9.099903999999999,-0.5455635999999999,3.7686956,-0.26376,0.070824444,0.06960334,9.864530399259817,0.2818333985414181,rest
09/07/2020, 21:37:47,9.066405,-0.5766701999999999,3.7591242999999994,-0.26376,0.070824444,0.06960334,9.831748008156703,0.2818333985414181,rest
09/07/2020, 21:37:47,9.066405,-0.5766701999999999,3.7591242999999994,-0.25277,0.058613338,0.06594,9.831748008156703,0.26772426715270303,rest
09/07/2020, 21:37:47,9.083155,-0.5838486999999999,3.790231,-0.25277,0.058613338,0.06594,9.859534937611233,0.26772426715270303,rest
09/07/2020, 21:37:47,9.083155,-0.5838486999999999,3.790231,-0.24544334,0.05006556,0.064718895,9.859534937611233,0.25872288386476266,rest
09/07/2020, 21:37:47,9.162118,-0.5694918000000001,3.8141594,-0.24544334,0.05006556,0.064718895,9.940650797084002,0.25872288386476266,rest
09/07/2020, 21:37:47,9.162118,-0.5694918000000001,3.8141594,-0.24544334,0.054950003,0.059834447,9.940650797084002,0.25853838974788124,rest
09/07/2020, 21:37:47,9.18126,-0.5814559,3.8715870000000003,-0.24544334,0.054950003,0.059834447,9.981122899206444,0.25853838974788124,rest
09/07/2020, 21:37:47,9.18126,-0.5814559,3.8715870000000003,-0.2515489,0.058613338,0.05372889,9.981122899206444,0.26381652549787965,rest
09/07/2020, 21:37:47,9.159725,-0.61734825,3.897908,-0.2515489,0.058613338,0.05372889,9.97373405345302,0.26381652549787965,rest
09/07/2020, 21:37:47,9.159725,-0.61734825,3.897908,-0.2613178,0.06349778,0.051286668,9.97373405345302,0.273768657258885,rest
09/07/2020, 21:37:47,9.150153999999999,-0.6580262,3.9050865,-0.2613178,0.06349778,0.051286668,9.970357040633887,0.273768657258885,rest
09/07/2020, 21:37:47,9.150153999999999,-0.6580262,3.9050865,-0.26498112,0.059834447,0.05250778,9.970357040633887,0.2766807229003179,rest
09/07/2020, 21:37:47,9.119047,-0.6963114,3.8763726000000003,-0.26498112,0.059834447,0.05250778,9.933183534380477,0.2766807229003179,rest
09/07/2020, 21:37:47,9.119047,-0.6963114,3.8763726000000003,-0.26620224,0.05372889,0.054950003,9.933183534380477,0.2770738702579658,rest
09/07/2020, 21:37:47,9.128618,-0.7106683000000001,3.8356947999999997,-0.26620224,0.05372889,0.054950003,9.927198747284748,0.2770738702579658,rest
09/07/2020, 21:37:47,9.128618,-0.7106683000000001,3.8356947999999997,-0.26009667,0.051286668,0.057392225,9.927198747284748,0.2712461373954263,rest
09/07/2020, 21:37:47,9.099903999999999,-0.74177504,3.8356947999999997,-0.26009667,0.051286668,0.057392225,9.903082279412283,0.2712461373954263,rest
09/07/2020, 21:37:48,9.085547,-1.0648061000000002,3.7543387000000004,-0.008547778,0.026864445,-0.01099,9.888176972442439,0.030257941379303207,rest
09/07/2020, 21:37:48,9.085547,-1.0648061000000002,3.7543387000000004,0.0036633335999999997,0.023201112000000003,-0.008547778,9.888176972442439,0.024995521803390732,rest
09/07/2020, 21:37:48,9.104691,-1.0648061000000002,3.7663028,0.0036633335999999997,0.023201112000000003,-0.008547778,9.910309735017481,0.024995521803390732,rest
09/07/2020, 21:37:48,9.104691,-1.0648061000000002,3.7663028,0.013432221999999999,0.02198,-0.009768889000000001,9.910309735017481,0.02754952315341092,rest
09/07/2020, 21:37:48,9.152547,-1.0671989,3.7591242999999994,0.013432221999999999,0.02198,-0.009768889000000001,9.951836173162716,0.02754952315341092,rest
09/07/2020, 21:37:48,9.152547,-1.0671989,3.7591242999999994,0.012211111,0.025643334,-0.006105555699999999,9.951836173162716,0.029051155213597142,rest
09/07/2020, 21:37:48,9.164511,-1.0504491000000002,3.7543387000000004,0.012211111,0.025643334,-0.006105555699999999,9.959254973605562,0.029051155213597142,rest
09/07/2020, 21:37:48,9.164511,-1.0504491000000002,3.7543387000000004,0.014653333999999999,0.036633335,-0.0048844446,9.959254973605562,0.03975649941213071,rest
09/07/2020, 21:37:48,9.174082,-1.026521,3.792624,0.014653333999999999,0.036633335,-0.0048844446,9.980056061657834,0.03975649941213071,rest
09/07/2020, 21:37:48,9.174082,-1.026521,3.792624,0.013432221999999999,0.03052778,-0.007326666999999999,9.980056061657834,0.03414747417916193,rest
09/07/2020, 21:37:48,9.174082,-1.0336994000000002,3.7878382000000004,0.013432221999999999,0.03052778,-0.007326666999999999,9.978979393585533,0.03414747417916193,rest
09/07/2020, 21:37:48,9.174082,-1.0336994000000002,3.7878382000000004,0.015874445,0.04029667,-0.006105555699999999,9.978979393585533,0.043738969412836885,rest
09/07/2020, 21:37:48,9.162118,-1.0025927,3.7686956,0.015874445,0.04029667,-0.006105555699999999,9.957543072316778,0.043738969412836885,rest
09/07/2020, 21:37:48,9.162118,-1.0025927,3.7686956,0.019537778999999998,0.03297,-0.007326666999999999,9.957543072316778,0.03901827453344333,rest
09/07/2020, 21:37:48,9.159725,-0.95712906,3.739982,0.019537778999999998,0.03297,-0.007326666999999999,9.940026464609357,0.03901827453344333,rest
09/07/2020, 21:37:48,9.159725,-0.95712906,3.739982,0.019537778999999998,0.029306669,-0.0048844446,9.940026464609357,0.03555929451534096,rest
09/07/2020, 21:37:48,9.188439,-0.9020940999999999,3.723232,0.019537778999999998,0.029306669,-0.0048844446,9.95508154707378,0.03555929451534096,rest
09/07/2020, 21:37:48,9.188439,-0.9020940999999999,3.723232,0.01099,0.03174889,-0.013432221999999999,9.95508154707378,0.0361828243543289,rest
09/07/2020, 21:37:48,9.186047,-0.8422735999999998,3.7351959999999997,0.01099,0.03174889,-0.013432221999999999,9.952113692878578,0.0361828243543289,rest
09/07/2020, 21:37:48,9.186047,-0.8422735999999998,3.7351959999999997,0.009768889000000001,0.04151778,-0.014653333999999999,9.952113692878578,0.0450985298986564,rest
09/07/2020, 21:37:49,9.006584,-1.1150553,3.9553358999999997,-0.2820767,0.14775445,0.028085556,9.899827698912283,0.3196676896402409,rest
09/07/2020, 21:37:49,8.953942,-1.1102697,3.9673,-0.2820767,0.14775445,0.028085556,9.85622900617204,0.3196676896402409,rest
09/07/2020, 21:37:49,8.953942,-1.1102697,3.9673,-0.28574002,0.14897557,0.034191112999999995,9.85622900617204,0.324052633539588,rest
09/07/2020, 21:37:49,8.946764,-1.1030912,3.9290147000000006,-0.28574002,0.14897557,0.034191112999999995,9.833542220131873,0.324052633539588,rest
09/07/2020, 21:37:49,8.946764,-1.1030912,3.9290147000000006,-0.27841336,0.15141778,0.04396,9.833542220131873,0.3199590932098632,rest
09/07/2020, 21:37:49,8.992227999999999,-1.1006985,3.9553358999999997,-0.27841336,0.15141778,0.04396,9.885159343307867,0.3199590932098632,rest
09/07/2020, 21:37:49,8.992227999999999,-1.1006985,3.9553358999999997,-0.26620224,0.1526389,0.045181114,9.885159343307867,0.3101670505745861,rest
09/07/2020, 21:37:49,9.083155,-1.1700903,4.007978,-0.26620224,0.1526389,0.045181114,9.996834379452773,0.3101670505745861,rest
09/07/2020, 21:37:49,9.083155,-1.1700903,4.007978,-0.23933779,0.15508112,0.04151778,9.996834379452773,0.28819517178450704,rest
09/07/2020, 21:37:49,9.145369,-1.2179468,4.058227,-0.23933779,0.15508112,0.04151778,10.0792047111659,0.28819517178450704,rest
09/07/2020, 21:37:49,9.145369,-1.2179468,4.058227,-0.20148334,0.15874445,0.035412222,10.0792047111659,0.2589389178905399,rest
09/07/2020, 21:37:49,9.164511,-1.2442678,4.106084,-0.20148334,0.15874445,0.035412222,10.119109843364516,0.2589389178905399,rest
09/07/2020, 21:37:49,9.164511,-1.2442678,4.106084,-0.17950334,0.1526389,0.034191112999999995,10.119109843364516,0.2380947563615195,rest
09/07/2020, 21:37:49,9.157332,-1.2131611,4.137190299999999,-0.17950334,0.1526389,0.034191112999999995,10.121503883477184,0.2380947563615195,rest
09/07/2020, 21:37:49,9.157332,-1.2131611,4.137190299999999,-0.18683001,0.15752333,0.035412222,10.121503883477184,0.24692727748836166,rest
09/07/2020, 21:37:49,9.104691,-1.1581261,4.106084,-0.18683001,0.15752333,0.035412222,10.054679054564417,0.24692727748836166,rest
09/07/2020, 21:37:49,9.104691,-1.1581261,4.106084,-0.22224224,0.16607112,0.037854444,10.054679054564417,0.2800074755220129,rest
09/07/2020, 21:37:49,9.126225,-1.0719845,4.043870399999999,-0.22224224,0.16607112,0.037854444,10.039423808013122,0.2800074755220129,rest
09/07/2020, 21:37:49,9.126225,-1.0719845,4.043870399999999,-0.2735289,0.18683001,0.04396,10.039423808013122,0.33414966259964085,rest
09/07/2020, 21:37:49,9.109475999999999,-1.0552348,4.0295134,-0.2735289,0.18683001,0.04396,10.01663880737403,0.33414966259964085,rest
09/07/2020, 21:37:50,8.4012,-1.2370893,5.3407803,0.13310112,0.0036633335999999997,0.0036633335999999997,10.031674338411245,0.1332019081272173,rest
09/07/2020, 21:37:50,8.4012,-1.2370893,5.3407803,0.15874445,0.0024422223,0.0048844446,10.031674338411245,0.15883835823554124,rest
09/07/2020, 21:37:50,8.441877999999999,-1.160519,5.3718867,0.15874445,0.0024422223,0.0048844446,10.073196163560699,0.15883835823554124,rest
09/07/2020, 21:37:50,8.441877999999999,-1.160519,5.3718867,0.17584,0.0,0.0036633335999999997,10.073196163560699,0.1758781608654915,rest
09/07/2020, 21:37:50,8.477771,-1.1150553,5.4676,0.17584,0.0,0.0036633335999999997,10.149413506492929,0.1758781608654915,rest
09/07/2020, 21:37:50,8.477771,-1.1150553,5.4676,0.20636779,0.012211111,0.008547778,10.149413506492929,0.2069053909202091,rest
09/07/2020, 21:37:50,8.482556,-1.1653046999999999,5.489135299999999,0.20636779,0.012211111,0.008547778,10.170658927881297,0.2069053909202091,rest
09/07/2020, 21:37:50,8.482556,-1.1653046999999999,5.489135299999999,0.26376,0.026864445,0.014653333999999999,10.170658927881297,0.2655292007515828,rest
09/07/2020, 21:37:50,8.425129,-1.2610176000000002,5.4963136,0.26376,0.026864445,0.014653333999999999,10.138166785528151,0.2655292007515828,rest
09/07/2020, 21:37:50,8.425129,-1.2610176000000002,5.4963136,0.3394689,0.015874445,0.013432221999999999,10.138166785528151,0.3401052105343973,rest
09/07/2020, 21:37:50,8.3581295,-1.2753743999999998,5.4556355000000005,0.3394689,0.015874445,0.013432221999999999,10.062249643197104,0.3401052105343973,rest
09/07/2020, 21:37:50,8.3581295,-1.2753743999999998,5.4556355000000005,0.3931978,0.0,0.015874445,10.062249643197104,0.3935181210955165,rest
09/07/2020, 21:37:50,8.331808,-1.2131611,5.4628143,0.3931978,0.0,0.015874445,10.036589378300347,0.3935181210955165,rest
09/07/2020, 21:37:50,8.331808,-1.2131611,5.4628143,0.41151446,0.0,0.02075889,10.036589378300347,0.41203772053480797,rest
09/07/2020, 21:37:50,8.341380000000001,-1.0959128,5.393422,0.41151446,0.0,0.02075889,9.993430313399829,0.41203772053480797,rest
09/07/2020, 21:37:50,8.341380000000001,-1.0959128,5.393422,0.3931978,0.006105555699999999,0.028085556,9.993430313399829,0.3942468641244685,rest
09/07/2020, 21:37:50,8.384451,-0.9619146999999999,5.3312087,0.3931978,0.006105555699999999,0.028085556,9.982288479832405,0.3942468641244685,rest
09/07/2020, 21:37:50,8.384451,-0.9619146999999999,5.3312087,0.35290113,0.015874445,0.03052778,9.982288479832405,0.35457460647985295,rest
09/07/2020, 21:37:50,8.415557000000002,-0.8327023000000001,5.312066000000001,0.35290113,0.015874445,0.03052778,9.986642937973585,0.35457460647985295,rest
09/07/2020, 21:37:50,8.415557000000002,-0.8327023000000001,5.312066000000001,0.30039334,0.024422223,0.03297,9.986642937973585,0.3031824968061293,rest
09/07/2020, 21:37:51,8.267202000000001,-0.91166544,5.2905307,-0.14287001,0.08792,-0.008547778,9.857356842195776,0.16797270859587204,rest
09/07/2020, 21:37:51,8.267202000000001,-0.91166544,5.2905307,-0.13554333,0.08303556,-0.008547778,9.857356842195776,0.15918531087116833,rest
09/07/2020, 21:37:51,8.29113,-0.91166544,5.3503513,-0.13554333,0.08303556,-0.008547778,9.90960297069918,0.15918531087116833,rest
09/07/2020, 21:37:51,8.29113,-0.91166544,5.3503513,-0.12821667,0.08303556,-0.013432221999999999,9.90960297069918,0.1533455012978798,rest
09/07/2020, 21:37:51,8.327022999999999,-0.94277215,5.4436717,-0.12821667,0.08303556,-0.013432221999999999,9.993081883498254,0.1533455012978798,rest
09/07/2020, 21:37:51,8.327022999999999,-0.94277215,5.4436717,-0.12211112,0.08059334,-0.018316668,9.993081883498254,0.14745138941899336,rest
09/07/2020, 21:37:51,8.341380000000001,-0.94755775,5.4676,-0.12211112,0.08059334,-0.018316668,10.018539629340236,0.14745138941899336,rest
09/07/2020, 21:37:51,8.341380000000001,-0.94755775,5.4676,-0.109900005,0.07448778,-0.025643334,10.018539629340236,0.1352184215298145,rest
09/07/2020, 21:37:51,8.305488,-0.9379865,5.4795637,-0.109900005,0.07448778,-0.025643334,9.994326488797528,0.1352184215298145,rest
09/07/2020, 21:37:51,8.305488,-0.9379865,5.4795637,-0.109900005,0.07326667,-0.028085556,9.994326488797528,0.1350363452275206,rest
09/07/2020, 21:37:51,8.283952000000001,-0.91405827,5.453243,-0.109900005,0.07326667,-0.028085556,9.959779920900267,0.1350363452275206,rest
09/07/2020, 21:37:51,8.283952000000001,-0.91405827,5.453243,-0.11112112,0.07693,-0.034191112999999995,9.959779920900267,0.13941004339241164,rest
09/07/2020, 21:37:51,8.276773,-0.92602235,5.4293146,-0.11112112,0.07693,-0.034191112999999995,9.941828471317733,0.13941004339241164,rest
09/07/2020, 21:37:51,8.276773,-0.92602235,5.4293146,-0.11600556,0.07693,-0.039075557000000004,9.941828471317733,0.1445766742942979,rest
09/07/2020, 21:37:51,8.269594999999999,-0.9236295,5.3862440000000005,-0.11600556,0.07693,-0.039075557000000004,9.912160100944591,0.1445766742942979,rest
09/07/2020, 21:37:51,8.269594999999999,-0.9236295,5.3862440000000005,-0.11234222,0.07570889,-0.037854444,9.912160100944591,0.14066118842263686,rest
09/07/2020, 21:37:51,8.221739,-0.9523434000000001,5.3503513,-0.11234222,0.07570889,-0.037854444,9.855465818518477,0.14066118842263686,rest
09/07/2020, 21:37:51,8.221739,-0.9523434000000001,5.3503513,-0.102573335,0.070824444,-0.037854444,9.855465818518477,0.13027029571619167,rest
09/07/2020, 21:37:51,8.195416999999999,-1.0025927,5.352744,-0.102573335,0.070824444,-0.037854444,9.839813409965952,0.13027029571619167,rest
09/07/2020, 21:37:51,8.195416999999999,-1.0025927,5.352744,-0.09768889,0.064718895,-0.035412222,9.839813409965952,0.12241601295181735,rest
09/07/2020, 21:37:52,8.365308,-1.0576276000000002,5.197211,-0.051286668,0.08669889,0.16118668,9.904945772526178,0.19007410561672333,rest
09/07/2020, 21:37:52,8.365308,-1.0576276000000002,5.197211,-0.081814446,0.09280445,0.15874445,9.904945772526178,0.20126120005614334,rest
09/07/2020, 21:37:52,8.382058,-1.0815558,5.17089,-0.081814446,0.09280445,0.15874445,9.907914192800886,0.20126120005614334,rest
09/07/2020, 21:37:52,8.382058,-1.0815558,5.17089,-0.09768889,0.09891000400000001,0.15508112,9.907914192800886,0.20827016839035425,rest
09/07/2020, 21:37:52,8.394022,-1.1222339,5.1924253,-0.09768889,0.09891000400000001,0.15508112,9.933795547251169,0.20827016839035425,rest
09/07/2020, 21:37:52,8.394022,-1.1222339,5.1924253,-0.10013112,0.10501556,0.14897557,9.933795547251169,0.2079620827839691,rest
09/07/2020, 21:37:52,8.394022,-1.1389836000000002,5.1756754,-0.10013112,0.10501556,0.14897557,9.926958474588156,0.2079620827839691,rest
09/07/2020, 21:37:52,8.394022,-1.1389836000000002,5.1756754,-0.081814446,0.10135223,0.14042778,9.926958474588156,0.19153548038115856,rest
09/07/2020, 21:37:52,8.4012,-1.1629118,5.206782,-0.081814446,0.10135223,0.14042778,9.9520403717216,0.19153548038115856,rest
09/07/2020, 21:37:52,8.4012,-1.1629118,5.206782,-0.042738892,0.09402556,0.13554333,9.9520403717216,0.17040954638061162,rest
09/07/2020, 21:37:52,8.348558,-1.18684,5.1254263,-0.042738892,0.09402556,0.13554333,9.867979113857661,0.17040954638061162,rest
09/07/2020, 21:37:52,8.348558,-1.18684,5.1254263,-0.007326666999999999,0.08792,0.12699556,9.867979113857661,0.15463337306930391,rest
09/07/2020, 21:37:52,8.327022999999999,-1.2059826,5.113462,-0.007326666999999999,0.08792,0.12699556,9.845871818718953,0.15463337306930391,rest
09/07/2020, 21:37:52,8.327022999999999,-1.2059826,5.113462,0.02198,0.07570889,0.117226675,9.845871818718953,0.14126942199186066,rest
09/07/2020, 21:37:52,8.298309,-1.2155539,5.0799623,0.02198,0.07570889,0.117226675,9.805382471126688,0.14126942199186066,rest
09/07/2020, 21:37:52,8.298309,-1.2155539,5.0799623,0.034191112999999995,0.06105556,0.10745778,9.805382471126688,0.12823411369129628,rest
09/07/2020, 21:37:52,8.293523,-1.1509477,5.0656056,0.034191112999999995,0.06105556,0.10745778,9.78609023565021,0.12823411369129628,rest
09/07/2020, 21:37:52,8.293523,-1.1509477,5.0656056,0.029306669,0.059834447,0.102573335,9.78609023565021,0.12231243167540598,rest
09/07/2020, 21:37:52,8.32463,-1.0719845,5.0560339999999995,0.029306669,0.059834447,0.102573335,9.798576047894088,0.12231243167540598,rest
09/07/2020, 21:37:52,8.32463,-1.0719845,5.0560339999999995,0.0048844446,0.05372889,0.08669889,9.798576047894088,0.10211439108121864,rest
09/07/2020, 21:37:53,8.657232,-0.8446664,4.7952166,-0.009768889000000001,-0.10013112,0.06960334,9.932534120396168,0.12233681591544375,rest
09/07/2020, 21:37:53,8.657232,-0.8446664,4.7952166,-0.08914111599999999,-0.10379445,0.06838222599999999,9.932534120396168,0.15295605498250692,rest
09/07/2020, 21:37:53,8.678768,-0.8446664,4.807181,-0.08914111599999999,-0.10379445,0.06838222599999999,9.957081205379797,0.15295605498250692,rest
09/07/2020, 21:37:53,8.678768,-0.8446664,4.807181,-0.1746189,-0.102573335,0.06838222599999999,9.957081205379797,0.2137502703774056,rest
09/07/2020, 21:37:53,8.700303,-0.82313097,4.867001,-0.1746189,-0.102573335,0.06838222599999999,10.003025418110273,0.2137502703774056,rest
09/07/2020, 21:37:53,8.700303,-0.82313097,4.867001,-0.25399113,-0.10501556,0.05617111,10.003025418110273,0.2805262099117903,rest
09/07/2020, 21:37:53,8.664411,-0.8566305000000001,4.914858000000001,-0.25399113,-0.10501556,0.05617111,9.998082543131588,0.2805262099117903,rest
09/07/2020, 21:37:53,8.664411,-0.8566305000000001,4.914858000000001,-0.3174889,-0.10501556,0.046402223,9.998082543131588,0.3376101917546985,rest
09/07/2020, 21:37:53,8.652447,-0.86859465,4.9340005,-0.3174889,-0.10501556,0.046402223,9.998182445950572,0.3376101917546985,rest
09/07/2020, 21:37:53,8.652447,-0.86859465,4.9340005,-0.37366003,-0.09646778,0.039075557000000004,9.998182445950572,0.387884967336438,rest
09/07/2020, 21:37:53,8.657232,-0.92602235,4.8885365,-0.37366003,-0.09646778,0.039075557000000004,9.985137799623418,0.387884967336438,rest
09/07/2020, 21:37:53,8.657232,-0.92602235,4.8885365,-0.39930335,-0.09646778,0.037854444,9.985137799623418,0.4125313975696941,rest
09/07/2020, 21:37:53,8.688339,-1.0049854999999999,4.905286299999999,-0.39930335,-0.09646778,0.037854444,10.027914448999027,0.4125313975696941,rest
09/07/2020, 21:37:53,8.688339,-1.0049854999999999,4.905286299999999,-0.40785113,-0.09646778,0.025643334,10.027914448999027,0.41988826708050986,rest
09/07/2020, 21:37:53,8.7266245,-1.0887343,4.9340005,-0.40785113,-0.09646778,0.025643334,10.083832512188255,0.41988826708050986,rest
09/07/2020, 21:37:53,8.7266245,-1.0887343,4.9340005,-0.40174556,-0.09036223,0.01099,10.083832512188255,0.4119291269603069,rest
09/07/2020, 21:37:53,8.745766999999999,-1.1126626,4.917250599999999,-0.40174556,-0.09036223,0.01099,10.094840556687963,0.4119291269603069,rest
09/07/2020, 21:37:53,8.745766999999999,-1.1126626,4.917250599999999,-0.39075556,-0.08425667,0.0012211112,10.094840556687963,0.3997381499927163,rest
09/07/2020, 21:37:53,8.748159,-1.1413764,4.914858000000001,-0.39075556,-0.08425667,0.0012211112,10.098953455523743,0.3997381499927163,rest
09/07/2020, 21:37:53,8.748159,-1.1413764,4.914858000000001,-0.37976557,-0.08303556,-0.009768889000000001,10.098953455523743,0.3888601592459367,rest
09/07/2020, 21:37:54,8.685946000000001,-1.6031911,4.4410787,-0.16485001,0.025643334,-0.028085556,9.886307070762651,0.16918009722819194,rest
09/07/2020, 21:37:54,8.685946000000001,-1.6031911,4.4410787,-0.14897557,0.019537778999999998,-0.025643334,9.886307070762651,0.15242383223540426,rest
09/07/2020, 21:37:54,8.712267,-1.5960127,4.4721855999999995,-0.14897557,0.019537778999999998,-0.025643334,9.922262627102366,0.15242383223540426,rest
09/07/2020, 21:37:54,8.712267,-1.5960127,4.4721855999999995,-0.13188,0.014653333999999999,-0.025643334,9.922262627102366,0.1351467174536472,rest
09/07/2020, 21:37:54,8.702696000000001,-1.6055840000000001,4.457828500000001,-0.13188,0.014653333999999999,-0.025643334,9.908937894113198,0.1351467174536472,rest
09/07/2020, 21:37:54,8.702696000000001,-1.6055840000000001,4.457828500000001,-0.12211112,0.008547778,-0.029306669,9.908937894113198,0.12586926079203076,rest
09/07/2020, 21:37:54,8.702696000000001,-1.591227,4.476971,-0.12211112,0.008547778,-0.029306669,9.91525033521234,0.12586926079203076,rest
09/07/2020, 21:37:54,8.702696000000001,-1.591227,4.476971,-0.109900005,0.0024422223,-0.03174889,9.91525033521234,0.1144201365858632,rest
09/07/2020, 21:37:54,8.659625,-1.5672989,4.4841495,-0.109900005,0.0024422223,-0.03174889,9.876898714550904,0.1144201365858632,rest
09/07/2020, 21:37:54,8.659625,-1.5672989,4.4841495,-0.09768889,-0.0048844446,-0.03297,9.876898714550904,0.10321820637309548,rest
09/07/2020, 21:37:54,8.693125,-1.5720843999999998,4.479364,-0.09768889,-0.0048844446,-0.03297,9.904876013563936,0.10321820637309548,rest
09/07/2020, 21:37:54,8.693125,-1.5720843999999998,4.479364,-0.085477784,-0.008547778,-0.035412222,9.904876013563936,0.09291685312679583,rest
09/07/2020, 21:37:54,8.652447,-1.5625132,4.486542,-0.085477784,-0.008547778,-0.035412222,9.87093427408103,0.09291685312679583,rest
09/07/2020, 21:37:54,8.652447,-1.5625132,4.486542,-0.07326667,-0.012211111,-0.039075557000000004,9.87093427408103,0.08392863251406432,rest
09/07/2020, 21:37:54,8.666803,-1.550549,4.4817567,-0.07326667,-0.012211111,-0.039075557000000004,9.87946485286384,0.08392863251406432,rest
09/07/2020, 21:37:54,8.666803,-1.550549,4.4817567,-0.06349778,-0.012211111,-0.036633335,9.87946485286384,0.07431743244882806,rest
09/07/2020, 21:37:54,8.652447,-1.5696917,4.4889355,-0.06349778,-0.012211111,-0.036633335,9.873161006838751,0.07431743244882806,rest
09/07/2020, 21:37:54,8.652447,-1.5696917,4.4889355,-0.05372889,-0.018316668,-0.042738892,9.873161006838751,0.07105565984545129,rest
09/07/2020, 21:37:54,8.688339,-1.591227,4.517649,-0.05372889,-0.018316668,-0.042738892,9.921108619043103,0.07105565984545129,rest
09/07/2020, 21:37:54,8.688339,-1.591227,4.517649,-0.03052778,-0.029306669,-0.048844445,9.921108619043103,0.06462666657697183,rest
09/07/2020, 21:37:55,8.932407000000001,-1.2370893,4.2424745999999995,0.054950003,-0.019537778999999998,0.0012211112,9.965785559739748,0.05833282684393715,rest
09/07/2020, 21:37:55,8.95155,-1.2107682,4.213761,0.054950003,-0.019537778999999998,0.0012211112,9.967546297993145,0.05833282684393715,rest
09/07/2020, 21:37:55,8.95155,-1.2107682,4.213761,0.05250778,-0.017095556,0.0024422223,9.967546297993145,0.05527467334636715,rest
09/07/2020, 21:37:55,8.980264,-1.2562319,4.2329035,0.05250778,-0.017095556,0.0024422223,10.007033864923274,0.05527467334636715,rest
09/07/2020, 21:37:55,8.980264,-1.2562319,4.2329035,0.045181114,-0.0036633335999999997,0.0024422223,10.007033864923274,0.04539512689349475,rest
09/07/2020, 21:37:55,8.977871,-1.2634103,4.237689,0.045181114,-0.0036633335999999997,0.0024422223,10.007815971182133,0.04539512689349475,rest
09/07/2020, 21:37:55,8.977871,-1.2634103,4.237689,0.035412222,-0.0012211112,0.0,10.007815971182133,0.03543326953379288,rest
09/07/2020, 21:37:55,8.922835000000001,-1.2610176000000002,4.2041892999999995,0.035412222,-0.0012211112,0.0,9.943961164830668,0.03543326953379288,rest
09/07/2020, 21:37:55,8.922835000000001,-1.2610176000000002,4.2041892999999995,0.026864445,0.0012211112,0.0036633335999999997,9.943961164830668,0.02714055124568581,rest
09/07/2020, 21:37:55,8.865408,-1.2514462,4.2017964999999995,0.026864445,0.0012211112,0.0036633335999999997,9.890231029236396,0.02714055124568581,rest
09/07/2020, 21:37:55,8.865408,-1.2514462,4.2017964999999995,0.015874445,0.0048844446,0.01099,9.890231029236396,0.019915720541733285,rest
09/07/2020, 21:37:55,8.846264999999999,-1.294517,4.182654,0.015874445,0.0048844446,0.01099,9.870499969738287,0.019915720541733285,rest
09/07/2020, 21:37:55,8.846264999999999,-1.294517,4.182654,0.014653333999999999,0.006105555699999999,0.014653333999999999,9.870499969738287,0.021603662374207456,rest
09/07/2020, 21:37:55,8.848659,-1.294517,4.173083,0.014653333999999999,0.006105555699999999,0.014653333999999999,9.868594276940863,0.021603662374207456,rest
09/07/2020, 21:37:55,8.848659,-1.294517,4.173083,0.025643334,0.0012211112,0.02198,9.868594276940863,0.03379633278146856,rest
09/07/2020, 21:37:55,8.889337,-1.3088739999999999,4.15394,0.025643334,0.0012211112,0.02198,9.898922936755127,0.03379633278146856,rest
09/07/2020, 21:37:55,8.889337,-1.3088739999999999,4.15394,0.046402223,-0.0048844446,0.024422223,9.898922936755127,0.052663736106239804,rest
09/07/2020, 21:37:55,8.937192999999999,-1.3256238,4.1778684,0.046402223,-0.0048844446,0.024422223,9.954158912101963,0.052663736106239804,rest
09/07/2020, 21:37:55,8.937192999999999,-1.3256238,4.1778684,0.06716111,-0.01099,0.029306669,9.954158912101963,0.07409639697922152,rest
09/07/2020, 21:37:55,8.9348,-1.3136596999999999,4.1611185,0.06716111,-0.01099,0.029306669,9.943402970846345,0.07409639697922152,rest
09/07/2020, 21:37:56,9.042477,-1.1509477,4.0271206,0.18927222,-0.05006556,-0.008547778,9.965378310547036,0.19596836420941166,rest
09/07/2020, 21:37:56,9.042477,-1.1509477,4.0271206,0.19049335,-0.048844445,-0.0036633335999999997,9.965378310547036,0.19668989414183316,rest
09/07/2020, 21:37:56,9.006584,-1.160519,4.046263,0.19049335,-0.048844445,-0.0036633335999999997,9.941710554677698,0.19668989414183316,rest
09/07/2020, 21:37:56,9.006584,-1.160519,4.046263,0.19049335,-0.046402223,0.0,9.941710554677698,0.19606346147563647,rest
09/07/2020, 21:37:56,9.042477,-1.1294123,4.022335,0.19049335,-0.046402223,0.0,9.96098064661008,0.19606346147563647,rest
09/07/2020, 21:37:56,9.042477,-1.1294123,4.022335,0.18927222,-0.046402223,-0.0012211112,9.96098064661008,0.19488107288668527,rest
09/07/2020, 21:37:56,9.068798,-1.105484,4.034299,0.18927222,-0.046402223,-0.0012211112,9.987029629946976,0.19488107288668527,rest
09/07/2020, 21:37:56,9.068798,-1.105484,4.034299,0.1856089,-0.042738892,-0.0036633335999999997,9.987029629946976,0.19050116616405025,rest
09/07/2020, 21:37:56,9.102298,-1.0719845,4.022335,0.1856089,-0.042738892,-0.0036633335999999997,10.009003698396642,0.19050116616405025,rest
09/07/2020, 21:37:56,9.102298,-1.0719845,4.022335,0.18438779,-0.045181114,-0.0048844446,10.009003698396642,0.18990536409185302,rest
09/07/2020, 21:37:56,9.109475999999999,-1.0504491000000002,4.0031924,0.18438779,-0.045181114,-0.0048844446,10.005575825277782,0.18990536409185302,rest
09/07/2020, 21:37:56,9.109475999999999,-1.0504491000000002,4.0031924,0.17828223,-0.04029667,-0.0048844446,10.005575825277782,0.18284483405293148,rest
09/07/2020, 21:37:56,9.099903999999999,-1.0049854999999999,4.0127635,0.17828223,-0.04029667,-0.0048844446,9.996025238793514,0.18284483405293148,rest
09/07/2020, 21:37:56,9.099903999999999,-1.0049854999999999,4.0127635,0.16362889,-0.034191112999999995,-0.009768889000000001,9.996025238793514,0.1674481334912681,rest
09/07/2020, 21:37:56,9.08794,-1.0169496999999998,3.9720855000000004,0.16362889,-0.034191112999999995,-0.009768889000000001,9.97007056127479,0.1674481334912681,rest
09/07/2020, 21:37:56,9.08794,-1.0169496999999998,3.9720855000000004,0.15630223,-0.037854444,-0.009768889000000001,9.97007056127479,0.16111727654786687,rest
09/07/2020, 21:37:56,9.092725999999999,-1.0313065000000001,3.9673,0.15630223,-0.037854444,-0.009768889000000001,9.974002383239212,0.16111727654786687,rest
09/07/2020, 21:37:56,9.092725999999999,-1.0313065000000001,3.9673,0.14531223,-0.03297,-0.01099,9.974002383239212,0.14941032956878866,rest
09/07/2020, 21:37:56,9.099903999999999,-1.0193424,3.9553358999999997,0.14531223,-0.03297,-0.01099,9.97456738970572,0.14941032956878866,rest
09/07/2020, 21:37:56,9.099903999999999,-1.0193424,3.9553358999999997,0.14164889,-0.03297,-0.012211111,9.97456738970572,0.1459470444477954,rest
09/07/2020, 21:37:57,8.982656500000001,-0.97866446,4.1204405,0.009768889000000001,-0.006105555699999999,0.0024422223,9.930958227344867,0.011775969513811976,rest
09/07/2020, 21:37:57,8.982656500000001,-0.97866446,4.1204405,0.0036633335999999997,-0.006105555699999999,0.0012211112,9.930958227344867,0.007224191011396784,rest
09/07/2020, 21:37:57,8.95155,-0.97866446,4.1276193,0.0036633335999999997,-0.006105555699999999,0.0012211112,9.905819699489257,0.007224191011396784,rest
09/07/2020, 21:37:57,8.95155,-0.97866446,4.1276193,-0.0012211112,-0.009768889000000001,0.0012211112,9.905819699489257,0.009920353965880794,rest
09/07/2020, 21:37:57,8.975478,-1.0145568,4.1611185,-0.0012211112,-0.009768889000000001,0.0012211112,9.945020919259765,0.009920353965880794,rest
09/07/2020, 21:37:57,8.975478,-1.0145568,4.1611185,0.006105555699999999,-0.015874445,0.0048844446,9.945020919259765,0.01769558215186019,rest
09/07/2020, 21:37:57,8.982656500000001,-1.0456635,4.1491546999999995,0.006105555699999999,-0.015874445,0.0048844446,9.949724314815246,0.01769558215186019,rest
09/07/2020, 21:37:57,8.982656500000001,-1.0456635,4.1491546999999995,0.012211111,-0.024422223,0.0048844446,9.949724314815246,0.027738312934174704,rest
09/07/2020, 21:37:57,8.968299,-1.0624132,4.101298,0.012211111,-0.024422223,0.0048844446,9.918656729372664,0.027738312934174704,rest
09/07/2020, 21:37:57,8.968299,-1.0624132,4.101298,0.026864445,-0.03174889,0.008547778,9.918656729372664,0.04245886222176638,rest
09/07/2020, 21:37:57,9.008977,-1.0456635,4.1276193,0.026864445,-0.03174889,0.008547778,9.964553093530927,0.04245886222176638,rest
09/07/2020, 21:37:57,9.008977,-1.0456635,4.1276193,0.039075557000000004,-0.03174889,0.0012211112,9.964553093530927,0.050362509373226456,rest
09/07/2020, 21:37:57,9.044869,-1.0193424,4.1898327,0.039075557000000004,-0.03174889,0.0012211112,10.020150687491588,0.050362509373226456,rest
09/07/2020, 21:37:57,9.044869,-1.0193424,4.1898327,0.03297,-0.034191112999999995,0.0036633335999999997,10.020150687491588,0.047638987423273486,rest
09/07/2020, 21:37:57,9.0233345,-1.026521,4.211368,0.03297,-0.034191112999999995,0.0036633335999999997,10.010491096414588,0.047638987423273486,rest
09/07/2020, 21:37:57,9.0233345,-1.026521,4.211368,0.018316668,-0.028085556,0.007326666999999999,10.010491096414588,0.034321695917728115,rest
09/07/2020, 21:37:57,9.020942,-1.026521,4.23051,0.018316668,-0.028085556,0.007326666999999999,10.016404141087532,0.034321695917728115,rest
09/07/2020, 21:37:57,9.020942,-1.026521,4.23051,0.017095556,-0.02198,0.007326666999999999,10.016404141087532,0.028793376541739583,rest
09/07/2020, 21:37:57,9.044869,-1.0313065000000001,4.2041892999999995,0.017095556,-0.02198,0.007326666999999999,10.027385684213234,0.028793376541739583,rest
09/07/2020, 21:37:57,9.044869,-1.0313065000000001,4.2041892999999995,0.025643334,-0.028085556,0.0048844446,10.027385684213234,0.03834366722982181,rest
09/07/2020, 21:37:58,9.004191,-0.8805586999999999,4.1252260000000005,-0.08914111599999999,0.054950003,0.0024422223,9.943255811921286,0.10474543290440744,rest
09/07/2020, 21:37:58,9.004191,-0.8805586999999999,4.1252260000000005,-0.08303556,0.05006556,-0.0024422223,9.943255811921286,0.09699189944147124,rest
09/07/2020, 21:37:58,8.980264,-0.83988076,4.1204405,-0.08303556,0.05006556,-0.0024422223,9.916076127924914,0.09699189944147124,rest
09/07/2020, 21:37:58,8.980264,-0.83988076,4.1204405,-0.08059334,0.045181114,0.0,9.916076127924914,0.09239382853332474,rest
09/07/2020, 21:37:58,8.980264,-0.86859465,4.1252260000000005,-0.08059334,0.045181114,0.0,9.92053842713078,0.09239382853332474,rest
09/07/2020, 21:37:58,8.980264,-0.86859465,4.1252260000000005,-0.07693,0.036633335,0.0024422223,9.92053842713078,0.08524195445359176,rest
09/07/2020, 21:37:58,8.980264,-0.8781658999999999,4.115655,-0.07693,0.036633335,0.0024422223,9.917405269528931,0.08524195445359176,rest
09/07/2020, 21:37:58,8.980264,-0.8781658999999999,4.115655,-0.07448778,0.04029667,-0.0048844446,9.917405269528931,0.08482988409161797,rest
09/07/2020, 21:37:58,8.963513,-0.8709874,4.115655,-0.07448778,0.04029667,-0.0048844446,9.901606269630216,0.08482988409161797,rest
09/07/2020, 21:37:58,8.963513,-0.8709874,4.115655,-0.07815111400000001,0.035412222,-0.007326666999999999,9.901606269630216,0.08611214893143618,rest
09/07/2020, 21:37:58,8.956335000000001,-0.8757731,4.101298,-0.07815111400000001,0.035412222,-0.007326666999999999,9.889568262486383,0.08611214893143618,rest
09/07/2020, 21:37:58,8.956335000000001,-0.8757731,4.101298,-0.08669889,0.039075557000000004,-0.007326666999999999,9.889568262486383,0.09537964509808604,rest
09/07/2020, 21:37:58,8.956335000000001,-0.89730847,4.113262000000001,-0.08669889,0.039075557000000004,-0.007326666999999999,9.896465331962851,0.09537964509808604,rest
09/07/2020, 21:37:58,8.956335000000001,-0.89730847,4.113262000000001,-0.08669889,0.039075557000000004,-0.006105555699999999,9.896465331962851,0.09529362233155383,rest
09/07/2020, 21:37:58,8.992227999999999,-0.92602235,4.1084766,-0.08669889,0.039075557000000004,-0.006105555699999999,9.929615001316504,0.09529362233155383,rest
09/07/2020, 21:37:58,8.992227999999999,-0.92602235,4.1084766,-0.07815111400000001,0.036633335,-0.013432221999999999,9.929615001316504,0.08735000000147934,rest
09/07/2020, 21:37:58,8.961121,-0.9523434000000001,4.139583,-0.07815111400000001,0.036633335,-0.013432221999999999,9.91689411039338,0.08735000000147934,rest
09/07/2020, 21:37:58,8.961121,-0.9523434000000001,4.139583,-0.06716111,0.034191112999999995,-0.015874445,9.91689411039338,0.07701717552841872,rest
09/07/2020, 21:37:58,8.922835000000001,-0.96909314,4.1778684,-0.06716111,0.034191112999999995,-0.015874445,9.900036176253886,0.07701717552841872,rest
09/07/2020, 21:37:58,8.922835000000001,-0.96909314,4.1778684,-0.06105556,0.034191112999999995,-0.014653333999999999,9.900036176253886,0.07149499129782662,rest
09/07/2020, 21:37:59,9.064013000000001,-0.72263247,3.9026937000000004,0.08792,-0.036633335,0.015874445,9.894924925226974,0.0965604790752536,rest
09/07/2020, 21:37:59,9.075975999999999,-0.75613195,3.8955152,0.08792,-0.036633335,0.015874445,9.90556012160275,0.0965604790752536,rest
09/07/2020, 21:37:59,9.075975999999999,-0.75613195,3.8955152,0.11356334,-0.04151778,0.013432221999999999,9.90556012160275,0.12165846445251065,rest
09/07/2020, 21:37:59,9.097511,-0.7178468000000001,3.897908,0.11356334,-0.04151778,0.013432221999999999,9.92339167339682,0.12165846445251065,rest
09/07/2020, 21:37:59,9.097511,-0.7178468000000001,3.897908,0.11600556,-0.05250778,0.01099,9.92339167339682,0.12780898869584414,rest
09/07/2020, 21:37:59,9.123833,-0.6364908,3.912265,0.11600556,-0.05250778,0.01099,9.947625931343245,0.12780898869584414,rest
09/07/2020, 21:37:59,9.123833,-0.6364908,3.912265,0.09768889,-0.047623335999999995,0.017095556,9.947625931343245,0.11001527001647148,rest
09/07/2020, 21:37:59,9.174082,-0.5910272,3.9170506,0.09768889,-0.047623335999999995,0.017095556,9.99281619321159,0.11001527001647148,rest
09/07/2020, 21:37:59,9.174082,-0.5910272,3.9170506,0.06594,-0.029306669,0.017095556,9.99281619321159,0.07415674279740238,rest
09/07/2020, 21:37:59,9.209974,-0.5814559,3.9242291,0.06594,-0.029306669,0.017095556,10.028025315763383,0.07415674279740238,rest
09/07/2020, 21:37:59,9.209974,-0.5814559,3.9242291,0.05006556,-0.018316668,0.015874445,10.028025315763383,0.05562426148315865,rest
09/07/2020, 21:37:59,9.219545,-0.5838486999999999,3.9553358999999997,0.05006556,-0.018316668,0.015874445,10.049158063108717,0.05562426148315865,rest
09/07/2020, 21:37:59,9.219545,-0.5838486999999999,3.9553358999999997,0.05617111,-0.023201112000000003,0.008547778,10.049158063108717,0.061372224123031636,rest
09/07/2020, 21:37:59,9.219545,-0.6053841,3.9601214,0.05617111,-0.023201112000000003,0.008547778,10.052316553765577,0.061372224123031636,rest
09/07/2020, 21:37:59,9.219545,-0.6053841,3.9601214,0.05617111,-0.029306669,0.006105555699999999,10.052316553765577,0.06365023521046204,rest
09/07/2020, 21:37:59,9.19801,-0.6340979999999999,3.993621,0.05617111,-0.029306669,0.006105555699999999,10.047610958953518,0.06365023521046204,rest
09/07/2020, 21:37:59,9.19801,-0.6340979999999999,3.993621,0.05372889,-0.019537778999999998,0.009768889000000001,10.047610958953518,0.05799956529982968,rest
09/07/2020, 21:37:59,9.2075815,-0.63888365,3.9840497999999998,0.05372889,-0.019537778999999998,0.009768889000000001,10.052879316543702,0.05799956529982968,rest
09/07/2020, 21:37:59,9.2075815,-0.63888365,3.9840497999999998,0.05006556,-0.009768889000000001,0.009768889000000001,10.052879316543702,0.05193671662732348,rest
09/07/2020, 21:37:59,9.183653,-0.57906306,3.9816568,0.05006556,-0.009768889000000001,0.009768889000000001,10.026384442892986,0.05193671662732348,rest
09/07/2020, 21:38:00,9.059227,-0.89491564,4.098905,0.035412222,-0.057392225,-0.008547778,9.983561016159127,0.06797762457426748,rest
09/07/2020, 21:38:00,9.059227,-0.89491564,4.098905,0.026864445,-0.047623335999999995,-0.014653333999999999,9.983561016159127,0.05660742678350982,rest
09/07/2020, 21:38:00,9.049655,-0.8877371999999999,4.065405999999999,0.026864445,-0.047623335999999995,-0.014653333999999999,9.960514894241273,0.05660742678350982,rest
09/07/2020, 21:38:00,9.049655,-0.8877371999999999,4.065405999999999,0.019537778999999998,-0.045181114,-0.012211111,9.960514894241273,0.05071655661859805,rest
09/07/2020, 21:38:00,9.059227,-0.8805586999999999,4.0797625,0.019537778999999998,-0.045181114,-0.012211111,9.974439284867538,0.05071655661859805,rest
09/07/2020, 21:38:00,9.059227,-0.8805586999999999,4.0797625,0.017095556,-0.046402223,-0.015874445,9.974439284867538,0.05193671540110213,rest
09/07/2020, 21:38:00,9.035298,-0.91405827,4.0845485,0.017095556,-0.046402223,-0.015874445,9.957693255794279,0.05193671540110213,rest
09/07/2020, 21:38:00,9.035298,-0.91405827,4.0845485,0.02198,-0.047623335999999995,-0.017095556,9.957693255794279,0.05516666241711976,rest
09/07/2020, 21:38:00,9.0233345,-0.9212367,4.113262000000001,0.02198,-0.047623335999999995,-0.017095556,9.959325696803859,0.05516666241711976,rest
09/07/2020, 21:38:00,9.0233345,-0.9212367,4.113262000000001,0.018316668,-0.046402223,-0.018316668,9.959325696803859,0.053142891865356486,rest
09/07/2020, 21:38:00,9.01137,-0.9379865,4.048655999999999,0.018316668,-0.046402223,-0.018316668,9.923518424651363,0.053142891865356486,rest
09/07/2020, 21:38:00,9.01137,-0.9379865,4.048655999999999,0.02198,-0.047623335999999995,-0.014653333999999999,9.923518424651363,0.05445936833693021,rest
09/07/2020, 21:38:00,9.052048,-0.9236295,4.034299,0.02198,-0.047623335999999995,-0.014653333999999999,9.953302325366682,0.05445936833693021,rest
09/07/2020, 21:38:00,9.052048,-0.9236295,4.034299,0.02198,-0.048844445,-0.013432221999999999,9.953302325366682,0.05522069253454879,rest
09/07/2020, 21:38:00,9.042477,-0.9379865,4.0199419999999995,0.02198,-0.048844445,-0.013432221999999999,9.94012750573908,0.05522069253454879,rest
09/07/2020, 21:38:00,9.042477,-0.9379865,4.0199419999999995,0.026864445,-0.046402223,-0.014653333999999999,9.94012750573908,0.05558403496050486,rest
09/07/2020, 21:38:00,9.042477,-0.8997013,3.9864426,0.026864445,-0.046402223,-0.014653333999999999,9.92308272639024,0.05558403496050486,rest
09/07/2020, 21:38:00,9.042477,-0.8997013,3.9864426,0.039075557000000004,-0.05372889,-0.013432221999999999,9.92308272639024,0.06777991849133114,rest
09/07/2020, 21:38:00,9.06162,-0.8709874,4.022335,0.039075557000000004,-0.05372889,-0.013432221999999999,9.952424378094232,0.06777991849133114,rest
09/07/2020, 21:38:00,9.06162,-0.8709874,4.022335,0.05372889,-0.06227667,-0.014653333999999999,9.952424378094232,0.08354577952889372,rest
09/07/2020, 21:38:01,9.080762,-0.74895346,3.940979,-0.06838222599999999,0.03052778,-0.0012211112,9.927360356796472,0.07489703116414792,rest
09/07/2020, 21:38:01,9.064013000000001,-0.7704889,3.9577286,-0.06838222599999999,0.03052778,-0.0012211112,9.920362500156097,0.07489703116414792,rest
09/07/2020, 21:38:01,9.064013000000001,-0.7704889,3.9577286,-0.070824444,0.03174889,-0.0024422223,9.920362500156097,0.07765345086551344,rest
09/07/2020, 21:38:01,9.073584,-0.7752745,3.9696927000000004,-0.070824444,0.03174889,-0.0024422223,9.934255390378029,0.07765345086551344,rest
09/07/2020, 21:38:01,9.073584,-0.7752745,3.9696927000000004,-0.07448778,0.029306669,0.0,9.934255390378029,0.08004567854617166,rest
09/07/2020, 21:38:01,9.078369,-0.78723866,3.9649072,-0.07448778,0.029306669,0.0,9.937656656313623,0.08004567854617166,rest
09/07/2020, 21:38:01,9.078369,-0.78723866,3.9649072,-0.07448778,0.034191112999999995,-0.0012211112,9.937656656313623,0.08196922066685705,rest
09/07/2020, 21:38:01,9.071191,-0.782453,3.991228,-0.07448778,0.034191112999999995,-0.0012211112,9.941259357898248,0.08196922066685705,rest
09/07/2020, 21:38:01,9.071191,-0.782453,3.991228,-0.07448778,0.035412222,-0.0012211112,9.941259357898248,0.08248603765674843,rest
09/07/2020, 21:38:01,9.056833000000001,-0.7704889,3.9673,-0.07448778,0.035412222,-0.0012211112,9.91762828514098,0.08248603765674843,rest
09/07/2020, 21:38:01,9.056833000000001,-0.7704889,3.9673,-0.07570889,0.03297,0.0024422223,9.91762828514098,0.08261247573612822,rest
09/07/2020, 21:38:01,9.059227,-0.78723866,3.9720855000000004,-0.07570889,0.03297,0.0024422223,9.923043957556263,0.08261247573612822,rest
09/07/2020, 21:38:01,9.059227,-0.78723866,3.9720855000000004,-0.07570889,0.029306669,0.0036633335999999997,9.923043957556263,0.08126583933024073,rest
09/07/2020, 21:38:01,9.056833000000001,-0.80877405,3.9816568,-0.07570889,0.029306669,0.0036633335999999997,9.926426098661096,0.08126583933024073,rest
09/07/2020, 21:38:01,9.056833000000001,-0.80877405,3.9816568,-0.070824444,0.025643334,0.0048844446,9.926426098661096,0.07548205268156342,rest
09/07/2020, 21:38:01,9.068798,-0.79441714,3.9984066,-0.070824444,0.025643334,0.0048844446,9.942909668293844,0.07548205268156342,rest
09/07/2020, 21:38:01,9.068798,-0.79441714,3.9984066,-0.06838222599999999,0.025643334,0.0024422223,9.942909668293844,0.0730730719287642,rest
09/07/2020, 21:38:01,9.040084,-0.83030945,3.9816568,-0.06838222599999999,0.025643334,0.0024422223,9.912926975758564,0.0730730719287642,rest
09/07/2020, 21:38:01,9.040084,-0.83030945,3.9816568,-0.06716111,0.024422223,-0.0012211112,9.912926975758564,0.07147412943876398,rest
09/07/2020, 21:38:01,9.037691,-0.8207382,3.9816568,-0.06716111,0.024422223,-0.0012211112,9.90994766347576,0.07147412943876398,rest
09/07/2020, 21:38:02,9.145369,-0.8542377,3.9338005,0.019537778999999998,0.023201112000000003,0.0048844446,9.992110610318187,0.030722535300239395,rest
09/07/2020, 21:38:02,9.145369,-0.8542377,3.9338005,0.019537778999999998,0.025643334,0.0024422223,9.992110610318187,0.032330632678149514,rest
09/07/2020, 21:38:02,9.138189,-0.8207382,3.926622,0.019537778999999998,0.025643334,0.0024422223,9.979903547284882,0.032330632678149514,rest
09/07/2020, 21:38:02,9.138189,-0.8207382,3.926622,0.015874445,0.025643334,0.0012211112,9.979903547284882,0.0301839311297616,rest
09/07/2020, 21:38:02,9.104691,-0.79441714,3.938586,0.015874445,0.025643334,0.0012211112,9.951831403966974,0.0301839311297616,rest
09/07/2020, 21:38:02,9.104691,-0.79441714,3.938586,0.01099,0.028085556,0.0,9.951831403966974,0.030159220089566976,rest
09/07/2020, 21:38:02,9.099903999999999,-0.7800602,3.926622,0.01099,0.028085556,0.0,9.941584754690247,0.030159220089566976,rest
09/07/2020, 21:38:02,9.099903999999999,-0.7800602,3.926622,-0.0024422223,0.03174889,0.0024422223,9.941584754690247,0.03193620158439945,rest
09/07/2020, 21:38:02,9.073584,-0.80877405,3.9146578,-0.0024422223,0.03174889,0.0024422223,9.91506837115759,0.03193620158439945,rest
09/07/2020, 21:38:02,9.073584,-0.80877405,3.9146578,-0.013432221999999999,0.03174889,0.0036633335999999997,9.91506837115759,0.034667516266078745,rest
09/07/2020, 21:38:02,9.06162,-0.80159557,3.897908,-0.013432221999999999,0.03174889,0.0036633335999999997,9.89692854708204,0.034667516266078745,rest
09/07/2020, 21:38:02,9.06162,-0.80159557,3.897908,-0.02198,0.026864445,0.0036633335999999997,9.89692854708204,0.034903278333972325,rest
09/07/2020, 21:38:02,9.066405,-0.7609176,3.8955152,-0.02198,0.026864445,0.0036633335999999997,9.89715814250664,0.034903278333972325,rest
09/07/2020, 21:38:02,9.066405,-0.7609176,3.8955152,-0.026864445,0.025643334,0.0,9.89715814250664,0.0371386451610982,rest
09/07/2020, 21:38:02,9.107083,-0.7848458,3.9194436,-0.026864445,0.025643334,0.0,9.9457019749754,0.0371386451610982,rest
09/07/2020, 21:38:02,9.107083,-0.7848458,3.9194436,-0.023201112000000003,0.024422223,0.0024422223,9.9457019749754,0.03377426532355991,rest
09/07/2020, 21:38:02,9.183653,-0.83030945,3.9242291,-0.023201112000000003,0.024422223,0.0024422223,10.021400518227171,0.03377426532355991,rest
09/07/2020, 21:38:02,9.183653,-0.83030945,3.9242291,-0.017095556,0.019537778999999998,-0.0036633335999999997,10.021400518227171,0.026218368675519254,rest
09/07/2020, 21:38:02,9.188439,-0.8255238000000001,3.9361932,-0.017095556,0.019537778999999998,-0.0036633335999999997,10.030080991785745,0.026218368675519254,rest
09/07/2020, 21:38:02,9.188439,-0.8255238000000001,3.9361932,-0.02198,0.023201112000000003,-0.006105555699999999,10.030080991785745,0.032537514096205235,rest
09/07/2020, 21:38:03,9.145369,-0.9068798,3.9290147000000006,0.109900005,-0.046402223,-0.009768889000000001,9.994866367763377,0.11969381216110007,rest
09/07/2020, 21:38:03,9.145369,-0.9068798,3.9290147000000006,0.10745778,-0.045181114,-0.007326666999999999,9.994866367763377,0.11679977515968418,rest
09/07/2020, 21:38:03,9.15494,-0.8542377,3.9553358999999997,0.10745778,-0.045181114,-0.007326666999999999,10.009361805760461,0.11679977515968418,rest
09/07/2020, 21:38:03,9.15494,-0.8542377,3.9553358999999997,0.09280445,-0.04151778,-0.007326666999999999,10.009361805760461,0.10193169964933654,rest
09/07/2020, 21:38:03,9.15494,-0.86859465,3.9960138999999995,0.09280445,-0.04151778,-0.007326666999999999,10.026739430623547,0.10193169964933654,rest
09/07/2020, 21:38:03,9.15494,-0.86859465,3.9960138999999995,0.07815111400000001,-0.03174889,-0.009768889000000001,10.026739430623547,0.08491772449710216,rest
09/07/2020, 21:38:03,9.147761000000001,-0.8662018,4.0271206,0.07815111400000001,-0.03174889,-0.009768889000000001,10.032424605298793,0.08491772449710216,rest
09/07/2020, 21:38:03,9.147761000000001,-0.8662018,4.0271206,0.07570889,-0.019537778999999998,-0.008547778,10.032424605298793,0.07865510217332161,rest
09/07/2020, 21:38:03,9.119047,-0.89491564,4.041477700000001,0.07570889,-0.019537778999999998,-0.008547778,10.014561250446114,0.07865510217332161,rest
09/07/2020, 21:38:03,9.119047,-0.89491564,4.041477700000001,0.09402556,-0.019537778999999998,-0.007326666999999999,10.014561250446114,0.09631308698723036,rest
09/07/2020, 21:38:03,9.078369,-0.9236295,4.022335,0.09402556,-0.019537778999999998,-0.007326666999999999,9.972414803970583,0.09631308698723036,rest
09/07/2020, 21:38:03,9.078369,-0.9236295,4.022335,0.11478445,-0.03297,0.0,9.972414803970583,0.11942567024676562,rest
09/07/2020, 21:38:03,9.035298,-0.9499506,4.0295134,0.11478445,-0.03297,0.0,9.938611584889014,0.11942567024676562,rest
09/07/2020, 21:38:03,9.035298,-0.9499506,4.0295134,0.13310112,-0.04029667,0.0012211112,9.938611584889014,0.13907271850425165,rest
09/07/2020, 21:38:03,9.01137,-0.91884387,4.0390844,0.13310112,-0.04029667,0.0012211112,9.917825421021902,0.13907271850425165,rest
09/07/2020, 21:38:03,9.01137,-0.91884387,4.0390844,0.13798556,-0.04151778,0.0012211112,9.917825421021902,0.14410146124530582,rest
09/07/2020, 21:38:03,9.068798,-0.9284152,4.007978,0.13798556,-0.04151778,0.0012211112,9.95836032889032,0.14410146124530582,rest
09/07/2020, 21:38:03,9.068798,-0.9284152,4.007978,0.14531223,-0.04029667,0.006105555699999999,9.95836032889032,0.15091966405366689,rest
09/07/2020, 21:38:03,9.0951185,-0.9020940999999999,3.9960138999999995,0.14531223,-0.04029667,0.006105555699999999,9.975123141095237,0.15091966405366689,rest
09/07/2020, 21:38:03,9.0951185,-0.9020940999999999,3.9960138999999995,0.14653334,-0.034191112999999995,0.0012211112,9.975123141095237,0.15047439354601466,rest
09/07/2020, 21:38:04,8.977871,-0.95473623,4.137190299999999,-0.064718895,0.0036633335999999997,0.008547778,9.931265369318405,0.06538363596489967,rest
09/07/2020, 21:38:04,9.016156,-0.96909314,4.139583,-0.064718895,0.0036633335999999997,0.008547778,9.968267774007376,0.06538363596489967,rest
09/07/2020, 21:38:04,9.016156,-0.96909314,4.139583,-0.05617111,0.0012211112,0.008547778,9.968267774007376,0.056830884402477674,rest
09/07/2020, 21:38:04,9.004191,-0.95712906,4.139583,-0.05617111,0.0012211112,0.008547778,9.956289826744047,0.056830884402477674,rest
09/07/2020, 21:38:04,9.004191,-0.95712906,4.139583,-0.046402223,0.0024422223,0.0036633335999999997,9.956289826744047,0.04661062969053105,rest
09/07/2020, 21:38:04,9.018549,-0.9595219000000001,4.139583,-0.046402223,0.0024422223,0.0036633335999999997,9.969506308257133,0.04661062969053105,rest
09/07/2020, 21:38:04,9.018549,-0.9595219000000001,4.139583,-0.034191112999999995,-0.0048844446,0.008547778,9.969506308257133,0.035580254610398265,rest
09/07/2020, 21:38:04,9.016156,-0.96909314,4.132405,-0.034191112999999995,-0.0048844446,0.008547778,9.965288934548619,0.035580254610398265,rest
09/07/2020, 21:38:04,9.016156,-0.96909314,4.132405,-0.024422223,-0.007326666999999999,0.006105555699999999,9.965288934548619,0.02621836811163104,rest
09/07/2020, 21:38:04,9.0233345,-0.997807,4.1276193,-0.024422223,-0.007326666999999999,0.006105555699999999,9.972633815917744,0.02621836811163104,rest
09/07/2020, 21:38:04,9.0233345,-0.997807,4.1276193,-0.014653333999999999,-0.007326666999999999,0.0012211112,9.972633815917744,0.01642837099496898,rest
09/07/2020, 21:38:04,9.006584,-1.0145568,4.1204405,-0.014653333999999999,-0.007326666999999999,0.0012211112,9.95619975548702,0.01642837099496898,rest
09/07/2020, 21:38:04,9.006584,-1.0145568,4.1204405,-0.008547778,-0.007326666999999999,0.006105555699999999,9.95619975548702,0.012807122054843056,rest
09/07/2020, 21:38:04,8.975478,-1.0193424,4.113262000000001,-0.008547778,-0.007326666999999999,0.006105555699999999,9.925582760145137,0.012807122054843056,rest
09/07/2020, 21:38:04,8.975478,-1.0193424,4.113262000000001,-0.009768889000000001,-0.019537778999999998,0.0048844446,9.925582760145137,0.022383337303507597,rest
09/07/2020, 21:38:04,8.961121,-0.99302137,4.139583,-0.009768889000000001,-0.019537778999999998,0.0048844446,9.920883139938004,0.022383337303507597,rest
09/07/2020, 21:38:04,8.961121,-0.99302137,4.139583,-0.0036633335999999997,-0.023201112000000003,0.006105555699999999,9.920883139938004,0.02426910397210811,rest
09/07/2020, 21:38:04,8.987442,-0.997807,4.165904,-0.0036633335999999997,-0.023201112000000003,0.006105555699999999,9.95612823218702,0.02426910397210811,rest
09/07/2020, 21:38:04,8.987442,-0.997807,4.165904,0.008547778,-0.025643334,0.006105555699999999,9.95612823218702,0.02771142167256083,rest
09/07/2020, 21:38:04,9.025727,-0.997807,4.1754756,0.008547778,-0.025643334,0.006105555699999999,9.994696999630161,0.02771142167256083,rest
09/07/2020, 21:38:05,9.042477,-0.6795616,3.9720855000000004,-0.036633335,0.029306669,-0.007326666999999999,9.899780353911114,0.047482229569072165,rest
09/07/2020, 21:38:05,9.042477,-0.6795616,3.9720855000000004,-0.036633335,0.03052778,-0.0048844446,9.899780353911114,0.047935418827230764,rest
09/07/2020, 21:38:05,9.040084,-0.6795616,3.952943,-0.036633335,0.03052778,-0.0048844446,9.889928194177225,0.047935418827230764,rest
09/07/2020, 21:38:05,9.040084,-0.6795616,3.952943,-0.04151778,0.03174889,-0.006105555699999999,9.889928194177225,0.05262124926712892,rest
09/07/2020, 21:38:05,9.0233345,-0.71306115,3.938586,-0.04151778,0.03174889,-0.006105555699999999,9.871245180735055,0.05262124926712892,rest
09/07/2020, 21:38:05,9.0233345,-0.71306115,3.938586,-0.035412222,0.03174889,-0.006105555699999999,9.871245180735055,0.047950968285749435,rest
09/07/2020, 21:38:05,9.044869,-0.72023964,3.9146578,-0.035412222,0.03174889,-0.006105555699999999,9.881950918257267,0.047950968285749435,rest
09/07/2020, 21:38:05,9.044869,-0.72023964,3.9146578,-0.03052778,0.024422223,-0.0012211112,9.881950918257267,0.03911369859703523,rest
09/07/2020, 21:38:05,9.042477,-0.7082755000000001,3.9074793,-0.03052778,0.024422223,-0.0012211112,9.876053492702244,0.03911369859703523,rest
09/07/2020, 21:38:05,9.042477,-0.7082755000000001,3.9074793,-0.03297,0.02198,-0.0024422223,9.876053492702244,0.0397001987743731,rest
09/07/2020, 21:38:05,9.068798,-0.6867401,3.9074793,-0.03297,0.02198,-0.0024422223,9.898641557538197,0.0397001987743731,rest
09/07/2020, 21:38:05,9.068798,-0.6867401,3.9074793,-0.03297,0.018316668,-0.0048844446,9.898641557538197,0.03803128991519514,rest
09/07/2020, 21:38:05,9.083155,-0.67477596,3.9338005,-0.03297,0.018316668,-0.0048844446,9.921381333000893,0.03803128991519514,rest
09/07/2020, 21:38:05,9.083155,-0.67477596,3.9338005,-0.045181114,0.02075889,-0.0012211112,9.921381333000893,0.04973686453016545,rest
09/07/2020, 21:38:05,9.068798,-0.66041905,3.912265,-0.045181114,0.02075889,-0.0012211112,9.898740807927956,0.04973686453016545,rest
09/07/2020, 21:38:05,9.068798,-0.66041905,3.912265,-0.05617111,0.02198,-0.0036633335999999997,9.898740807927956,0.0604295808251045,rest
09/07/2020, 21:38:05,9.097511,-0.6652047,3.9290147000000006,-0.05617111,0.02198,-0.0036633335999999997,9.931986980178216,0.0604295808251045,rest
09/07/2020, 21:38:05,9.097511,-0.6652047,3.9290147000000006,-0.06838222599999999,0.026864445,-0.0024422223,9.931986980178216,0.07351048679951751,rest
09/07/2020, 21:38:05,9.092725999999999,-0.6843473000000001,3.9673,-0.06838222599999999,0.026864445,-0.0024422223,9.944116935242176,0.07351048679951751,rest
09/07/2020, 21:38:05,9.092725999999999,-0.6843473000000001,3.9673,-0.07448778,0.03052778,-0.0024422223,9.944116935242176,0.08053781478177684,rest
09/07/2020, 21:38:06,9.322436999999999,-0.7465607,3.8141594,0.19904111,-0.07204556,-0.0024422223,10.10014859811603,0.21169291799445009,rest
09/07/2020, 21:38:06,9.322436999999999,-0.7465607,3.8141594,0.17706113,-0.057392225,-0.0048844446,10.10014859811603,0.18619443456639925,rest
09/07/2020, 21:38:06,9.317652,-0.72741807,3.7639099999999996,0.17706113,-0.057392225,-0.0048844446,10.075454831122283,0.18619443456639925,rest
09/07/2020, 21:38:06,9.317652,-0.72741807,3.7639099999999996,0.16118668,-0.04396,-0.007326666999999999,10.075454831122283,0.16723428966991294,rest
09/07/2020, 21:38:06,9.265009,-0.7752745,3.7280176,0.16118668,-0.04396,-0.007326666999999999,10.016963410717985,0.16723428966991294,rest
09/07/2020, 21:38:06,9.265009,-0.7752745,3.7280176,0.15874445,-0.046402223,-0.007326666999999999,10.016963410717985,0.16554953393793995,rest
09/07/2020, 21:38:06,9.233903,-0.7800602,3.7160535000000006,0.15874445,-0.046402223,-0.007326666999999999,9.984112916277908,0.16554953393793995,rest
09/07/2020, 21:38:06,9.233903,-0.7800602,3.7160535000000006,0.17339778,-0.051286668,-0.007326666999999999,9.984112916277908,0.18097179959188425,rest
09/07/2020, 21:38:06,9.23151,-0.77766734,3.6705900000000002,0.17339778,-0.051286668,-0.007326666999999999,9.964877157501556,0.18097179959188425,rest
