DATE,TIME,ax,ay,az,gx,gy,gz,ma,mg,label
28/07/2020, 17:56:53,0.2203418,4.7062135,8.617281,0.10384705,-0.05375612,0.00122173,9.82112656063426,0.11694196360003084,right
28/07/2020, 17:56:53,0.019160157,4.6750784,8.425679,0.10384705,-0.05375612,0.00122173,9.635807967158062,0.11694196360003084,right
28/07/2020, 17:56:53,0.019160157,4.6750784,8.425679,0.14416414,-0.00244346,0.0122173,9.635807967158062,0.1447015328810491,right
28/07/2020, 17:56:53,-0.047900394,4.648733,8.308323,0.14416414,-0.00244346,0.0122173,9.520569508399888,0.1447015328810491,right
28/07/2020, 17:56:53,-0.047900394,4.648733,8.308323,0.14049895,0.00488692,0.018325951,9.520569508399888,0.1417733321896226,right
28/07/2020, 17:56:53,-0.22513184,4.646338,8.128696,0.14049895,0.00488692,0.018325951,9.36562047414579,0.1417733321896226,right
28/07/2020, 17:56:53,-0.22513184,4.646338,8.128696,0.11850781,-0.01954768,0.04276055,9.36562047414579,0.12749383335894954,right
28/07/2020, 17:56:53,-0.25147706,4.766089,8.111932,0.11850781,-0.01954768,0.04276055,9.411816097521754,0.12749383335894954,right
28/07/2020, 17:56:53,-0.25147706,4.766089,8.111932,0.07696899,-0.03787363,0.06475169,9.411816097521754,0.10747752743978685,right
28/07/2020, 17:56:53,-0.13172609,4.960086,8.102351,0.07696899,-0.03787363,0.06475169,9.500941972897504,0.10747752743978685,right
28/07/2020, 17:56:53,-0.13172609,4.960086,8.102351,0.021991141,-0.01710422,0.07941245,9.500941972897504,0.08415760387633515,right
28/07/2020, 17:56:53,-0.021555176,5.120552,8.111932,0.021991141,-0.01710422,0.07941245,9.592911737157936,0.08415760387633515,right
28/07/2020, 17:56:53,-0.021555176,5.120552,8.111932,-0.0036651902,0.030543251,0.101403594,9.592911737157936,0.10596703580875634,right
28/07/2020, 17:56:54,-0.22273682,5.391189,8.155042,-0.0036651902,0.030543251,0.101403594,9.778508916334445,0.10596703580875634,right
28/07/2020, 17:56:54,-0.22273682,5.391189,8.155042,-0.05619958,0.02076941,0.074525535,9.778508916334445,0.09562330578086499,right
28/07/2020, 17:56:54,-0.6394702,5.4989653,8.200547,-0.05619958,0.02076941,0.074525535,9.89426681515237,0.09562330578086499,right
28/07/2020, 17:56:54,-0.6394702,5.4989653,8.200547,-0.101403594,-0.06475169,0.06841688,9.89426681515237,0.13840642971431324,right
28/07/2020, 17:56:54,-0.3424878,5.7935524,8.222102,-0.101403594,-0.06475169,0.06841688,10.064070315385239,0.13840642971431324,right
28/07/2020, 17:56:54,-0.3424878,5.7935524,8.222102,-0.09651667,-0.123394735,0.06841688,10.064070315385239,0.17094618245208532,right
28/07/2020, 17:56:54,-0.07903565,5.589976,8.169412,-0.09651667,-0.123394735,0.06841688,9.899159727733181,0.17094618245208532,right
28/07/2020, 17:56:54,-0.07903565,5.589976,8.169412,-0.07696899,-0.10751224,0.07086034,9.899159727733181,0.15001431875341048,right
28/07/2020, 17:56:54,0.081430666,5.350474,8.047266,-0.07696899,-0.10751224,0.07086034,9.663989439204252,0.15001431875341048,right
28/07/2020, 17:56:54,0.081430666,5.350474,8.047266,-0.018325951,-0.0244346,0.10506878,9.663989439204252,0.10941818308020754,right
28/07/2020, 17:56:54,0.20357667,5.2834134,7.8724294,-0.018325951,-0.0244346,0.10506878,9.483198032448655,0.10941818308020754,right
28/07/2020, 17:56:54,0.20357667,5.2834134,7.8724294,0.04520401,0.09896013,0.16126837,9.483198032448655,0.1945353354795115,right
28/07/2020, 17:56:54,0.26345217,5.4199295,7.776629,0.04520401,0.09896013,0.16126837,9.482668455336537,0.1945353354795115,right
28/07/2020, 17:56:54,0.26345217,5.4199295,7.776629,0.09407321,0.21502449,0.19303334,9.482668455336537,0.3038867693813561,right
28/07/2020, 17:56:54,0.05748047,5.5229154,7.678433,0.09407321,0.21502449,0.19303334,9.458553301155662,0.3038867693813561,right
28/07/2020, 17:56:54,0.05748047,5.5229154,7.678433,0.102625325,0.29077175,0.21502449,9.458553301155662,0.3759198041656151,right
28/07/2020, 17:56:54,-0.13172609,5.633086,7.6425076,0.102625325,0.29077175,0.21502449,9.495100507557671,0.3759198041656151,right
28/07/2020, 17:56:54,-0.13172609,5.633086,7.6425076,0.09651667,0.31887153,0.23090698,9.495100507557671,0.4053548461184659,right
28/07/2020, 17:56:54,-0.34488282,5.7696023,7.7598634,0.09651667,0.31887153,0.23090698,9.675884169737644,0.4053548461184659,right
28/07/2020, 17:56:54,-0.34488282,5.7696023,7.7598634,0.08674283,0.29810214,0.24434601,9.675884169737644,0.3950875557766751,right
28/07/2020, 17:56:54,-0.49576905,5.8198977,7.822134,0.08674283,0.29810214,0.24434601,9.762314081467963,0.3950875557766751,right
28/07/2020, 17:56:54,-0.49576905,5.8198977,7.822134,0.080634184,0.26145023,0.26267195,9.762314081467963,0.3792817514467424,right
28/07/2020, 17:56:54,-0.51013917,5.860613,7.9778104,0.080634184,0.26145023,0.26267195,9.912239084989219,0.3792817514467424,right
28/07/2020, 17:56:54,-0.51013917,5.860613,7.9778104,0.0855211,0.22479832,0.27000234,9.912239084989219,0.36159287244324806,right
28/07/2020, 17:56:54,-0.51013917,5.9396486,7.975415,0.0855211,0.22479832,0.27000234,9.957254435063842,0.36159287244324806,right
28/07/2020, 17:56:54,-0.51013917,5.9396486,7.975415,0.08918629,0.20036373,0.26755887,9.957254435063842,0.34595890921835526,right
28/07/2020, 17:56:54,-0.60833496,5.942044,8.080796,0.08918629,0.20036373,0.26755887,10.04874239003564,0.34595890921835526,right
28/07/2020, 17:56:54,-0.60833496,5.942044,8.080796,0.117286086,0.16615528,0.2797762,10.04874239003564,0.34588772273098517,right
28/07/2020, 17:56:54,-0.8310718,6.100115,8.085587,0.117286086,0.16615528,0.2797762,10.162617329996714,0.34588772273098517,right
28/07/2020, 17:56:54,-0.8310718,6.100115,8.085587,0.13683376,0.116064355,0.27488926,10.162617329996714,0.3282659243722441,right
28/07/2020, 17:56:55,-1.1855347,4.509822,7.101233,2.6939147,0.02321287,-1.8594731,8.495380877652062,3.2734317211346977,right
28/07/2020, 17:56:55,-1.456172,5.0271463,6.7395854,2.6939147,0.02321287,-1.8594731,8.533149977564893,3.2734317211346977,right
28/07/2020, 17:56:55,-1.456172,5.0271463,6.7395854,2.8808393,-0.00610865,-1.8753556,8.533149977564893,3.437474551910445,right
28/07/2020, 17:56:55,-1.8274,5.6714063,6.581514,2.8808393,-0.00610865,-1.8753556,8.87809465430206,3.437474551910445,right
28/07/2020, 17:56:55,-1.8274,5.6714063,6.581514,3.0323339,-0.06352996,-1.8594731,8.87809465430206,3.5576291098148634,right
28/07/2020, 17:56:55,-2.1531227,6.133645,6.2605815,3.0323339,-0.06352996,-1.8594731,9.025099419556112,3.5576291098148634,right
28/07/2020, 17:56:55,-2.1531227,6.133645,6.2605815,3.037221,-0.102625325,-1.8203777,9.025099419556112,3.5424593270983467,right
28/07/2020, 17:56:55,-2.3998096,6.353987,5.9372535,3.037221,-0.102625325,-1.8203777,9.021264794522173,3.5424593270983467,right
28/07/2020, 17:56:55,-2.3998096,6.353987,5.9372535,2.8527396,-0.117286086,-1.7996083,9.021264794522173,3.374976934337341,right
28/07/2020, 17:56:55,-2.4908204,6.478528,5.4678297,2.8527396,-0.117286086,-1.7996083,8.835874225059593,3.374976934337341,right
28/07/2020, 17:56:55,-2.4908204,6.478528,5.4678297,2.525316,-0.14416414,-1.819156,8.835874225059593,3.1156593101964187,right
28/07/2020, 17:56:55,-2.3016138,6.696475,5.0510964,2.525316,-0.14416414,-1.819156,8.697918094195622,3.1156593101964187,right
28/07/2020, 17:56:55,-2.3016138,6.696475,5.0510964,2.1612403,-0.13439031,-1.8875729,8.697918094195622,2.8726210947368616,right
28/07/2020, 17:56:55,-2.196233,6.9168167,4.493057,2.1612403,-0.13439031,-1.8875729,8.535417513825553,2.8726210947368616,right
28/07/2020, 17:56:55,-2.196233,6.9168167,4.493057,1.819156,-0.074525535,-1.9645419,8.535417513825553,2.678489820109564,right
28/07/2020, 17:56:55,-2.1507277,7.1084185,3.9589674,1.819156,-0.074525535,-1.9645419,8.415976839744818,2.678489820109564,right
28/07/2020, 17:56:55,-2.1507277,7.1084185,3.9589674,1.5540406,0.021991141,-2.0024154,8.415976839744818,2.5347964718621045,right
28/07/2020, 17:56:55,-2.2177882,7.053333,3.7290456,1.5540406,0.021991141,-2.0024154,8.280934099500435,2.5347964718621045,right
28/07/2020, 17:56:55,-2.2177882,7.053333,3.7290456,1.3390161,0.13561203,-1.9804244,8.280934099500435,2.3944593344479967,right
28/07/2020, 17:56:55,-2.3854396,6.6461797,3.2284865,1.3390161,0.13561203,-1.9804244,7.764351348376444,2.3944593344479967,right
28/07/2020, 17:56:55,-2.3854396,6.6461797,3.2284865,1.1325437,0.26633716,-1.9303335,7.764351348376444,2.2538363022421466,right
28/07/2020, 17:56:55,-2.4884255,6.356382,3.168611,1.1325437,0.26633716,-1.9303335,7.525685895056493,2.2538363022421466,right
28/07/2020, 17:56:55,-2.4884255,6.356382,3.168611,1.0726789,0.42882723,-1.901012,7.525685895056493,2.2244952851340396,right
28/07/2020, 17:56:55,-2.7159522,5.9564137,3.2308815,1.0726789,0.42882723,-1.901012,7.300264090908878,2.2244952851340396,right
28/07/2020, 17:56:55,-2.7159522,5.9564137,3.2308815,1.1374307,0.58520865,-1.8606949,7.300264090908878,2.2579643817887356,right
28/07/2020, 17:56:55,-3.0536501,5.1971927,2.816543,1.1374307,0.58520865,-1.8606949,6.653458188559742,2.2579643817887356,right
28/07/2020, 17:56:55,-3.0536501,5.1971927,2.816543,1.2571602,0.67439497,-1.7922779,6.653458188559742,2.290746710218219,right
28/07/2020, 17:56:55,-3.319497,4.3230104,2.7734327,1.2571602,0.67439497,-1.7922779,6.115505659748409,2.290746710218219,right
28/07/2020, 17:56:55,-3.319497,4.3230104,2.7734327,1.4782933,0.69027746,-1.7531825,6.115505659748409,2.394886851762443,right
28/07/2020, 17:56:55,-3.432063,3.788921,2.9794044,1.4782933,0.69027746,-1.7531825,5.91707962185106,2.394886851762443,right
28/07/2020, 17:56:56,1.104104,1.6645386,-10.837463,5.619958,-0.687834,-0.84543717,11.019997597486912,5.72466651590298,right
28/07/2020, 17:56:56,1.5160475,1.7914747,-11.057806,5.619958,-0.687834,-0.84543717,11.304107900274529,5.72466651590298,right
28/07/2020, 17:56:56,1.5160475,1.7914747,-11.057806,5.235113,-0.6646211,-0.87353694,11.304107900274529,5.3489436012181395,right
28/07/2020, 17:56:56,1.3172607,1.961521,-10.528506,5.235113,-0.6646211,-0.87353694,10.790374649600368,5.3489436012181395,right
28/07/2020, 17:56:56,1.3172607,1.961521,-10.528506,4.9113545,-0.5900956,-0.8332199,10.790374649600368,5.0163603943772825,right
28/07/2020, 17:56:56,1.0370435,2.3686745,-7.185059,4.9113545,-0.5900956,-0.8332199,7.63617390685068,5.0163603943772825,right
28/07/2020, 17:56:56,1.0370435,2.3686745,-7.185059,4.602257,-0.4960224,-0.9053019,7.63617390685068,4.7166065373776,right
28/07/2020, 17:56:56,1.9351759,-0.098195806,-8.265213,4.602257,-0.4960224,-0.9053019,8.489304701142236,4.7166065373776,right
28/07/2020, 17:56:56,1.9351759,-0.098195806,-8.265213,4.603479,-0.44837493,-1.086118,8.489304701142236,4.751074658355178,right
28/07/2020, 17:56:56,1.7315992,-1.9040406,-8.361013,4.603479,-0.44837493,-1.086118,8.748162757109787,4.751074658355178,right
28/07/2020, 17:56:56,1.7315992,-1.9040406,-8.361013,4.389676,-0.2968804,-1.2302822,8.748162757109787,4.568477693934584,right
28/07/2020, 17:56:56,1.2430152,-3.8895118,-7.089258,4.389676,-0.2968804,-1.2302822,8.1811350484028,4.568477693934584,right
28/07/2020, 17:56:56,1.2430152,-3.8895118,-7.089258,3.8411193,-0.11239916,-1.3206902,8.1811350484028,4.063379560457116,right
28/07/2020, 17:56:56,0.5987549,-4.263135,-6.9048414,3.8411193,-0.11239916,-1.3206902,8.136931985895215,4.063379560457116,right
28/07/2020, 17:56:56,0.5987549,-4.263135,-6.9048414,3.4049616,-0.08307764,-1.4355328,8.136931985895215,3.696135784843528,right
28/07/2020, 17:56:56,0.2682422,-3.2260914,-6.6174393,3.4049616,-0.08307764,-1.4355328,7.366825775009835,3.696135784843528,right
28/07/2020, 17:56:56,0.2682422,-3.2260914,-6.6174393,3.0836465,-0.20158546,-1.5137235,7.366825775009835,3.4410567369175413,right
28/07/2020, 17:56:56,-0.035925295,-1.9040406,-6.478528,3.0836465,-0.20158546,-1.5137235,6.752628116515244,3.4410567369175413,right
28/07/2020, 17:56:56,-0.035925295,-1.9040406,-6.478528,2.547307,-0.23335044,-1.57481,6.752628116515244,3.0038728466303324,right
28/07/2020, 17:56:56,-0.18681154,-1.7435743,-7.175479,2.547307,-0.23335044,-1.57481,7.386639811594144,3.0038728466303324,right
28/07/2020, 17:56:56,-0.18681154,-1.7435743,-7.175479,1.742187,-0.16615528,-1.7458522,7.386639811594144,2.4720079320703,right
28/07/2020, 17:56:56,-0.1101709,-2.8500733,-7.5323367,1.742187,-0.16615528,-1.7458522,8.054262970503135,2.4720079320703,right
28/07/2020, 17:56:56,-0.1101709,-2.8500733,-7.5323367,1.067792,-0.24556774,-1.9181161,8.054262970503135,2.208993603104443,right
28/07/2020, 17:56:56,0.05269043,-4.4188113,-7.7335186,1.067792,-0.24556774,-1.9181161,8.907074700381287,2.208993603104443,right
28/07/2020, 17:56:56,0.05269043,-4.4188113,-7.7335186,0.80389833,-0.3408627,-2.1197016,8.907074700381287,2.2925040634733604,right
28/07/2020, 17:56:56,-0.011975098,-5.728887,-7.1299734,0.80389833,-0.3408627,-2.1197016,9.146409756896931,2.2925040634733604,right
28/07/2020, 17:56:56,-0.011975098,-5.728887,-7.1299734,0.9028585,-0.35674515,-2.2687526,9.146409756896931,2.4677234071412446,right
28/07/2020, 17:56:56,-0.244292,-6.7635355,-6.8904715,0.9028585,-0.35674515,-2.2687526,9.658348096731345,2.4677234071412446,right
28/07/2020, 17:56:56,-0.244292,-6.7635355,-6.8904715,1.0665703,-0.30176732,-2.18201,9.658348096731345,2.4474074118510316,right
28/07/2020, 17:56:56,-0.17004639,-7.654483,-6.109695,1.0665703,-0.30176732,-2.18201,9.795325202446712,2.4474074118510316,right
28/07/2020, 17:56:57,10.399176,-6.217471,-3.4057178,1.9193379,-2.461786,-0.05375612,12.585655140167473,3.122040685317796,right
28/07/2020, 17:56:57,10.30098,-5.527705,-3.0704153,1.9193379,-2.461786,-0.05375612,12.086900163744938,3.122040685317796,right
28/07/2020, 17:56:57,10.30098,-5.527705,-3.0704153,2.1832316,-2.5008814,-0.07574726,12.086900163744938,3.320639362635667,right
28/07/2020, 17:56:57,9.69504,-5.494175,-2.9794044,2.1832316,-2.5008814,-0.07574726,11.535016474723506,3.320639362635667,right
28/07/2020, 17:56:57,9.69504,-5.494175,-2.9794044,2.3322825,-2.5534158,0.00244346,11.535016474723506,3.458248104644375,right
28/07/2020, 17:56:57,9.654325,-6.06419,-3.544629,2.3322825,-2.5534158,0.00244346,11.93921173575139,3.458248104644375,right
28/07/2020, 17:56:57,9.654325,-6.06419,-3.544629,2.2296574,-2.4959943,0.09040802,11.93921173575139,3.348064138525697,right
28/07/2020, 17:56:57,9.932146,-6.2869267,-3.5781593,2.2296574,-2.4959943,0.09040802,12.287237188424347,3.348064138525697,right
28/07/2020, 17:56:57,9.932146,-6.2869267,-3.5781593,2.149023,-2.434908,0.15027279,12.287237188424347,3.2511011290869427,right
28/07/2020, 17:56:57,9.72378,-6.320457,-3.3482375,2.149023,-2.434908,0.15027279,12.071071292286712,3.2511011290869427,right
28/07/2020, 17:56:57,9.72378,-6.320457,-3.3482375,2.163684,-2.3200653,0.116064355,12.071071292286712,3.1745396085504307,right
28/07/2020, 17:56:57,9.800421,-6.183941,-3.1302907,2.163684,-2.3200653,0.116064355,12.003669945190126,3.1745396085504307,right
28/07/2020, 17:56:57,9.800421,-6.183941,-3.1302907,2.285857,-2.2589788,0.03787363,12.003669945190126,3.213963577842906,right
28/07/2020, 17:56:57,9.457932,-6.0593996,-2.7111623,2.285857,-2.2589788,0.03787363,11.555051336646377,3.213963577842906,right
28/07/2020, 17:56:57,9.457932,-6.0593996,-2.7111623,2.4923294,-2.2345443,-0.021991141,11.555051336646377,3.347443408188072,right
28/07/2020, 17:56:57,9.057964,-5.9947343,-2.4932153,2.4923294,-2.2345443,-0.021991141,11.144490994715,3.347443408188072,right
28/07/2020, 17:56:57,9.057964,-5.9947343,-2.4932153,2.6670365,-2.2809699,-0.051312663,11.144490994715,3.5097778210994313,right
28/07/2020, 17:56:57,8.923843,-5.9013286,-1.8226099,2.6670365,-2.2809699,-0.051312663,10.852767684227176,3.5097778210994313,right
28/07/2020, 17:56:57,8.923843,-5.9013286,-1.8226099,2.7659967,-2.381152,-0.05742131,10.852767684227176,3.650194427941045,right
28/07/2020, 17:56:57,8.188572,-5.958809,-1.2478052,2.7659967,-2.381152,-0.05742131,10.20378026306858,3.650194427941045,right
28/07/2020, 17:56:57,8.188572,-5.958809,-1.2478052,2.878396,-2.4263558,-0.06963861,10.20378026306858,3.765264389426088,right
28/07/2020, 17:56:57,8.646021,-5.7001467,-1.2478052,2.878396,-2.4263558,-0.06963861,10.43083732243376,3.765264389426088,right
28/07/2020, 17:56:57,8.646021,-5.7001467,-1.2478052,2.8502963,-2.3909256,-0.07819072,10.43083732243376,3.7211326228003307,right
28/07/2020, 17:56:57,9.026829,-5.1684523,-1.583108,2.8502963,-2.3909256,-0.07819072,10.521538249607634,3.7211326228003307,right
28/07/2020, 17:56:57,9.026829,-5.1684523,-1.583108,2.769662,-2.3359478,-0.06475169,10.521538249607634,3.623792452768595,right
28/07/2020, 17:56:57,9.08431,-4.751719,-1.5711329,2.769662,-2.3359478,-0.06475169,10.371690919403324,3.623792452768595,right
28/07/2020, 17:56:57,9.08431,-4.751719,-1.5711329,2.6731453,-2.2968524,0.029321522,10.371690919403324,3.5244994303094273,right
28/07/2020, 17:56:57,8.3322735,-4.663103,-1.5567628,2.6731453,-2.2968524,0.029321522,9.674441710814314,3.5244994303094273,right
28/07/2020, 17:56:57,8.3322735,-4.663103,-1.5567628,2.4190254,-2.199114,0.13805549,9.674441710814314,3.2721317304701047,right
28/07/2020, 17:56:57,7.90117,-4.9792457,-1.0609937,2.4190254,-2.199114,0.13805549,9.399312676140502,3.2721317304701047,right
28/07/2020, 17:56:58,1.6884888,-10.207574,2.672842,1.819156,0.19792026,0.321315,10.685955446044147,1.8578871037548392,right
28/07/2020, 17:56:58,1.6597486,-10.734478,2.7710378,1.819156,0.19792026,0.321315,11.209925678204316,1.8578871037548392,right
28/07/2020, 17:56:58,1.6597486,-10.734478,2.7710378,1.7812824,0.21135929,0.45814875,11.209925678204316,1.8513616888075672,right
28/07/2020, 17:56:58,1.8082398,-11.04104,2.7207422,1.7812824,0.21135929,0.45814875,11.51419745636963,1.8513616888075672,right
28/07/2020, 17:56:58,1.8082398,-11.04104,2.7207422,1.6945395,0.17348567,0.5009093,11.51419745636963,1.7755201232478797,right
28/07/2020, 17:56:58,1.7723145,-11.273357,2.943479,1.6945395,0.17348567,0.5009093,11.785319457501451,1.7755201232478797,right
28/07/2020, 17:56:58,1.7723145,-11.273357,2.943479,1.6481138,0.15149452,0.5424481,11.785319457501451,1.7416887740975124,right
28/07/2020, 17:56:58,1.2741505,-11.388318,2.4069948,1.6481138,0.15149452,0.5424481,11.709435161964771,1.7416887740975124,right
28/07/2020, 17:56:58,1.2741505,-11.388318,2.4069948,1.5894707,0.22235486,0.61941713,11.709435161964771,1.7203303496529154,right
28/07/2020, 17:56:58,1.2166699,-10.909314,2.2345533,1.5894707,0.22235486,0.61941713,11.202082380014541,1.7203303496529154,right
28/07/2020, 17:56:58,1.2166699,-10.909314,2.2345533,1.484402,0.24312428,0.6682863,11.202082380014541,1.6459541753490063,right
28/07/2020, 17:56:58,1.2478052,-10.265054,2.3423293,1.484402,0.24312428,0.6682863,10.602587078752277,1.6459541753490063,right
28/07/2020, 17:56:58,1.2478052,-10.265054,2.3423293,1.3341292,0.1869247,0.65362555,10.602587078752277,1.4973536520226696,right
28/07/2020, 17:56:58,1.2885206,-9.944121,2.2321582,1.3341292,0.1869247,0.65362555,10.272699989175921,1.4973536520226696,right
28/07/2020, 17:56:58,1.2885206,-9.944121,2.2321582,1.0824528,0.17959431,0.63652134,10.272699989175921,1.268509968069624,right
28/07/2020, 17:56:58,1.092129,-9.6758795,2.1315675,1.0824528,0.17959431,0.63652134,9.967896936212583,1.268509968069624,right
28/07/2020, 17:56:58,1.092129,-9.6758795,2.1315675,0.81245047,0.15393798,0.6487386,9.967896936212583,1.0510159210114056,right
28/07/2020, 17:56:58,1.219065,-9.663904,2.8764186,0.81245047,0.15393798,0.6487386,10.156325489928959,1.0510159210114056,right
28/07/2020, 17:56:58,1.219065,-9.663904,2.8764186,0.65362555,0.12095127,0.72692937,10.156325489928959,0.9850288682007378,right
28/07/2020, 17:56:58,1.7627344,-10.178833,3.0823903,0.65362555,0.12095127,0.72692937,10.780399066148785,0.9850288682007378,right
28/07/2020, 17:56:58,1.7627344,-10.178833,3.0823903,0.5009093,0.12095127,0.82833296,10.780399066148785,0.9755382408165323,right
28/07/2020, 17:56:58,2.078877,-10.741663,2.9770093,0.5009093,0.12095127,0.82833296,11.338767012934754,0.9755382408165323,right
28/07/2020, 17:56:58,2.078877,-10.741663,2.9770093,0.37262765,0.11972954,0.9248496,11.338767012934754,1.0042576175535687,right
28/07/2020, 17:56:58,2.3878345,-11.378738,2.9794044,0.37262765,0.11972954,0.9248496,12.002261968388957,1.0042576175535687,right
28/07/2020, 17:56:58,2.3878345,-11.378738,2.9794044,0.30298904,0.13683376,1.0079273,12.002261968388957,1.0613403186985633,right
28/07/2020, 17:56:58,2.44292,-11.790682,2.6321266,0.30298904,0.13683376,1.0079273,12.325426016374154,1.0613403186985633,right
28/07/2020, 17:56:58,2.44292,-11.790682,2.6321266,0.19303334,0.14294241,1.0971136,12.325426016374154,1.1230995836501347,right
28/07/2020, 17:56:58,2.3878345,-11.55118,2.435735,0.19303334,0.14294241,1.0971136,12.044264839205104,1.1230995836501347,right
28/07/2020, 17:56:58,2.3878345,-11.55118,2.435735,-0.00244346,0.17226394,1.2070693,12.044264839205104,1.2193018802538786,right
28/07/2020, 17:56:58,2.574646,-11.074571,2.299219,-0.00244346,0.17226394,1.2070693,11.600057100470469,1.2193018802538786,right
28/07/2020, 17:56:59,-10.003997,10.763218,-58.713905,9.947326,1.149648,-0.66950804,60.52478411943767,10.03589657867817,right
28/07/2020, 17:56:59,-0.53169435,9.0891,-1.7890797,9.947326,1.149648,-0.66950804,9.278752159548986,10.03589657867817,right
28/07/2020, 17:56:59,-0.53169435,9.0891,-1.7890797,6.675533,-0.67195153,0.1710422,9.278752159548986,6.711446393992042,right
28/07/2020, 17:56:59,15.833475,5.381609,-20.74566,6.675533,-0.67195153,0.1710422,26.646633754718383,6.711446393992042,right
28/07/2020, 17:56:59,15.833475,5.381609,-20.74566,3.2656844,0.97494054,0.7452553,26.646633754718383,3.488639976078691,right
28/07/2020, 17:56:59,3.7458107,2.1243825,-15.962806,3.2656844,0.97494054,0.7452553,16.533458999561184,3.488639976078691,right
28/07/2020, 17:56:59,3.7458107,2.1243825,-15.962806,2.2467616,2.3603823,0.21380275,16.533458999561184,3.265739398197106,right
28/07/2020, 17:56:59,1.4058765,3.6931202,-16.077766,2.2467616,2.3603823,0.21380275,16.55627370225717,3.265739398197106,right
28/07/2020, 17:56:59,1.4058765,3.6931202,-16.077766,1.5723666,4.376237,-0.35918862,16.55627370225717,4.663989999274877,right
28/07/2020, 17:56:59,-1.2406201,4.0763235,-19.002087,1.5723666,4.376237,-0.35918862,19.473953073932194,4.663989999274877,right
28/07/2020, 17:56:59,-1.2406201,4.0763235,-19.002087,0.7819072,4.3872323,-0.06597342,19.473953073932194,4.456852998383845,right
28/07/2020, 17:56:59,-5.216353,4.4212065,-22.788612,0.7819072,4.3872323,-0.06597342,23.79239916935932,4.456852998383845,right
28/07/2020, 17:56:59,-5.216353,4.4212065,-22.788612,0.21258102,2.5424201,0.9077454,23.79239916935932,2.707968362829222,right
28/07/2020, 17:56:59,-5.980364,8.375383,-20.223545,0.21258102,2.5424201,0.9077454,22.69148681378708,2.707968362829222,right
28/07/2020, 17:56:59,-5.980364,8.375383,-20.223545,0.44104454,-0.0036651902,1.1887434,22.69148681378708,1.2679292086820502,right
28/07/2020, 17:56:59,-3.8008962,9.390872,-15.083834,0.44104454,-0.0036651902,1.1887434,18.170231906925615,1.2679292086820502,right
28/07/2020, 17:56:59,-3.8008962,9.390872,-15.083834,1.1814129,-1.6102402,0.7476988,18.170231906925615,2.1325251614932674,right
28/07/2020, 17:56:59,-1.0753639,7.209009,-13.055252,1.1814129,-1.6102402,0.7476988,14.952117824246505,2.1325251614932674,right
28/07/2020, 17:56:59,-1.0753639,7.209009,-13.055252,1.8240429,-2.0305152,0.13072512,14.952117824246505,2.7326202753304214,right
28/07/2020, 17:56:59,0.100590825,2.8309133,-13.716277,1.8240429,-2.0305152,0.13072512,14.00572906910834,2.7326202753304214,right
28/07/2020, 17:56:59,0.100590825,2.8309133,-13.716277,1.9779809,-1.7263045,-0.19425507,14.00572906910834,2.632540715214382,right
28/07/2020, 17:56:59,0.6442603,-0.32572266,-13.646822,1.9779809,-1.7263045,-0.19425507,13.665903431850747,2.632540715214382,right
28/07/2020, 17:56:59,0.6442603,-0.32572266,-13.646822,2.317622,-1.4953976,-0.43371415,13.665903431850747,2.792076885917001,right
28/07/2020, 17:56:59,1.4154567,-1.7986598,-12.037369,2.317622,-1.4953976,-0.43371415,12.253038057078605,2.792076885917001,right
28/07/2020, 17:56:59,1.4154567,-1.7986598,-12.037369,2.8087573,-1.3829983,-0.6914992,12.253038057078605,3.2062397188824217,right
28/07/2020, 17:56:59,2.2177882,-2.1674929,-11.019485,2.8087573,-1.3829983,-0.6914992,11.447518072330896,3.2062397188824217,right
28/07/2020, 17:56:59,2.2177882,-2.1674929,-11.019485,3.1117463,-1.149648,-0.9761623,11.447518072330896,3.457968822994646,right
28/07/2020, 17:56:59,2.335144,-2.3758595,-8.598121,3.1117463,-1.149648,-0.9761623,9.220915651368205,3.457968822994646,right
28/07/2020, 17:56:59,2.335144,-2.3758595,-8.598121,3.4868176,-0.5583306,-1.149648,9.220915651368205,3.713666709534672,right
28/07/2020, 17:56:59,2.1028273,-1.5471827,-6.361172,3.4868176,-0.5583306,-1.149648,6.876057641504396,3.713666709534672,right
28/07/2020, 17:57:00,7.8820095,-6.0617948,4.2248144,1.0629051,-1.4037678,-0.9224062,10.803725578866288,1.9877536291654876,right
28/07/2020, 17:57:00,7.8820095,-6.0617948,4.2248144,0.94195384,-1.2058475,-0.99815345,10.803725578866288,1.8269251588756341,right
28/07/2020, 17:57:00,7.1419487,-5.132527,4.064348,0.94195384,-1.2058475,-0.99815345,9.688611345840924,1.8269251588756341,right
28/07/2020, 17:57:00,7.1419487,-5.132527,4.064348,0.83199817,-1.1447611,-0.98227096,9.688611345840924,1.7226593185824748,right
28/07/2020, 17:57:00,6.449788,-4.6774735,4.258345,0.83199817,-1.1447611,-0.98227096,9.033937593227757,1.7226593185824748,right
28/07/2020, 17:57:00,6.449788,-4.6774735,4.258345,0.69272095,-1.2107345,-0.79534626,9.033937593227757,1.6057135437201207,right
28/07/2020, 17:57:00,6.3899126,-4.9361353,3.1614258,0.69272095,-1.2107345,-0.79534626,8.671276030463508,1.6057135437201207,right
28/07/2020, 17:57:00,6.3899126,-4.9361353,3.1614258,0.33719748,-1.3964374,-0.56810445,8.671276030463508,1.5448243376308244,right
28/07/2020, 17:57:00,6.710845,-5.3217335,1.8489552,0.33719748,-1.3964374,-0.56810445,8.762130041670185,1.5448243376308244,right
28/07/2020, 17:57:00,6.710845,-5.3217335,1.8489552,-0.02687806,-1.6444486,-0.3995057,8.762130041670185,1.6924947743163323,right
28/07/2020, 17:57:00,7.4748564,-6.08814,0.79035646,-0.02687806,-1.6444486,-0.3995057,9.67282740322186,1.6924947743163323,right
28/07/2020, 17:57:00,7.4748564,-6.08814,0.79035646,-0.18936816,-1.8167125,-0.3054325,9.67282740322186,1.8519162004262368,right
28/07/2020, 17:57:00,8.420889,-7.0030375,-0.06706055,-0.18936816,-1.8167125,-0.3054325,10.95255223956881,1.8519162004262368,right
28/07/2020, 17:57:00,8.420889,-7.0030375,-0.06706055,-0.13927722,-1.7629564,-0.23701562,10.95255223956881,1.7842616816965928,right
28/07/2020, 17:57:00,9.73815,-8.356223,-0.87418216,-0.13927722,-1.7629564,-0.23701562,12.86165687339982,1.7842616816965928,right
28/07/2020, 17:57:00,9.73815,-8.356223,-0.87418216,-0.10751224,-1.5283842,-0.2638937,12.86165687339982,1.5547208924181926,right
28/07/2020, 17:57:00,10.511742,-9.534574,-0.82388675,-0.10751224,-1.5283842,-0.2638937,14.215610944444892,1.5547208924181926,right
28/07/2020, 17:57:00,10.511742,-9.534574,-0.82388675,-0.054977853,-1.253495,-0.3579669,14.215610944444892,1.304765314321496,right
28/07/2020, 17:57:00,10.585987,-10.317744,-0.35685793,-0.054977853,-1.253495,-0.3579669,14.786693909871493,1.304765314321496,right
28/07/2020, 17:57:00,10.585987,-10.317744,-0.35685793,0.11484262,-1.0702355,-0.40805784,14.786693909871493,1.1511316317600282,right
28/07/2020, 17:57:00,10.193204,-10.624307,-0.12693603,0.11484262,-1.0702355,-0.40805784,14.723906120318402,1.1511316317600282,right
28/07/2020, 17:57:00,10.193204,-10.624307,-0.12693603,0.3579669,-1.0763441,-0.46670088,14.723906120318402,1.2265670408925766,right
28/07/2020, 17:57:00,9.041199,-10.250684,-0.23950197,0.3579669,-1.0763441,-0.46670088,13.670301888620422,1.2265670408925766,right
28/07/2020, 17:57:00,9.041199,-10.250684,-0.23950197,0.57543486,-1.290147,-0.4838051,13.670301888620422,1.4932085561351134,right
28/07/2020, 17:57:00,8.217313,-9.251961,-0.035925295,0.57543486,-1.290147,-0.4838051,12.374340317414267,1.4932085561351134,right
28/07/2020, 17:57:00,8.217313,-9.251961,-0.035925295,0.90896714,-1.5955794,-0.4263838,12.374340317414267,1.8851784987759692,right
28/07/2020, 17:57:00,7.814949,-8.226892,-0.30177248,0.90896714,-1.5955794,-0.4263838,11.351046418330329,1.8851784987759692,right
28/07/2020, 17:57:00,7.814949,-8.226892,-0.30177248,1.0922266,-1.8142691,-0.2638937,11.351046418330329,2.1340504033725747,right
28/07/2020, 17:57:00,8.025711,-7.676038,-0.8310718,1.0922266,-1.8142691,-0.2638937,11.136618628082532,2.1340504033725747,right
28/07/2020, 17:57:00,8.025711,-7.676038,-0.8310718,1.0555748,-1.9963069,-0.09896013,11.136618628082532,2.2603699777988586,right
28/07/2020, 17:57:01,3.9326222,-9.78605,1.8992506,0.84177196,-0.55222195,0.51801354,10.716316614955346,1.1321957179988689,right
28/07/2020, 17:57:01,4.296665,-9.472302,2.42855,0.84177196,-0.55222195,0.51801354,10.68099716086828,1.1321957179988689,right
28/07/2020, 17:57:01,4.296665,-9.472302,2.42855,1.0519096,-0.4801399,0.5253439,10.68099716086828,1.2700528639229407,right
28/07/2020, 17:57:01,4.277505,-9.017249,2.4644752,1.0519096,-0.4801399,0.5253439,10.280149201350968,1.2700528639229407,right
28/07/2020, 17:57:01,4.277505,-9.017249,2.4644752,1.1349872,-0.2736675,0.4801399,10.280149201350968,1.2623883184145428,right
28/07/2020, 17:57:01,3.8272414,-8.519085,2.2824538,1.1349872,-0.2736675,0.4801399,9.61416559984511,1.2623883184145428,right
28/07/2020, 17:57:01,3.8272414,-8.519085,2.2824538,1.0897832,-0.01588249,0.4068361,9.61416559984511,1.1633551755604203,right
28/07/2020, 17:57:01,3.3697927,-8.061636,2.1698878,1.0897832,-0.01588249,0.4068361,9.002993410666933,1.1633551755604203,right
28/07/2020, 17:57:01,3.3697927,-8.061636,2.1698878,1.0005969,0.21258102,0.33475402,9.002993410666933,1.0763108582402987,right
28/07/2020, 17:57:01,2.7351124,-7.8891945,2.0525317,1.0005969,0.21258102,0.33475402,8.598436842448283,1.0763108582402987,right
28/07/2020, 17:57:01,2.7351124,-7.8891945,2.0525317,0.87598044,0.36163208,0.28221965,8.598436842448283,0.9888212255307942,right
28/07/2020, 17:57:01,2.203418,-7.951465,1.7363893,0.87598044,0.36163208,0.28221965,8.431838257218722,0.9888212255307942,right
28/07/2020, 17:57:01,2.203418,-7.951465,1.7363893,0.70493823,0.37751457,0.28955,8.431838257218722,0.8504671479153401,right
28/07/2020, 17:57:01,1.83219,-8.092772,1.4968873,0.70493823,0.37751457,0.28955,8.431520802176841,0.8504671479153401,right
28/07/2020, 17:57:01,1.83219,-8.092772,1.4968873,0.47891816,0.26022848,0.37873632,8.431520802176841,0.6637188192361398,right
28/07/2020, 17:57:01,1.6238233,-8.293953,1.4609619,0.47891816,0.26022848,0.37873632,8.576763215083439,0.6637188192361398,right
28/07/2020, 17:57:01,1.6238233,-8.293953,1.4609619,0.20402892,0.087964565,0.50701797,8.576763215083439,0.5535637149728371,right
28/07/2020, 17:57:01,1.6621436,-8.49274,1.6813037,0.20402892,0.087964565,0.50701797,8.815675288969453,0.5535637149728371,right
28/07/2020, 17:57:01,1.6621436,-8.49274,1.6813037,-0.08307764,-0.05619958,0.5937608,8.815675288969453,0.6021728662841574,right
28/07/2020, 17:57:01,1.7627344,-8.4376545,1.5663428,-0.08307764,-0.05619958,0.5937608,8.760974595070884,0.6021728662841574,right
28/07/2020, 17:57:01,1.7627344,-8.4376545,1.5663428,-0.40805784,-0.15760317,0.6157519,8.760974595070884,0.7553147621425488,right
28/07/2020, 17:57:01,1.9663111,-8.353828,1.4944923,-0.40805784,-0.15760317,0.6157519,8.711276369374612,0.7553147621425488,right
28/07/2020, 17:57:01,1.9663111,-8.353828,1.4944923,-0.70860344,-0.20891583,0.62063885,8.711276369374612,0.9648612544474242,right
28/07/2020, 17:57:01,2.3519094,-8.428074,1.575923,-0.70860344,-0.20891583,0.62063885,8.890862747466992,0.9648612544474242,right
28/07/2020, 17:57:01,2.3519094,-8.428074,1.575923,-0.9566146,-0.20525065,0.6658429,8.890862747466992,1.1834636046634868,right
28/07/2020, 17:57:01,2.8812087,-8.660391,1.9375709,-0.9566146,-0.20525065,0.6658429,9.330483062582664,1.1834636046634868,right
28/07/2020, 17:57:01,2.8812087,-8.660391,1.9375709,-1.1239916,-0.08674283,0.7440336,9.330483062582664,1.3507284761129623,right
28/07/2020, 17:57:01,3.544629,-9.148975,2.5004005,-1.1239916,-0.08674283,0.7440336,10.125223388889127,1.3507284761129623,right
28/07/2020, 17:57:01,3.544629,-9.148975,2.5004005,-1.1838564,0.11117743,0.84055024,10.125223388889127,1.456159686811352,right
28/07/2020, 17:57:01,3.9637575,-9.395662,2.9003687,-1.1838564,0.11117743,0.84055024,10.60198011595958,1.456159686811352,right
28/07/2020, 17:57:02,0.7711963,-10.092612,1.8992506,0.35674515,0.9480625,2.7708838,10.29867559675677,2.950235006746366,right
28/07/2020, 17:57:02,1.6046631,-9.398057,1.7579445,0.35674515,0.9480625,2.7708838,9.694781461530924,2.950235006746366,right
28/07/2020, 17:57:02,1.6046631,-9.398057,1.7579445,0.31520635,1.0506878,2.8136442,9.694781461530924,3.0199161236569108,right
28/07/2020, 17:57:02,2.327959,-8.54543,2.0213966,0.31520635,1.0506878,2.8136442,9.084592163197048,3.0199161236569108,right
28/07/2020, 17:57:02,2.327959,-8.54543,2.0213966,0.26878062,1.293812,2.7904313,9.084592163197048,3.0875069602584335,right
28/07/2020, 17:57:02,2.816543,-7.941885,2.1315675,0.26878062,1.293812,2.7904313,8.69195215282047,3.0875069602584335,right
28/07/2020, 17:57:02,2.816543,-7.941885,2.1315675,0.15149452,1.6945395,2.7207928,8.69195215282047,3.208913860572993,right
28/07/2020, 17:57:02,2.5315359,-7.5467067,2.203418,0.15149452,1.6945395,2.7207928,8.25932845006858,3.208913860572993,right
28/07/2020, 17:57:02,2.5315359,-7.5467067,2.203418,-0.02076941,2.1930053,2.619389,8.25932845006858,3.416270298096477,right
28/07/2020, 17:57:02,1.5352076,-7.446116,2.2393434,-0.02076941,2.1930053,2.619389,7.925664918292262,3.416270298096477,right
28/07/2020, 17:57:02,1.5352076,-7.446116,2.2393434,-0.18814643,2.63405,2.50699,7.925664918292262,3.641238326843887,right
28/07/2020, 17:57:02,-0.059875492,-7.6353226,1.8226099,-0.18814643,2.63405,2.50699,7.850072782306357,3.641238326843887,right
28/07/2020, 17:57:02,-0.059875492,-7.6353226,1.8226099,-0.3579669,2.8454092,2.4361296,7.850072782306357,3.7628740135714,right
28/07/2020, 17:57:02,-1.839375,-7.9347,1.1687696,-0.3579669,2.8454092,2.4361296,8.228534931428301,3.7628740135714,right
28/07/2020, 17:57:02,-1.839375,-7.9347,1.1687696,-0.47036606,2.73301,2.466673,8.228534931428301,3.7114772485931242,right
28/07/2020, 17:57:02,-3.3482375,-7.999366,0.6394702,-0.47036606,2.73301,2.466673,8.695370602954359,3.7114772485931242,right
28/07/2020, 17:57:02,-3.3482375,-7.999366,0.6394702,-0.40927956,2.3787084,2.597398,8.695370602954359,3.545735441417637,right
28/07/2020, 17:57:02,-3.9517825,-7.838899,0.6777906,-0.40927956,2.3787084,2.597398,8.80478985449234,3.545735441417637,right
28/07/2020, 17:57:02,-3.9517825,-7.838899,0.6777906,-0.20280719,1.9523246,2.7586663,8.80478985449234,3.3856966549492973,right
28/07/2020, 17:57:02,-3.7985013,-7.580237,0.7376661,-0.20280719,1.9523246,2.7586663,8.510743483394466,3.3856966549492973,right
28/07/2020, 17:57:02,-3.7985013,-7.580237,0.7376661,0.05009093,1.6456703,2.8820612,8.510743483394466,3.31918918249589,right
28/07/2020, 17:57:02,-3.182981,-7.2497244,1.1184741,0.05009093,1.6456703,2.8820612,7.996302658794806,3.31918918249589,right
28/07/2020, 17:57:02,-3.182981,-7.2497244,1.1184741,0.28955,1.5039496,2.9480345,7.996302658794806,3.3221395654794414,right
28/07/2020, 17:57:02,-2.5962012,-6.825806,1.0873389,0.28955,1.5039496,2.9480345,7.383372940874643,3.3221395654794414,right
28/07/2020, 17:57:02,-2.5962012,-6.825806,1.0873389,0.45326185,1.4819585,2.9907951,7.383372940874643,3.368457045908013,right
28/07/2020, 17:57:02,-2.078877,-6.473738,1.101709,0.45326185,1.4819585,2.9907951,6.888017015256194,3.368457045908013,right
28/07/2020, 17:57:02,-2.078877,-6.473738,1.101709,0.5729914,1.4721847,3.0567684,6.888017015256194,3.440854535747913,right
28/07/2020, 17:57:02,-1.7483643,-5.9061184,0.82388675,0.5729914,1.4721847,3.0567684,6.21432230254516,3.440854535747913,right
28/07/2020, 17:57:02,-1.7483643,-5.9061184,0.82388675,0.6817254,1.4379762,3.1349592,6.21432230254516,3.5157494911017113,right
28/07/2020, 17:57:02,-1.3507911,-5.3169436,0.76161623,0.6817254,1.4379762,3.1349592,5.538464191261623,3.5157494911017113,right
28/07/2020, 17:57:03,1.6932789,-8.8951025,-3.8056862,3.9681792,-0.5937608,-2.7293448,9.82208173897301,4.852661282725278,right
28/07/2020, 17:57:03,2.198628,-8.988508,-2.179468,3.9681792,-0.5937608,-2.7293448,9.506698972711412,4.852661282725278,right
28/07/2020, 17:57:03,2.198628,-8.988508,-2.179468,3.905871,-0.6279692,-2.86007,9.506698972711412,4.881615846410527,right
28/07/2020, 17:57:03,3.6404297,-9.235196,-0.32572266,3.905871,-0.6279692,-2.86007,9.93215340031769,4.881615846410527,right
28/07/2020, 17:57:03,3.6404297,-9.235196,-0.32572266,3.7006202,-0.687834,-2.9468129,9.93215340031769,4.780314989632519,right
28/07/2020, 17:57:03,4.624783,-9.72378,1.0202783,3.7006202,-0.687834,-2.9468129,10.815797579085993,4.780314989632519,right
28/07/2020, 17:57:03,4.624783,-9.72378,1.0202783,3.4318397,-0.70249474,-2.886948,10.815797579085993,4.539327262938586,right
28/07/2020, 17:57:03,5.5157304,-9.972861,1.0178833,3.4318397,-0.70249474,-2.886948,11.44191113228773,4.539327262938586,right
28/07/2020, 17:57:03,5.5157304,-9.972861,1.0178833,3.1386244,-0.7867941,-2.7354536,11.44191113228773,4.237064400756964,right
28/07/2020, 17:57:03,6.104905,-10.5620365,0.62031007,3.1386244,-0.7867941,-2.7354536,12.215206364911907,4.237064400756964,right
28/07/2020, 17:57:03,6.104905,-10.5620365,0.62031007,2.8551831,-0.8833108,-2.547307,12.215206364911907,3.9269685077523637,right
28/07/2020, 17:57:03,6.480923,-11.364368,0.059875492,2.8551831,-0.8833108,-2.547307,13.08261519331316,3.9269685077523637,right
28/07/2020, 17:57:03,6.480923,-11.364368,0.059875492,2.4581208,-0.7843507,-2.2931871,13.08261519331316,3.4519952571719075,right
28/07/2020, 17:57:03,6.375542,-12.269686,-0.9268726,2.4581208,-0.7843507,-2.2931871,13.858276191758092,3.4519952571719075,right
28/07/2020, 17:57:03,6.375542,-12.269686,-0.9268726,1.8985685,-0.6267475,-2.1245885,13.858276191758092,2.9174048494829687,right
28/07/2020, 17:57:03,5.031936,-12.952266,-1.1951149,1.8985685,-0.6267475,-2.1245885,13.9466794936195,2.9174048494829687,right
28/07/2020, 17:57:03,5.031936,-12.952266,-1.1951149,1.7470739,-0.38851014,-1.8949033,13.9466794936195,2.6065045222833616,right
28/07/2020, 17:57:03,3.6380348,-13.783338,-1.1448194,1.7470739,-0.38851014,-1.8949033,14.30126931326565,2.6065045222833616,right
28/07/2020, 17:57:03,3.6380348,-13.783338,-1.1448194,2.2589788,-0.22602005,-1.6420052,14.30126931326565,2.801830040234382,right
28/07/2020, 17:57:03,2.411785,-14.509029,-2.315984,2.2589788,-0.22602005,-1.6420052,14.889339208800925,2.801830040234382,right
28/07/2020, 17:57:03,2.411785,-14.509029,-2.315984,2.9333737,-0.14416414,-1.4892889,14.889339208800925,3.292938810442488,right
28/07/2020, 17:57:03,2.193838,-15.538887,-2.5411158,2.9333737,-0.14416414,-1.4892889,15.897396135865439,3.292938810442488,right
28/07/2020, 17:57:03,2.193838,-15.538887,-2.5411158,3.1337376,-0.01588249,-1.543045,15.897396135865439,3.4930719119005578,right
28/07/2020, 17:57:03,2.0573218,-16.123272,-3.2596216,3.1337376,-0.01588249,-1.543045,16.577623598141642,3.4930719119005578,right
28/07/2020, 17:57:03,2.0573218,-16.123272,-3.2596216,2.9138262,-0.23335044,-1.5589275,16.577623598141642,3.312867454793699,right
28/07/2020, 17:57:03,1.7244141,-15.1413145,-2.6967921,2.9138262,-0.23335044,-1.5589275,15.475971594001049,3.312867454793699,right
28/07/2020, 17:57:03,1.7244141,-15.1413145,-2.6967921,2.5583026,-0.55344373,-1.2791513,15.475971594001049,2.913321208737716,right
28/07/2020, 17:57:03,2.2249732,-13.481565,-1.2645704,2.5583026,-0.55344373,-1.2791513,13.722326756112748,2.913321208737716,right
28/07/2020, 17:57:03,2.2249732,-13.481565,-1.2645704,2.221105,-0.8527676,-0.89552814,13.722326756112748,2.542143005793107,right
28/07/2020, 17:57:03,2.8907888,-10.645863,-0.4406836,2.221105,-0.8527676,-0.89552814,11.040165394844102,2.542143005793107,right
28/07/2020, 17:57:04,7.086863,-6.871311,0.5292993,0.8344416,-1.4624108,0.70493823,9.885277081018286,1.8253427267085731,right
28/07/2020, 17:57:04,7.074888,-6.7324004,0.3903882,0.8344416,-1.4624108,0.70493823,9.77402996602684,1.8253427267085731,right
28/07/2020, 17:57:04,7.074888,-6.7324004,0.3903882,0.8295547,-1.3805549,0.6963861,9.77402996602684,1.7547211837542571,right
28/07/2020, 17:57:04,7.4030056,-6.6988697,0.117355965,0.8295547,-1.3805549,0.6963861,9.984644193112652,1.7547211837542571,right
28/07/2020, 17:57:04,7.4030056,-6.6988697,0.117355965,0.918741,-1.3121381,0.6780602,9.984644193112652,1.7394128160745632,right
28/07/2020, 17:57:04,7.3311553,-6.725215,0.11256592,0.918741,-1.3121381,0.6780602,9.949222349256347,1.7394128160745632,right
28/07/2020, 17:57:04,7.3311553,-6.725215,0.11256592,1.067792,-1.3561203,0.7110469,9.949222349256347,1.866769920229667,right
28/07/2020, 17:57:04,7.3718705,-7.0078273,0.09101075,1.067792,-1.3561203,0.7110469,10.171646921730627,1.866769920229667,right
28/07/2020, 17:57:04,7.3718705,-7.0078273,0.09101075,1.0983353,-1.4453067,0.7977897,10.171646921730627,1.9828565476765465,right
28/07/2020, 17:57:04,7.8748245,-7.175479,-0.5412744,1.0983353,-1.4453067,0.7977897,10.667395991502563,1.9828565476765465,right
28/07/2020, 17:57:04,7.8748245,-7.175479,-0.5412744,0.9053019,-1.5638144,0.8723152,10.667395991502563,2.006494685139312,right
28/07/2020, 17:57:04,8.818462,-7.1635036,-0.6586304,0.9053019,-1.5638144,0.8723152,11.380459440087769,2.006494685139312,right
28/07/2020, 17:57:04,8.818462,-7.1635036,-0.6586304,0.63285613,-1.6517789,0.85643274,11.380459440087769,1.9652881640823392,right
28/07/2020, 17:57:04,10.075848,-7.6233473,-0.5484595,0.63285613,-1.6517789,0.85643274,12.646696681573875,1.9652881640823392,right
28/07/2020, 17:57:04,10.075848,-7.6233473,-0.5484595,0.37873632,-1.678657,0.733038,12.646696681573875,1.8704746529660512,right
28/07/2020, 17:57:04,11.326048,-7.788604,-0.6442603,0.37873632,-1.678657,0.733038,13.760696972673868,1.8704746529660512,right
28/07/2020, 17:57:04,11.326048,-7.788604,-0.6442603,0.398284,-1.6371182,0.6145302,13.760696972673868,1.7934418240831802,right
28/07/2020, 17:57:04,11.860137,-7.8508744,-0.4143384,0.398284,-1.6371182,0.6145302,14.22922186419454,1.7934418240831802,right
28/07/2020, 17:57:04,11.860137,-7.8508744,-0.4143384,0.6352996,-1.5735883,0.61697364,14.22922186419454,1.8056694239786786,right
28/07/2020, 17:57:04,11.876903,-7.90117,-0.7951465,0.6352996,-1.5735883,0.61697364,14.287111560450034,1.8056694239786786,right
28/07/2020, 17:57:04,11.876903,-7.90117,-0.7951465,0.9150758,-1.4770716,0.733038,14.287111560450034,1.8858549893652465,right
28/07/2020, 17:57:04,11.64219,-8.01613,-0.78556645,0.9150758,-1.4770716,0.733038,14.156837553479228,1.8858549893652465,right
28/07/2020, 17:57:04,11.64219,-8.01613,-0.78556645,1.1374307,-1.3524551,0.886976,14.156837553479228,1.977273339402932,right
28/07/2020, 17:57:04,10.950029,-7.91075,-1.0538087,1.1374307,-1.3524551,0.886976,13.54967232817365,1.977273339402932,right
28/07/2020, 17:57:04,10.950029,-7.91075,-1.0538087,1.1862998,-1.22173,0.94928426,13.54967232817365,1.9496338100011685,right
28/07/2020, 17:57:04,10.279425,-7.8820095,-1.1232642,1.1862998,-1.22173,0.94928426,13.002090900951442,1.9496338100011685,right
28/07/2020, 17:57:04,10.279425,-7.8820095,-1.1232642,1.1985172,-1.1276568,0.900415,13.002090900951442,1.87584662559548,right
28/07/2020, 17:57:04,9.18011,-7.680828,-1.2525953,1.1985172,-1.1276568,0.900415,12.034888217980336,1.87584662559548,right
28/07/2020, 17:57:04,9.18011,-7.680828,-1.2525953,1.1484262,-1.0897832,0.84177196,12.034888217980336,1.7930672373457253,right
28/07/2020, 17:57:04,8.581355,-7.8508744,-1.456172,1.1484262,-1.0897832,0.84177196,11.721617693342456,1.7930672373457253,right
28/07/2020, 17:57:05,4.232,-9.484278,1.4154567,-0.7159338,0.475253,0.7452553,10.481644166785804,1.1374673866647236,right
28/07/2020, 17:57:05,3.9278321,-9.872271,1.8010547,-0.7159338,0.475253,0.7452553,10.776520300687245,1.1374673866647236,right
28/07/2020, 17:57:05,3.9278321,-9.872271,1.8010547,-0.32620192,0.32253674,0.7305946,10.776520300687245,0.8626737911764872,right
28/07/2020, 17:57:05,3.8631666,-10.399176,1.9088306,-0.32620192,0.32253674,0.7305946,11.256577830243101,0.8626737911764872,right
28/07/2020, 17:57:05,3.8631666,-10.399176,1.9088306,-0.03909536,0.12828165,0.6805036,11.256577830243101,0.6935919467348771,right
28/07/2020, 17:57:05,3.9350173,-10.523716,1.8681153,-0.03909536,0.12828165,0.6805036,11.389592363129271,0.6935919467348771,right
28/07/2020, 17:57:05,3.9350173,-10.523716,1.8681153,0.12461646,-0.047647472,0.60475636,11.389592363129271,0.6192978223342536,right
28/07/2020, 17:57:05,3.8751419,-10.332115,1.9375709,0.12461646,-0.047647472,0.60475636,11.203727481954633,0.6192978223342536,right
28/07/2020, 17:57:05,3.8751419,-10.332115,1.9375709,0.2076941,-0.11117743,0.5742131,11.203727481954633,0.6206592698554031,right
28/07/2020, 17:57:05,3.6500099,-9.951306,1.6501685,0.2076941,-0.11117743,0.5742131,10.727260889568731,0.6206592698554031,right
28/07/2020, 17:57:05,3.6500099,-9.951306,1.6501685,0.19303334,-0.0073303804,0.6145302,10.727260889568731,0.6441762007783642,right
28/07/2020, 17:57:05,3.6045046,-9.683064,1.7435743,0.19303334,-0.0073303804,0.6145302,10.47827475600211,0.6441762007783642,right
28/07/2020, 17:57:05,3.6045046,-9.683064,1.7435743,0.0855211,0.21013756,0.6829471,10.47827475600211,0.7196446301644426,right
28/07/2020, 17:57:05,3.3338673,-9.587264,1.8010547,0.0855211,0.21013756,0.6829471,10.308933092993096,0.7196446301644426,right
28/07/2020, 17:57:05,3.3338673,-9.587264,1.8010547,-0.07819072,0.4361576,0.7208207,10.308933092993096,0.846126332601398,right
28/07/2020, 17:57:05,2.8620484,-9.335787,2.440525,-0.07819072,0.4361576,0.7208207,10.065008646527012,0.846126332601398,right
28/07/2020, 17:57:05,2.8620484,-9.335787,2.440525,-0.11117743,0.5791,0.72692937,10.065008646527012,0.9360254001108469,right
28/07/2020, 17:57:05,2.1148024,-9.292676,2.6464968,-0.11117743,0.5791,0.72692937,9.890913047473893,0.9360254001108469,right
28/07/2020, 17:57:05,2.1148024,-9.292676,2.6464968,-0.08307764,0.5619958,0.77579856,9.890913047473893,0.9615636134234106,right
28/07/2020, 17:57:05,1.8274,-9.505833,2.3902297,-0.08307764,0.5619958,0.77579856,9.970629040622315,0.9615636134234106,right
28/07/2020, 17:57:05,1.8274,-9.505833,2.3902297,-0.087964565,0.4593705,0.87720215,9.970629040622315,0.9941039346382564,right
28/07/2020, 17:57:05,1.8896705,-10.027947,2.3926246,-0.087964565,0.4593705,0.87720215,10.481184889930582,0.9941039346382564,right
28/07/2020, 17:57:05,1.8896705,-10.027947,2.3926246,-0.036651902,0.36774075,1.0079273,10.481184889930582,1.0735427613781754,right
28/07/2020, 17:57:05,2.3423293,-10.648257,2.579436,-0.036651902,0.36774075,1.0079273,11.203810930529258,1.0735427613781754,right
28/07/2020, 17:57:05,2.3423293,-10.648257,2.579436,-0.08185591,0.2724458,1.0311401,11.203810930529258,1.0696620894936884,right
28/07/2020, 17:57:05,2.7566676,-10.736873,1.8896705,-0.08185591,0.2724458,1.0311401,11.24502137376023,1.0696620894936884,right
28/07/2020, 17:57:05,2.7566676,-10.736873,1.8896705,-0.3408627,0.2797762,0.92607135,11.24502137376023,1.0257047460291047,right
28/07/2020, 17:57:05,2.943479,-10.648257,2.5938063,-0.3408627,0.2797762,0.92607135,11.348007865408158,1.0257047460291047,right
28/07/2020, 17:57:05,2.943479,-10.648257,2.5938063,-0.56932616,0.38973188,0.855211,11.348007865408158,1.0988216909183541,right
28/07/2020, 17:57:05,2.936294,-10.679393,2.8979738,-0.56932616,0.38973188,0.855211,11.448559115113627,1.0988216909183541,right
28/07/2020, 17:57:06,-4.5385623,-5.137317,1.2669654,0.8515458,1.7666216,2.642602,6.971067123704732,3.2908095150002534,right
28/07/2020, 17:57:06,-4.8307548,-5.0534916,0.977168,0.8515458,1.7666216,2.642602,7.058953615262506,3.2908095150002534,right
28/07/2020, 17:57:06,-4.8307548,-5.0534916,0.977168,0.8906412,1.9230031,2.6169457,7.058953615262506,3.3674304195009945,right
28/07/2020, 17:57:06,-5.0894165,-4.9002104,0.61552006,0.8906412,1.9230031,2.6169457,7.091761915649994,3.3674304195009945,right
28/07/2020, 17:57:06,-5.0894165,-4.9002104,0.61552006,0.950506,1.9889765,2.6352715,7.091761915649994,3.4357161077596365,right
28/07/2020, 17:57:06,-4.9529004,-4.7062135,0.15567628,0.950506,1.9889765,2.6352715,6.834025375763362,3.4357161077596365,right
28/07/2020, 17:57:06,-4.9529004,-4.7062135,0.15567628,0.99937516,1.9437724,2.6804757,6.834025375763362,3.4586055052441655,right
28/07/2020, 17:57:06,-4.497847,-4.4403663,-0.4263135,0.99937516,1.9437724,2.6804757,6.334763148217486,3.4586055052441655,right
28/07/2020, 17:57:06,-4.497847,-4.4403663,-0.4263135,1.0372488,1.8472558,2.746449,6.334763148217486,3.4686050997675326,right
28/07/2020, 17:57:06,-3.803291,-4.0523734,-0.7448511,1.0372488,1.8472558,2.746449,5.607277100794025,3.4686050997675326,right
28/07/2020, 17:57:06,-3.803291,-4.0523734,-0.7448511,1.0262532,1.7788389,2.8160877,5.607277100794025,3.485371354208209,right
28/07/2020, 17:57:06,-3.0536501,-3.5613942,-1.1783496,1.0262532,1.7788389,2.8160877,4.837025506169113,3.485371354208209,right
28/07/2020, 17:57:06,-3.0536501,-3.5613942,-1.1783496,0.9358452,1.7592913,2.8722873,4.837025506169113,3.495847001763151,right
28/07/2020, 17:57:06,-2.335144,-2.9961696,-1.4873072,0.9358452,1.7592913,2.8722873,4.079462275394359,3.495847001763151,right
28/07/2020, 17:57:06,-2.335144,-2.9961696,-1.4873072,0.8662066,1.7641782,2.940704,4.079462275394359,3.5370014229529967,right
28/07/2020, 17:57:06,-1.7387843,-2.5051906,-1.6022681,0.8662066,1.7641782,2.940704,3.4447951968578105,3.5370014229529967,right
28/07/2020, 17:57:06,-1.7387843,-2.5051906,-1.6022681,0.86376315,1.7861693,3.0433295,3.4447951968578105,3.6329522192534216,right
28/07/2020, 17:57:06,-1.2789404,-2.0333717,-1.9208057,0.86376315,1.7861693,3.0433295,3.075676116452719,3.6329522192534216,right
28/07/2020, 17:57:06,-1.2789404,-2.0333717,-1.9208057,0.84543717,1.8570297,3.1618373,3.075676116452719,3.7630491076857644,right
28/07/2020, 17:57:06,-0.7568262,-1.468147,-2.069297,0.84543717,1.8570297,3.1618373,2.6476842797596687,3.7630491076857644,right
28/07/2020, 17:57:06,-0.7568262,-1.468147,-2.069297,0.83199817,1.9669853,3.2522454,2.6476842797596687,3.890803594762495,right
28/07/2020, 17:57:06,-0.3161426,-0.7448511,-1.8561403,0.83199817,1.9669853,3.2522454,2.024847146269631,3.890803594762495,right
28/07/2020, 17:57:06,-0.3161426,-0.7448511,-1.8561403,0.85765445,2.095267,3.290119,2.024847146269631,3.9938199499932985,right
28/07/2020, 17:57:06,-0.0071850587,0.016765138,-1.8633252,0.85765445,2.095267,3.290119,1.8634145106072302,3.9938199499932985,right
28/07/2020, 17:57:06,-0.0071850587,0.016765138,-1.8633252,0.86376315,2.222327,3.3035579,1.8634145106072302,4.074103419428081,right
28/07/2020, 17:57:06,0.12454102,0.6346802,-2.1124072,0.86376315,2.222327,3.3035579,2.209206565106328,4.074103419428081,right
28/07/2020, 17:57:06,0.12454102,0.6346802,-2.1124072,0.77457684,2.388482,3.2974494,2.209206565106328,4.144633664873738,right
28/07/2020, 17:57:06,0.5245093,0.69216067,-2.560276,0.77457684,2.388482,3.2974494,2.7035550229318526,4.144633664873738,right
28/07/2020, 17:57:06,0.5245093,0.69216067,-2.560276,0.5827652,2.63405,3.3292143,2.7035550229318526,4.285032348098245,right
28/07/2020, 17:57:06,0.20118165,1.468147,-3.2452517,0.5827652,2.63405,3.3292143,3.567574539338459,4.285032348098245,right
28/07/2020, 17:57:07,4.663103,-7.790999,-3.9541774,0.8148939,-0.37751457,-2.3591607,9.903520269107872,2.5243233448660005,right
28/07/2020, 17:57:07,5.1900077,-8.353828,-4.382886,0.8148939,-0.37751457,-2.3591607,10.767187113120332,2.5243233448660005,right
28/07/2020, 17:57:07,5.1900077,-8.353828,-4.382886,1.0030403,-0.75991607,-2.3542738,10.767187113120332,2.6694882294060487,right
28/07/2020, 17:57:07,5.774392,-8.459209,-3.9445972,1.0030403,-0.75991607,-2.3542738,10.975503462402722,2.6694882294060487,right
28/07/2020, 17:57:07,5.774392,-8.459209,-3.9445972,1.4049895,-1.0494661,-2.299296,10.975503462402722,2.89173585452017,right
28/07/2020, 17:57:07,6.1623855,-8.784932,-3.8224514,1.4049895,-1.0494661,-2.299296,11.39127567893729,2.89173585452017,right
28/07/2020, 17:57:07,6.1623855,-8.784932,-3.8224514,1.8130474,-1.208291,-2.1038191,11.39127567893729,3.0287230176526614,right
28/07/2020, 17:57:07,6.799461,-8.978929,-3.4655933,1.8130474,-1.208291,-2.1038191,11.784063974013172,3.0287230176526614,right
28/07/2020, 17:57:07,6.799461,-8.978929,-3.4655933,2.1795664,-1.1972954,-1.9193379,11.784063974013172,3.1413188017069142,right
28/07/2020, 17:57:07,7.8197393,-9.189691,-3.3673975,2.1795664,-1.1972954,-1.9193379,12.5274938734312,3.1413188017069142,right
28/07/2020, 17:57:07,7.8197393,-9.189691,-3.3673975,2.5546374,-1.1618652,-1.8179343,12.5274938734312,3.3437984776837326,right
28/07/2020, 17:57:07,8.164622,-9.946517,-3.530259,2.5546374,-1.1618652,-1.8179343,13.343799515768916,3.3437984776837326,right
28/07/2020, 17:57:07,8.164622,-9.946517,-3.530259,2.7635534,-1.2742645,-1.7971649,13.343799515768916,3.53422960900816,right
28/07/2020, 17:57:07,8.646021,-10.808723,-2.9650342,2.7635534,-1.2742645,-1.7971649,14.15533849516645,3.53422960900816,right
28/07/2020, 17:57:07,8.646021,-10.808723,-2.9650342,3.040886,-1.3976592,-1.773952,14.15533849516645,3.7877888174221686,right
28/07/2020, 17:57:07,8.207732,-11.888878,-2.6393116,3.040886,-1.3976592,-1.773952,14.685988231019406,3.7877888174221686,right
28/07/2020, 17:57:07,8.207732,-11.888878,-2.6393116,3.244915,-1.4379762,-1.7311914,14.685988231019406,3.948958436693906,right
28/07/2020, 17:57:07,8.222102,-12.274476,-1.829795,3.244915,-1.4379762,-1.7311914,14.886701317041766,3.948958436693906,right
28/07/2020, 17:57:07,8.222102,-12.274476,-1.829795,3.412292,-1.2596036,-1.7519609,14.886701317041766,4.037289300896639,right
28/07/2020, 17:57:07,7.8580594,-11.311678,-0.97956306,3.412292,-1.2596036,-1.7519609,13.808066449366516,4.037289300896639,right
28/07/2020, 17:57:07,7.8580594,-11.311678,-0.97956306,3.6590815,-1.0482444,-1.7373,13.808066449366516,4.184005829268059,right
28/07/2020, 17:57:07,6.919212,-9.81958,-1.3196558,3.6590815,-1.0482444,-1.7373,12.084748119151875,4.184005829268059,right
28/07/2020, 17:57:07,6.919212,-9.81958,-1.3196558,3.8704407,-0.94928426,-1.6554441,12.084748119151875,4.315315433936635,right
28/07/2020, 17:57:07,6.7563505,-8.028106,-1.2981006,3.8704407,-0.94928426,-1.6554441,10.572786726340883,4.315315433936635,right
28/07/2020, 17:57:07,6.7563505,-8.028106,-1.2981006,4.035374,-0.99570996,-1.5491537,10.572786726340883,4.43571415958573,right
28/07/2020, 17:57:07,7.086863,-6.734795,-1.4968873,4.035374,-0.99570996,-1.5491537,9.890488581470422,4.43571415958573,right
28/07/2020, 17:57:07,7.086863,-6.734795,-1.4968873,3.9510748,-1.3121381,-1.4611892,9.890488581470422,4.412229873603465,right
28/07/2020, 17:57:07,8.0999565,-5.7719975,-1.6405884,3.9510748,-1.3121381,-1.4611892,10.080514887356312,4.412229873603465,right
28/07/2020, 17:57:07,8.0999565,-5.7719975,-1.6405884,3.5454605,-1.6224575,-1.4966192,10.080514887356312,4.176425187658236,right
28/07/2020, 17:57:07,9.043594,-5.264253,-1.4178516,3.5454605,-1.6224575,-1.4966192,10.559794654162545,4.176425187658236,right
28/07/2020, 17:57:08,5.2594633,-5.9540186,-3.3506324,1.5992446,-0.53633946,0.2553416,8.622008431374175,1.7060019398772546,right
28/07/2020, 17:57:08,5.2594633,-5.9540186,-3.3506324,1.4086547,-0.32864538,0.24434601,8.622008431374175,1.466976752118753,right
28/07/2020, 17:57:08,4.6750784,-6.349197,-3.1949563,1.4086547,-0.32864538,0.24434601,8.507432348262459,1.466976752118753,right
28/07/2020, 17:57:08,4.6750784,-6.349197,-3.1949563,1.189965,-0.123394735,0.18203777,8.507432348262459,1.2101160006083997,right
28/07/2020, 17:57:08,4.1002736,-6.600674,-2.919529,1.189965,-0.123394735,0.18203777,8.300891054036631,1.2101160006083997,right
28/07/2020, 17:57:08,4.1002736,-6.600674,-2.919529,1.0384705,0.018325951,0.10629051,8.300891054036631,1.0440567544887807,right
28/07/2020, 17:57:08,3.3530276,-6.696475,-2.5339308,1.0384705,0.018325951,0.10629051,7.906097455188595,1.0440567544887807,right
28/07/2020, 17:57:08,3.3530276,-6.696475,-2.5339308,1.0189228,0.04276055,0.10751224,7.906097455188595,1.025471126500169,right
28/07/2020, 17:57:08,2.4525,-6.847361,-2.555486,1.0189228,0.04276055,0.10751224,7.709190563382652,1.025471126500169,right
28/07/2020, 17:57:08,2.4525,-6.847361,-2.555486,1.0311401,-0.06597342,0.20525065,7.709190563382652,1.0534373286546403,right
28/07/2020, 17:57:08,1.83219,-7.110813,-2.5938063,1.0311401,-0.06597342,0.20525065,7.78770921419267,1.0534373286546403,right
28/07/2020, 17:57:08,1.83219,-7.110813,-2.5938063,1.0409139,-0.2809979,0.33231056,7.78770921419267,1.1282251357541433,right
28/07/2020, 17:57:08,1.6621436,-7.0988383,-2.4525,1.0409139,-0.2809979,0.33231056,7.692267786398148,1.1282251357541433,right
28/07/2020, 17:57:08,1.6621436,-7.0988383,-2.4525,1.0665703,-0.5290091,0.43860108,7.692267786398148,1.2687764589092012,right
28/07/2020, 17:57:08,1.7938697,-7.197034,-2.5195606,1.0665703,-0.5290091,0.43860108,7.83348267478187,1.2687764589092012,right
28/07/2020, 17:57:08,1.7938697,-7.197034,-2.5195606,1.0555748,-0.7696899,0.5290091,7.83348267478187,1.409436520794401,right
28/07/2020, 17:57:08,2.1603076,-7.2185893,-2.6704469,1.0555748,-0.7696899,0.5290091,7.994138301993327,1.409436520794401,right
28/07/2020, 17:57:08,2.1603076,-7.2185893,-2.6704469,1.0030403,-0.9676102,0.6145302,7.994138301993327,1.523156822480995,right
28/07/2020, 17:57:08,2.823728,-7.2593045,-2.7806177,1.0030403,-0.9676102,0.6145302,8.270597156857011,1.523156822480995,right
28/07/2020, 17:57:08,2.823728,-7.2593045,-2.7806177,0.96150154,-1.1105525,0.67439497,8.270597156857011,1.616360338219576,right
28/07/2020, 17:57:08,3.6883302,-7.2736745,-2.5890162,0.96150154,-1.1105525,0.67439497,8.556466847146934,1.616360338219576,right
28/07/2020, 17:57:08,3.6883302,-7.2736745,-2.5890162,0.9688319,-1.1814129,0.69272095,8.556466847146934,1.6775679067919285,right
28/07/2020, 17:57:08,4.4643164,-7.2760696,-2.4453151,0.9688319,-1.1814129,0.69272095,8.879801580310259,1.6775679067919285,right
28/07/2020, 17:57:08,4.4643164,-7.2760696,-2.4453151,0.9871579,-1.1655304,0.687834,8.879801580310259,1.6751291119500153,right
28/07/2020, 17:57:08,5.0367265,-7.391031,-2.5099807,0.9871579,-1.1655304,0.687834,9.289561491464534,1.6751291119500153,right
28/07/2020, 17:57:08,5.0367265,-7.391031,-2.5099807,0.95783633,-1.086118,0.687834,9.289561491464534,1.6031900551123597,right
28/07/2020, 17:57:08,5.381609,-7.4676714,-2.7135572,0.95783633,-1.086118,0.687834,9.59641724799761,1.6031900551123597,right
28/07/2020, 17:57:08,5.381609,-7.4676714,-2.7135572,0.8979716,-0.9810492,0.69027746,9.59641724799761,1.4984303130344625,right
28/07/2020, 17:57:08,5.5660257,-7.565867,-2.7662477,0.8979716,-0.9810492,0.69027746,9.791583719908408,1.4984303130344625,right
28/07/2020, 17:57:08,5.5660257,-7.565867,-2.7662477,0.82711124,-0.89430636,0.6963861,9.791583719908408,1.4031573245739315,right
28/07/2020, 17:57:09,2.5291407,-9.019644,3.3362625,-2.932152,1.05924,0.03176498,9.943901344535218,3.117773869367154,right
28/07/2020, 17:57:09,3.3051271,-10.418335,4.478687,-2.932152,1.05924,0.03176498,11.812036417710436,3.117773869367154,right
28/07/2020, 17:57:09,3.3051271,-10.418335,4.478687,-2.724458,1.1349872,-0.321315,11.812036417710436,2.968856787947558,right
28/07/2020, 17:57:09,0.67539555,-13.424085,3.7050953,-2.724458,1.1349872,-0.321315,13.942379255816622,2.968856787947558,right
28/07/2020, 17:57:09,0.67539555,-13.424085,3.7050953,-2.1612403,-0.9724971,-0.12705992,13.942379255816622,2.37336357269753,right
28/07/2020, 17:57:09,1.3819263,-13.6851425,2.2872438,-2.1612403,-0.9724971,-0.12705992,13.943612530626924,2.37336357269753,right
28/07/2020, 17:57:09,1.3819263,-13.6851425,2.2872438,-1.3720028,-2.4019213,0.05619958,13.943612530626924,2.7667265828312355,right
28/07/2020, 17:57:09,1.4825171,-13.622871,5.007986,-1.3720028,-2.4019213,0.05619958,14.589736345694089,2.7667265828312355,right
28/07/2020, 17:57:09,1.4825171,-13.622871,5.007986,-0.37995803,-2.4581208,0.4263838,14.589736345694089,2.523594505167095,right
28/07/2020, 17:57:09,0.64186525,-13.534256,5.5301003,-0.37995803,-2.4581208,0.4263838,14.634551096887323,2.523594505167095,right
28/07/2020, 17:57:09,0.64186525,-13.534256,5.5301003,0.719599,-0.6585125,1.1239916,14.634551096887323,1.4882266449049217,right
28/07/2020, 17:57:09,1.101709,-13.457615,3.6979103,0.719599,-0.6585125,1.1239916,13.999846504594748,1.4882266449049217,right
28/07/2020, 17:57:09,1.101709,-13.457615,3.6979103,1.2815948,-0.02809979,1.3536769,13.999846504594748,1.8643271978030904,right
28/07/2020, 17:57:09,2.1148024,-12.870835,1.7459693,1.2815948,-0.02809979,1.3536769,13.159756807568668,1.8643271978030904,right
28/07/2020, 17:57:09,2.1148024,-12.870835,1.7459693,1.2791513,-0.42394033,0.9883796,13.159756807568668,1.6711815382349775,right
28/07/2020, 17:57:09,2.9650342,-12.86365,1.9734962,1.2791513,-0.42394033,0.9883796,13.347644546299753,1.6711815382349775,right
28/07/2020, 17:57:09,2.9650342,-12.86365,1.9734962,1.2229518,-1.1007787,0.64263,13.347644546299753,1.766436545098278,right
28/07/2020, 17:57:09,3.4560134,-12.82054,3.66438,1.2229518,-1.1007787,0.64263,13.774540540377503,1.766436545098278,right
28/07/2020, 17:57:09,3.4560134,-12.82054,3.66438,1.1814129,-1.4294242,0.70738167,13.774540540377503,1.9847868381409124,right
28/07/2020, 17:57:09,4.1314087,-12.633729,3.2141163,1.1814129,-1.4294242,0.70738167,13.67516689315386,1.9847868381409124,right
28/07/2020, 17:57:09,4.1314087,-12.633729,3.2141163,0.99082303,-1.4880672,0.9700536,13.67516689315386,2.03398085866671,right
28/07/2020, 17:57:09,4.981641,-11.802657,2.6249416,0.99082303,-1.4880672,0.9700536,13.077070727843175,2.03398085866671,right
28/07/2020, 17:57:09,4.981641,-11.802657,2.6249416,0.84055024,-1.3133597,1.1337655,13.077070727843175,1.9279166549455575,right
28/07/2020, 17:57:09,5.4031644,-10.799144,2.794988,0.84055024,-1.3133597,1.1337655,12.394662136141433,1.9279166549455575,right
28/07/2020, 17:57:09,5.4031644,-10.799144,2.794988,0.8710935,-0.85643274,1.1093309,12.394662136141433,1.6501199854158823,right
28/07/2020, 17:57:09,5.484595,-10.27224,2.4692652,0.8710935,-0.85643274,1.1093309,11.903653189140107,1.6501199854158823,right
28/07/2020, 17:57:09,5.484595,-10.27224,2.4692652,0.93340176,-0.34697133,0.9969317,11.903653189140107,1.4090779668855986,right
28/07/2020, 17:57:09,4.893025,-10.303374,2.682422,0.93340176,-0.34697133,0.9969317,11.717363270904698,1.4090779668855986,right
28/07/2020, 17:57:09,4.893025,-10.303374,2.682422,0.99937516,0.21013756,0.95905805,11.717363270904698,1.4009642572942675,right
28/07/2020, 17:57:09,4.2343946,-10.497371,2.8500733,0.99937516,0.21013756,0.95905805,11.67252360325168,1.4009642572942675,right
28/07/2020, 17:57:10,-3.6452198,-2.2656887,-0.5628296,0.26755887,2.3408346,2.8087573,4.3287122425824744,3.6660894774392525,right
28/07/2020, 17:57:10,-4.119434,-1.8968556,-0.6011499,0.26755887,2.3408346,2.8087573,4.574841839061114,3.6660894774392525,right
28/07/2020, 17:57:10,-4.119434,-1.8968556,-0.6011499,0.12583819,2.4410167,2.7659967,4.574841839061114,3.6912241014920295,right
28/07/2020, 17:57:10,-4.3493557,-1.6429834,-0.88376224,0.12583819,2.4410167,2.7659967,4.732581246527912,3.6912241014920295,right
28/07/2020, 17:57:10,-4.3493557,-1.6429834,-0.88376224,-0.010995571,2.4581208,2.7623315,4.732581246527912,3.6976957851796066,right
28/07/2020, 17:57:10,-4.2799,-1.4418018,-0.7424561,-0.010995571,2.4581208,2.7623315,4.576852418785869,3.6976957851796066,right
28/07/2020, 17:57:10,-4.2799,-1.4418018,-0.7424561,-0.101403594,2.4080298,2.7843227,4.576852418785869,3.682572917670205,right
28/07/2020, 17:57:10,-3.999683,-1.5256275,-0.7232959,-0.101403594,2.4080298,2.7843227,4.341446714514528,3.682572917670205,right
28/07/2020, 17:57:10,-3.999683,-1.5256275,-0.7232959,-0.16737701,2.3848171,2.8234181,4.341446714514528,3.699602380148544,right
28/07/2020, 17:57:10,-3.803291,-1.4944923,-0.7113208,-0.16737701,2.3848171,2.8234181,4.147831671458045,3.699602380148544,right
28/07/2020, 17:57:10,-3.803291,-1.4944923,-0.7113208,-0.20036373,2.4068081,2.8564048,4.147831671458045,3.740577403285196,right
28/07/2020, 17:57:10,-3.4967287,-1.5376027,-1.1256592,-0.20036373,2.4068081,2.8564048,3.9822659326018455,3.740577403285196,right
28/07/2020, 17:57:10,-3.4967287,-1.5376027,-1.1256592,-0.23212871,2.4568992,2.886948,3.9822659326018455,3.797987181704123,right
28/07/2020, 17:57:10,-3.1183155,-1.5328126,-1.8226099,-0.23212871,2.4568992,2.886948,3.923686098907482,3.797987181704123,right
28/07/2020, 17:57:10,-3.1183155,-1.5328126,-1.8226099,-0.24923292,2.4874423,2.9223783,3.923686098907482,3.845748426154355,right
28/07/2020, 17:57:10,-2.7901978,-1.453777,-2.4764502,-0.24923292,2.4874423,2.9223783,4.0039327032102054,3.845748426154355,right
28/07/2020, 17:57:10,-2.7901978,-1.453777,-2.4764502,-0.25045466,2.4813337,2.9932384,4.0039327032102054,3.896051981756506,right
28/07/2020, 17:57:10,-2.4860303,-1.1136842,-3.2428565,-0.25045466,2.4813337,2.9932384,4.235180940098907,3.896051981756506,right
28/07/2020, 17:57:10,-2.4860303,-1.1136842,-3.2428565,-0.24678947,2.4459035,3.099529,4.235180940098907,3.9560623558032293,right
28/07/2020, 17:57:10,-2.0213966,-0.52690434,-4.2032595,-0.24678947,2.4459035,3.099529,4.693725887632579,3.9560623558032293,right
28/07/2020, 17:57:10,-2.0213966,-0.52690434,-4.2032595,-0.22357659,2.3774867,3.2058196,4.693725887632579,3.997462805226035,right
28/07/2020, 17:57:10,-1.3795313,0.21315674,-5.46304,-0.22357659,2.3774867,3.2058196,5.638558945620641,3.997462805226035,right
28/07/2020, 17:57:10,-1.3795313,0.21315674,-5.46304,-0.21868968,2.302961,3.2730148,5.638558945620641,4.008002099629957,right
28/07/2020, 17:57:10,-0.5676197,1.101709,-6.7731156,-0.21868968,2.302961,3.2730148,6.885568258715112,4.008002099629957,right
28/07/2020, 17:57:10,-0.5676197,1.101709,-6.7731156,-0.23579389,2.254092,3.2473583,6.885568258715112,3.960033519541852,right
28/07/2020, 17:57:10,0.51971924,1.5376027,-7.726333,-0.23579389,2.254092,3.2473583,7.894970161549107,3.960033519541852,right
28/07/2020, 17:57:10,0.51971924,1.5376027,-7.726333,-0.37995803,2.371378,3.1740546,7.894970161549107,3.980254289943361,right
28/07/2020, 17:57:10,0.69695073,1.6501685,-7.2760696,-0.37995803,2.371378,3.1740546,7.493329430339742,3.980254289943361,right
28/07/2020, 17:57:10,0.69695073,1.6501685,-7.2760696,-0.33964095,2.6755888,3.1056378,7.493329430339742,4.113285514117821,right
28/07/2020, 17:57:10,0.5676197,2.794988,-4.6894484,-0.33964095,2.6755888,3.1056378,5.488631473147632,4.113285514117821,right
28/07/2020, 17:57:11,6.07856,-7.3527102,-5.5157304,-2.2516484,0.30298904,-2.1294754,11.019733198804701,3.1139024195671667,right
28/07/2020, 17:57:11,4.8187795,-6.0498195,-6.485713,-2.2516484,0.30298904,-2.1294754,10.09383100529369,3.1139024195671667,right
28/07/2020, 17:57:11,4.8187795,-6.0498195,-6.485713,-1.8032736,-0.33841923,-1.9315552,10.09383100529369,2.6640623878966916,right
28/07/2020, 17:57:11,6.3899126,-4.8523097,-7.4892263,-1.8032736,-0.33841923,-1.9315552,10.975627715783613,2.6640623878966916,right
28/07/2020, 17:57:11,6.3899126,-4.8523097,-7.4892263,-1.2779297,-0.3995057,-2.0586152,10.975627715783613,2.455729139493464,right
28/07/2020, 17:57:11,7.8700347,-4.8379397,-8.363408,-1.2779297,-0.3995057,-2.0586152,12.461528873841933,2.455729139493464,right
28/07/2020, 17:57:11,7.8700347,-4.8379397,-8.363408,-0.81122875,-0.00855211,-2.204001,12.461528873841933,2.3485709301311357,right
28/07/2020, 17:57:11,8.0999565,-5.846243,-9.15616,-0.81122875,-0.00855211,-2.204001,13.550761013438821,2.3485709301311357,right
28/07/2020, 17:57:11,8.0999565,-5.846243,-9.15616,-0.5436699,0.29810214,-2.063502,13.550761013438821,2.154642111905631,right
28/07/2020, 17:57:11,7.510782,-6.2845316,-9.800421,-0.5436699,0.29810214,-2.063502,13.854797983494905,2.154642111905631,right
28/07/2020, 17:57:11,7.510782,-6.2845316,-9.800421,-0.33597577,0.38362324,-1.8350385,13.854797983494905,1.9045768456334848,right
28/07/2020, 17:57:11,7.0054326,-5.654641,-9.587264,-0.33597577,0.38362324,-1.8350385,13.151679920066652,1.9045768456334848,right
28/07/2020, 17:57:11,7.0054326,-5.654641,-9.587264,-0.05375612,0.28466308,-1.7544043,13.151679920066652,1.7781612021243864,right
28/07/2020, 17:57:11,6.974297,-5.585186,-9.5561285,-0.05375612,0.28466308,-1.7544043,13.082611128752381,1.7781612021243864,right
28/07/2020, 17:57:11,6.974297,-5.585186,-9.5561285,0.16615528,0.19792026,-1.8252647,13.082611128752381,1.843467169234953,right
28/07/2020, 17:57:11,6.4138627,-5.726492,-9.460327,0.16615528,0.19792026,-1.8252647,12.783901374760923,1.843467169234953,right
28/07/2020, 17:57:11,6.4138627,-5.726492,-9.460327,0.48747027,0.06230823,-1.9291117,12.783901374760923,1.9907238893707926,right
28/07/2020, 17:57:11,6.090535,-5.934859,-8.686736,0.48747027,0.06230823,-1.9291117,12.156337924586236,1.9907238893707926,right
28/07/2020, 17:57:11,6.090535,-5.934859,-8.686736,1.0690137,-0.11362089,-1.9816461,12.156337924586236,2.2544669304294525,right
28/07/2020, 17:57:11,6.183941,-6.236631,-7.932305,1.0690137,-0.11362089,-1.9816461,11.83461661685751,2.2544669304294525,right
28/07/2020, 17:57:11,6.183941,-6.236631,-7.932305,1.8093822,-0.27122405,-1.9645419,11.83461661685751,2.684557944446695,right
28/07/2020, 17:57:11,6.3084817,-6.7850904,-7.189849,1.8093822,-0.27122405,-1.9645419,11.727246942213352,2.684557944446695,right
28/07/2020, 17:57:11,6.3084817,-6.7850904,-7.189849,2.5216508,-0.43737936,-1.8594731,11.727246942213352,3.1634891593513834,right
28/07/2020, 17:57:11,6.1384354,-7.158714,-6.5264287,2.5216508,-0.43737936,-1.8594731,11.468297336875851,3.1634891593513834,right
28/07/2020, 17:57:11,6.1384354,-7.158714,-6.5264287,3.0848684,-0.59986943,-1.6945395,11.468297336875851,3.5703950546828924,right
28/07/2020, 17:57:11,6.2941117,-7.4772515,-6.0761647,3.0848684,-0.59986943,-1.6945395,11.50847125492871,3.5703950546828924,right
28/07/2020, 17:57:11,6.2941117,-7.4772515,-6.0761647,3.4636047,-0.7134903,-1.5479319,11.50847125492871,3.8602744791649974,right
28/07/2020, 17:57:11,6.440208,-6.7731156,-6.471343,3.4636047,-0.7134903,-1.5479319,11.367922180262495,3.8602744791649974,right
28/07/2020, 17:57:11,6.440208,-6.7731156,-6.471343,3.7543764,-0.7342597,-1.3988808,11.367922180262495,4.073247744079795,right
28/07/2020, 17:57:11,6.6437845,-5.611531,-6.4138627,3.7543764,-0.7342597,-1.3988808,10.805868095322964,4.073247744079795,right
28/07/2020, 17:57:12,8.138277,-4.567302,-5.886958,2.2479832,-1.569923,0.1747074,11.033951194882757,2.7474733086188565,right
28/07/2020, 17:57:12,7.683223,-4.7708793,-5.6426663,2.2479832,-1.569923,0.1747074,10.659872633536105,2.7474733086188565,right
28/07/2020, 17:57:12,7.683223,-4.7708793,-5.6426663,1.6578877,-1.4624108,0.3824015,10.659872633536105,2.243539144093706,right
28/07/2020, 17:57:12,7.074888,-4.84752,-5.367239,1.6578877,-1.4624108,0.3824015,10.117299385633697,2.243539144093706,right
28/07/2020, 17:57:12,7.074888,-4.84752,-5.367239,1.0934484,-1.375668,0.50701797,10.117299385633697,1.8289776398825128,right
28/07/2020, 17:57:12,6.8689165,-5.240303,-5.151687,1.0934484,-1.375668,0.50701797,10.058959709191239,1.8289776398825128,right
28/07/2020, 17:57:12,6.8689165,-5.240303,-5.151687,0.64263,-1.2779297,0.52045697,10.058959709191239,1.5221540576232677,right
28/07/2020, 17:57:12,6.559959,-5.8198977,-4.6104126,0.64263,-1.2779297,0.52045697,9.9075816535934,1.5221540576232677,right
28/07/2020, 17:57:12,6.559959,-5.8198977,-4.6104126,0.32864538,-1.1459827,0.50579625,9.9075816535934,1.2950343936053952,right
28/07/2020, 17:57:12,6.4210477,-6.591094,-4.3134303,0.32864538,-1.1459827,0.50579625,10.162581108163632,1.2950343936053952,right
28/07/2020, 17:57:12,6.4210477,-6.591094,-4.3134303,0.12095127,-1.0238098,0.53633946,10.162581108163632,1.1620997013896373,right
28/07/2020, 17:57:12,5.9396486,-7.0198026,-4.3301954,0.12095127,-1.0238098,0.53633946,10.164036913991742,1.1620997013896373,right
28/07/2020, 17:57:12,5.9396486,-7.0198026,-4.3301954,0.0,-0.94561905,0.59131736,10.164036913991742,1.1152809495960283,right
28/07/2020, 17:57:12,5.4822,-7.359895,-4.4188113,0.0,-0.94561905,0.59131736,10.185699274840516,1.1152809495960283,right
28/07/2020, 17:57:12,5.4822,-7.359895,-4.4188113,-0.05619958,-0.87353694,0.6670646,10.185699274840516,1.100545490271561,right
28/07/2020, 17:57:12,5.125342,-7.7167535,-4.4619217,-0.05619958,-0.87353694,0.6670646,10.282322646735379,1.100545490271561,right
28/07/2020, 17:57:12,5.125342,-7.7167535,-4.4619217,-0.074525535,-0.81245047,0.7367032,10.282322646735379,1.0992549518632293,right
28/07/2020, 17:57:12,4.998406,-8.042476,-4.608018,-0.074525535,-0.81245047,0.7367032,10.5308739632763,1.0992549518632293,right
28/07/2020, 17:57:12,4.998406,-8.042476,-4.608018,-0.122173004,-0.7819072,0.7501422,10.5308739632763,1.0904212299855622,right
28/07/2020, 17:57:12,4.790039,-8.056846,-4.3325906,-0.122173004,-0.7819072,0.7501422,10.326111437677762,1.0904212299855622,right
28/07/2020, 17:57:12,4.790039,-8.056846,-4.3325906,-0.080634184,-0.8014549,0.7171555,10.326111437677762,1.0784914767632343,right
28/07/2020, 17:57:12,4.277505,-7.9562554,-3.7266505,-0.080634184,-0.8014549,0.7171555,9.771743584667071,1.0784914767632343,right
28/07/2020, 17:57:12,4.277505,-7.9562554,-3.7266505,0.06230823,-0.7892376,0.7122686,9.771743584667071,1.0649436038853661,right
28/07/2020, 17:57:12,3.7601807,-7.9969707,-3.642825,0.06230823,-0.7892376,0.7122686,9.558277657861513,1.0649436038853661,right
28/07/2020, 17:57:12,3.7601807,-7.9969707,-3.642825,0.23212871,-0.70860344,0.7611378,9.558277657861513,1.0655202020248915,right
28/07/2020, 17:57:12,3.4871485,-7.8365045,-3.7506008,0.23212871,-0.70860344,0.7611378,9.361517688804032,1.0655202020248915,right
28/07/2020, 17:57:12,3.4871485,-7.8365045,-3.7506008,0.398284,-0.55588716,0.8014549,9.361517688804032,1.0535514379355368,right
28/07/2020, 17:57:12,3.2572267,-7.462881,-3.7577858,0.398284,-0.55588716,0.8014549,8.968002790245299,1.0535514379355368,right
28/07/2020, 17:57:12,3.2572267,-7.462881,-3.7577858,0.5986477,-0.38728842,0.8222243,8.968002790245299,1.0883125640827975,right
28/07/2020, 17:57:12,2.7159522,-7.101233,-3.8679566,0.5986477,-0.38728842,0.8222243,8.53024002471166,1.0883125640827975,right
28/07/2020, 17:57:13,1.7244141,-10.830278,1.5280225,0.23701562,0.43371415,0.095294945,11.072641374872731,0.5033542447473256,right
28/07/2020, 17:57:13,1.3819263,-10.523716,1.8250049,0.23701562,0.43371415,0.095294945,10.76981713797936,0.5033542447473256,right
28/07/2020, 17:57:13,1.3819263,-10.523716,1.8250049,0.37629285,0.3335323,0.10506878,10.76981713797936,0.5136920853403211,right
28/07/2020, 17:57:13,1.2022998,-10.142908,2.1076174,0.37629285,0.3335323,0.10506878,10.429101617706428,0.5136920853403211,right
28/07/2020, 17:57:13,1.2022998,-10.142908,2.1076174,0.46670088,0.1869247,0.080634184,10.429101617706428,0.5091683676540136,right
28/07/2020, 17:57:13,1.0562036,-9.726174,2.3590944,0.46670088,0.1869247,0.080634184,10.063764699542899,0.5091683676540136,right
28/07/2020, 17:57:13,1.0562036,-9.726174,2.3590944,0.4960224,0.029321522,0.058643043,10.063764699542899,0.500336869156778,right
28/07/2020, 17:57:13,0.8861573,-9.388477,2.1770728,0.4960224,0.029321522,0.058643043,9.678245038348406,0.500336869156778,right
28/07/2020, 17:57:13,0.8861573,-9.388477,2.1770728,0.42516205,-0.07941245,0.05253439,9.678245038348406,0.43569366091868195,right
28/07/2020, 17:57:13,0.67539555,-9.275911,1.8824854,0.42516205,-0.07941245,0.05253439,9.489069575730037,0.43569366091868195,right
28/07/2020, 17:57:13,0.67539555,-9.275911,1.8824854,0.28588483,-0.11850781,0.080634184,9.489069575730037,0.3198063589082932,right
28/07/2020, 17:57:13,0.5843848,-9.364527,1.8250049,0.28588483,-0.11850781,0.080634184,9.558583045272101,0.3198063589082932,right
28/07/2020, 17:57:13,0.5843848,-9.364527,1.8250049,0.123394735,-0.09162975,0.122173004,9.558583045272101,0.1963377569600404,right
28/07/2020, 17:57:13,0.5724097,-9.733359,1.4753321,0.123394735,-0.09162975,0.122173004,9.861163306572523,0.1963377569600404,right
28/07/2020, 17:57:13,0.5724097,-9.733359,1.4753321,-0.05375612,-0.0244346,0.16982047,9.861163306572523,0.1797936683966024,right
28/07/2020, 17:57:13,0.7161109,-10.174044,1.4082716,-0.05375612,-0.0244346,0.16982047,10.295980179829533,0.1797936683966024,right
28/07/2020, 17:57:13,0.7161109,-10.174044,1.4082716,-0.15393798,0.05742131,0.22235486,10.295980179829533,0.2764702375725729,right
28/07/2020, 17:57:13,0.7448511,-10.600357,1.6525636,-0.15393798,0.05742131,0.22235486,10.75422425126188,0.2764702375725729,right
28/07/2020, 17:57:13,0.7448511,-10.600357,1.6525636,-0.13683376,0.12583819,0.23823735,10.75422425126188,0.30218498099382096,right
28/07/2020, 17:57:13,0.8334668,-10.775193,1.4801221,-0.13683376,0.12583819,0.23823735,10.90826370971359,0.30218498099382096,right
28/07/2020, 17:57:13,0.8334668,-10.775193,1.4801221,-0.07819072,0.117286086,0.19425507,10.90826370971359,0.24001009712312102,right
28/07/2020, 17:57:13,0.8143067,-10.837463,1.3172607,-0.07819072,0.117286086,0.19425507,10.947551494067163,0.24001009712312102,right
28/07/2020, 17:57:13,0.8143067,-10.837463,1.3172607,0.05742131,0.01954768,0.16982047,10.947551494067163,0.18032834431577985,right
28/07/2020, 17:57:13,0.8167017,-10.688972,1.4825171,0.05742131,0.01954768,0.16982047,10.822152800426172,0.18032834431577985,right
28/07/2020, 17:57:13,0.8167017,-10.688972,1.4825171,0.29199347,-0.13805549,0.199142,10.822152800426172,0.37944306246927756,right
28/07/2020, 17:57:13,0.98195803,-10.466236,1.5567628,0.29199347,-0.13805549,0.199142,10.62684574279279,0.37944306246927756,right
28/07/2020, 17:57:13,0.98195803,-10.466236,1.5567628,0.5619958,-0.31642807,0.24190255,10.62684574279279,0.6888271524080295,right
28/07/2020, 17:57:13,1.1999048,-10.159674,1.456172,0.5619958,-0.31642807,0.24190255,10.33340108067296,0.6888271524080295,right
28/07/2020, 17:57:13,1.1999048,-10.159674,1.456172,0.8222243,-0.49846584,0.27733272,10.33340108067296,1.0007169728528904,right
28/07/2020, 17:57:13,1.5687379,-9.905801,1.1328443,0.8222243,-0.49846584,0.27733272,10.09302554413394,1.0007169728528904,right
28/07/2020, 17:57:14,-3.3147073,-5.647456,-0.40715334,0.17837258,1.5870273,2.846631,6.561007496554611,3.264012989941559,right
28/07/2020, 17:57:14,-3.300337,-5.518125,-0.25387207,0.17837258,1.5870273,2.846631,6.434778938693127,3.264012989941559,right
28/07/2020, 17:57:14,-3.300337,-5.518125,-0.25387207,0.27488926,1.5723666,2.9199347,6.434778938693127,3.327749954159894,right
28/07/2020, 17:57:14,-3.175796,-5.1876125,-0.43349856,0.27488926,1.5723666,2.9199347,6.097944345246818,3.327749954159894,right
28/07/2020, 17:57:14,-3.175796,-5.1876125,-0.43349856,0.33964095,1.5259408,2.968804,6.097944345246818,3.355241826821807,right
28/07/2020, 17:57:14,-2.9841945,-4.782854,-0.45026368,0.33964095,1.5259408,2.968804,5.655426372011343,3.355241826821807,right
28/07/2020, 17:57:14,-2.9841945,-4.782854,-0.45026368,0.37262765,1.470963,2.982243,5.655426372011343,3.346095812837308,right
28/07/2020, 17:57:14,-2.9530592,-4.4619217,-0.71371585,0.37262765,1.470963,2.982243,5.398026872744759,3.346095812837308,right
28/07/2020, 17:57:14,-2.9530592,-4.4619217,-0.71371585,0.3090977,1.4807367,2.9834647,5.398026872744759,3.3450238244756845,right
28/07/2020, 17:57:14,-3.0416749,-3.9901028,-0.8382569,0.3090977,1.4807367,2.9834647,5.08678490101837,3.3450238244756845,right
28/07/2020, 17:57:14,-3.0416749,-3.9901028,-0.8382569,0.22479832,1.5589275,2.968804,5.08678490101837,3.360741858774129,right
28/07/2020, 17:57:14,-3.2284865,-3.4368532,-0.85741705,0.22479832,1.5589275,2.968804,4.792728766892332,3.360741858774129,right
28/07/2020, 17:57:14,-3.2284865,-3.4368532,-0.85741705,0.16615528,1.6615528,2.940704,4.792728766892332,3.3817311966871624,right
28/07/2020, 17:57:14,-3.5901344,-2.8931837,-0.847837,0.16615528,1.6615528,2.940704,4.688113093965876,3.3817311966871624,right
28/07/2020, 17:57:14,-3.5901344,-2.8931837,-0.847837,0.12950338,1.7385218,2.918713,4.688113093965876,3.3997228333484633,right
28/07/2020, 17:57:14,-3.9302273,-2.4932153,-1.2454102,0.12950338,1.7385218,2.918713,4.818075932381256,3.3997228333484633,right
28/07/2020, 17:57:14,-3.9302273,-2.4932153,-1.2454102,0.08429937,1.7702868,2.8942785,4.818075932381256,3.3937987448566926,right
28/07/2020, 17:57:14,-3.887117,-2.076482,-1.5687379,0.08429937,1.7702868,2.8942785,4.677862127869804,3.3937987448566926,right
28/07/2020, 17:57:14,-3.887117,-2.076482,-1.5687379,0.05619958,1.7959431,2.7672186,4.677862127869804,3.299404322317231,right
28/07/2020, 17:57:14,-2.3854396,-1.9255958,-1.9184108,0.05619958,1.7959431,2.7672186,3.6164265780714753,3.299404322317231,right
28/07/2020, 17:57:14,-2.3854396,-1.9255958,-1.9184108,-0.06841688,2.004859,2.6352715,3.6164265780714753,3.311917344921638,right
28/07/2020, 17:57:14,-3.527864,-1.7938697,-2.2800586,-0.06841688,2.004859,2.6352715,4.567544219819021,3.311917344921638,right
28/07/2020, 17:57:14,-3.527864,-1.7938697,-2.2800586,-0.199142,2.2064445,2.6083937,4.567544219819021,3.4222466899440893,right
28/07/2020, 17:57:14,-3.8416114,-1.6453785,-2.2752686,-0.199142,2.2064445,2.6083937,4.75837108083113,3.4222466899440893,right
28/07/2020, 17:57:14,-3.8416114,-1.6453785,-2.2752686,-0.24190255,2.4092517,2.6597064,4.75837108083113,3.5968108703295654,right
28/07/2020, 17:57:14,-3.6284547,-1.5687379,-2.2465284,-0.24190255,2.4092517,2.6597064,4.54681335487165,3.5968108703295654,right
28/07/2020, 17:57:14,-3.6284547,-1.5687379,-2.2465284,-0.26022848,2.63405,2.7525578,4.54681335487165,3.818705525708113,right
28/07/2020, 17:57:14,-4.3469605,-1.4753321,-2.6512868,-0.26022848,2.63405,2.7525578,5.301131276672205,3.818705525708113,right
28/07/2020, 17:57:14,-4.3469605,-1.4753321,-2.6512868,-0.20036373,2.787988,2.8698437,5.301131276672205,4.00612348822031,right
28/07/2020, 17:57:14,-3.8655617,-1.3867164,-2.8788135,-0.20036373,2.787988,2.8698437,5.015288318390756,4.00612348822031,right
28/07/2020, 17:57:15,0.72569096,-17.078884,-7.082073,5.231448,-1.1862998,-1.3781115,18.503261098871175,5.5384608390516465,right
28/07/2020, 17:57:15,0.50534916,-20.824696,-9.83874,5.231448,-1.1862998,-1.3781115,23.037450720988424,5.5384608390516465,right
28/07/2020, 17:57:15,0.50534916,-20.824696,-9.83874,2.60595,-1.497841,-1.131322,23.037450720988424,3.211602902431426,right
28/07/2020, 17:57:15,0.1820215,-19.859503,-6.6509695,2.60595,-1.497841,-1.131322,20.944411625687582,3.211602902431426,right
28/07/2020, 17:57:15,0.1820215,-19.859503,-6.6509695,1.3121381,-1.8570297,-0.63896483,20.944411625687582,2.3618936508733928,right
28/07/2020, 17:57:15,1.3076807,-15.479012,-0.9196875,1.3121381,-1.8570297,-0.63896483,15.561351230439486,2.3618936508733928,right
28/07/2020, 17:57:15,1.3076807,-15.479012,-0.9196875,1.9645419,-2.4287994,-0.22724178,15.561351230439486,3.1321127427947957,right
28/07/2020, 17:57:15,2.2537134,-12.303216,0.23710695,1.9645419,-2.4287994,-0.22724178,12.510178540698194,3.1321127427947957,right
28/07/2020, 17:57:15,2.2537134,-12.303216,0.23710695,2.8564048,-3.1691678,-0.07086034,12.510178540698194,4.267047425919995,right
28/07/2020, 17:57:15,3.5134938,-10.535691,-0.31135255,2.8564048,-3.1691678,-0.07086034,11.110462154226859,4.267047425919995,right
28/07/2020, 17:57:15,3.5134938,-10.535691,-0.31135255,3.0653207,-3.6444206,0.04520401,11.110462154226859,4.7623561673384485,right
28/07/2020, 17:57:15,5.3121533,-8.729847,0.32572266,3.0653207,-3.6444206,0.04520401,10.224250398033064,4.7623561673384485,right
28/07/2020, 17:57:15,5.3121533,-8.729847,0.32572266,2.8906133,-3.7531548,0.080634184,10.224250398033064,4.737965579779352,right
28/07/2020, 17:57:15,7.2521195,-7.2593045,2.0381618,2.8906133,-3.7531548,0.080634184,10.461588949188572,4.737965579779352,right
28/07/2020, 17:57:15,7.2521195,-7.2593045,2.0381618,2.6621497,-3.497813,0.09407321,10.461588949188572,4.3966562647786525,right
28/07/2020, 17:57:15,8.780142,-7.2928348,3.8152664,2.6621497,-3.497813,0.09407321,12.034641118921204,4.3966562647786525,right
28/07/2020, 17:57:15,8.780142,-7.2928348,3.8152664,2.2797482,-3.0384426,0.2553416,12.034641118921204,3.8071754219518197,right
28/07/2020, 17:57:15,9.172925,-8.308323,4.749324,2.2797482,-3.0384426,0.2553416,13.25620079336637,3.8071754219518197,right
28/07/2020, 17:57:15,9.172925,-8.308323,4.749324,1.7067568,-2.5399768,0.5106832,13.25620079336637,3.1024665204174515,right
28/07/2020, 17:57:15,9.970467,-9.326206,4.90979,1.7067568,-2.5399768,0.5106832,14.5084239304134,3.1024665204174515,right
28/07/2020, 17:57:15,9.970467,-9.326206,4.90979,1.1410959,-1.9816461,0.5766566,14.5084239304134,2.3582946639224147,right
28/07/2020, 17:57:15,10.645863,-9.393267,4.749324,1.1410959,-1.9816461,0.5766566,14.970769049166076,2.3582946639224147,right
28/07/2020, 17:57:15,10.645863,-9.393267,4.749324,0.9053019,-1.4220937,0.321315,14.970769049166076,1.716148459776195,right
28/07/2020, 17:57:15,9.616004,-9.026829,3.7625759,0.9053019,-1.4220937,0.321315,13.715252365365592,1.716148459776195,right
28/07/2020, 17:57:15,9.616004,-9.026829,3.7625759,0.9040802,-0.94928426,-0.0244346,13.715252365365592,1.3111440337992957,right
28/07/2020, 17:57:15,7.685618,-7.7790236,2.8692336,0.9040802,-0.94928426,-0.0244346,11.305504556353549,1.3111440337992957,right
28/07/2020, 17:57:15,7.685618,-7.7790236,2.8692336,0.963945,-0.72570765,-0.30298904,11.305504556353549,1.2440433503609238,right
28/07/2020, 17:57:15,5.319339,-5.7839723,1.5735279,0.963945,-0.72570765,-0.30298904,8.014093245640693,1.2440433503609238,right
28/07/2020, 17:57:15,5.319339,-5.7839723,1.5735279,0.9224062,-0.9309583,-0.40194917,8.014093245640693,1.3707952534797274,right
28/07/2020, 17:57:15,2.7087672,-3.9326222,-0.28261232,0.9224062,-0.9309583,-0.40194917,4.783597669179174,1.3707952534797274,right
28/07/2020, 17:57:16,7.6520877,-7.3838453,-3.396138,1.3463465,-1.4819585,0.49724412,11.162856750534162,2.063032143917724,right
28/07/2020, 17:57:16,7.556287,-7.553892,-3.2404616,1.3463465,-1.4819585,0.49724412,11.165095077154158,2.063032143917724,right
28/07/2020, 17:57:16,7.556287,-7.553892,-3.2404616,1.3365726,-1.670105,0.47280952,11.165095077154158,2.1907135668802407,right
28/07/2020, 17:57:16,7.3383403,-7.688013,-2.7686427,1.3365726,-1.670105,0.47280952,10.982812270558687,2.1907135668802407,right
28/07/2020, 17:57:16,7.3383403,-7.688013,-2.7686427,1.5076149,-1.8032736,0.5106832,10.982812270558687,2.405305671919585,right
28/07/2020, 17:57:16,7.5012016,-8.157437,-2.574646,1.5076149,-1.8032736,0.5106832,11.37719700089752,2.405305671919585,right
28/07/2020, 17:57:16,7.5012016,-8.157437,-2.574646,1.5943577,-1.7971649,0.5644393,11.37719700089752,2.467867505852077,right
28/07/2020, 17:57:16,8.054451,-8.533455,-2.3830445,1.5943577,-1.7971649,0.5644393,11.973843751092222,2.467867505852077,right
28/07/2020, 17:57:16,8.054451,-8.533455,-2.3830445,1.5479319,-1.7177525,0.5412264,11.973843751092222,2.374803718421251,right
28/07/2020, 17:57:16,8.562195,-8.267608,-1.8753004,1.5479319,-1.7177525,0.5412264,12.049119001965687,2.374803718421251,right
28/07/2020, 17:57:16,8.562195,-8.267608,-1.8753004,1.534493,-1.6591094,0.42027512,12.049119001965687,2.298683036042487,right
28/07/2020, 17:57:16,8.885523,-7.414981,-1.710044,1.534493,-1.6591094,0.42027512,11.698662672712818,2.298683036042487,right
28/07/2020, 17:57:16,8.885523,-7.414981,-1.710044,1.5833621,-1.6126837,0.29077175,11.698662672712818,2.2786689814677406,right
28/07/2020, 17:57:16,9.0076685,-6.75156,-1.9088306,1.5833621,-1.6126837,0.29077175,11.417762102388918,2.2786689814677406,right
28/07/2020, 17:57:16,9.0076685,-6.75156,-1.9088306,1.6358964,-1.5369364,0.24312428,11.417762102388918,2.2577511145152536,right
28/07/2020, 17:57:16,9.036409,-6.622229,-2.1627028,1.6358964,-1.5369364,0.24312428,11.409991064288082,2.2577511145152536,right
28/07/2020, 17:57:16,9.036409,-6.622229,-2.1627028,1.6615528,-1.4159851,0.2553416,11.409991064288082,2.197946954582089,right
28/07/2020, 17:57:16,8.851993,-6.310877,-2.3614893,1.6615528,-1.4159851,0.2553416,11.12481781337184,2.197946954582089,right
28/07/2020, 17:57:16,8.851993,-6.310877,-2.3614893,1.7299697,-1.2889252,0.29199347,11.12481781337184,2.177012536282703,right
28/07/2020, 17:57:16,8.669971,-6.1216702,-2.4644752,1.7299697,-1.2889252,0.29199347,10.895728044222631,2.177012536282703,right
28/07/2020, 17:57:16,8.669971,-6.1216702,-2.4644752,1.7996083,-1.1765261,0.30665424,10.895728044222631,2.1718288677942037,right
28/07/2020, 17:57:16,8.480764,-6.2893214,-2.7327175,1.7996083,-1.1765261,0.30665424,10.906267628771623,2.1718288677942037,right
28/07/2020, 17:57:16,8.480764,-6.2893214,-2.7327175,1.8680252,-1.0751225,0.29443693,10.906267628771623,2.175338946266085,right
28/07/2020, 17:57:16,8.073611,-6.967112,-2.6584718,1.8680252,-1.0751225,0.29443693,10.990510530387315,2.175338946266085,right
28/07/2020, 17:57:16,8.073611,-6.967112,-2.6584718,1.9828678,-0.99937516,0.2797762,10.990510530387315,2.238032683490105,right
28/07/2020, 17:57:16,7.8197393,-7.831714,-2.4692652,1.9828678,-0.99937516,0.2797762,11.339371265234377,2.238032683490105,right
28/07/2020, 17:57:16,7.8197393,-7.831714,-2.4692652,2.2504268,-0.9150758,0.2480112,11.339371265234377,2.441985643110361,right
28/07/2020, 17:57:16,7.453301,-8.471185,-2.5818312,2.2504268,-0.9150758,0.2480112,11.574908995993717,2.441985643110361,right
28/07/2020, 17:57:16,7.453301,-8.471185,-2.5818312,2.565633,-0.8881977,0.2480112,11.574908995993717,2.7263304526683365,right
28/07/2020, 17:57:16,6.952742,-8.720266,-2.6967921,2.565633,-0.8881977,0.2480112,11.474160341973288,2.7263304526683365,right
28/07/2020, 17:57:17,0.33530274,-10.171648,1.81782,-1.1862998,0.76235956,0.44226626,10.338245540902463,1.4778696682807833,right
28/07/2020, 17:57:17,0.33530274,-10.171648,1.81782,-1.2596036,0.5400047,0.35430172,10.338245540902463,1.415533832920199,right
28/07/2020, 17:57:17,0.2945874,-10.95961,1.5543678,-1.2596036,0.5400047,0.35430172,11.073206038314856,1.415533832920199,right
28/07/2020, 17:57:17,0.2945874,-10.95961,1.5543678,-1.0812311,0.33719748,0.3249802,11.073206038314856,1.1782932576951752,right
28/07/2020, 17:57:17,0.40715334,-12.022999,1.4274317,-1.0812311,0.33719748,0.3249802,12.114282293525655,1.1782932576951752,right
28/07/2020, 17:57:17,0.40715334,-12.022999,1.4274317,-0.62186056,0.22724178,0.42027512,12.114282293525655,0.7842069672045053,right
28/07/2020, 17:57:17,0.96040285,-13.095967,1.4034815,-0.62186056,0.22724178,0.42027512,13.205926443660662,0.7842069672045053,right
28/07/2020, 17:57:17,0.96040285,-13.095967,1.4034815,-0.0122173,0.2809979,0.44593146,13.205926443660662,0.5272228697685879,right
28/07/2020, 17:57:17,1.4753321,-13.618082,0.8669971,-0.0122173,0.2809979,0.44593146,13.725175684207695,0.5272228697685879,right
28/07/2020, 17:57:17,1.4753321,-13.618082,0.8669971,0.6988296,0.3176498,0.2553416,13.725175684207695,0.8089892012219944,right
28/07/2020, 17:57:17,1.1951149,-14.489869,0.61073,0.6988296,0.3176498,0.2553416,14.551893267881784,0.8089892012219944,right
28/07/2020, 17:57:17,1.1951149,-14.489869,0.61073,1.5479319,0.03176498,0.19058989,14.551893267881784,1.55994445950611,right
28/07/2020, 17:57:17,2.090852,-12.954661,-0.81191164,1.5479319,0.03176498,0.19058989,13.147399510465018,1.55994445950611,right
28/07/2020, 17:57:17,2.090852,-12.954661,-0.81191164,1.9816461,-0.46670088,0.55100024,13.147399510465018,2.1091069402800615,right
28/07/2020, 17:57:17,2.7111623,-11.060201,-1.6884888,1.9816461,-0.46670088,0.55100024,11.512142939921189,2.1091069402800615,right
28/07/2020, 17:57:17,2.7111623,-11.060201,-1.6884888,1.7849475,-0.7293728,0.9358452,11.512142939921189,2.143321847385356,right
28/07/2020, 17:57:17,3.908672,-9.072334,-0.8286768,1.7849475,-0.7293728,0.9358452,9.913206962136268,2.143321847385356,right
28/07/2020, 17:57:17,3.908672,-9.072334,-0.8286768,1.4367545,-0.46670088,0.89552814,9.913206962136268,1.7561445701807175,right
28/07/2020, 17:57:17,4.368516,-8.040081,-0.043110352,1.4367545,-0.46670088,0.89552814,9.150338416865168,1.7561445701807175,right
28/07/2020, 17:57:17,4.368516,-8.040081,-0.043110352,1.0824528,0.15027279,0.5815435,9.150338416865168,1.237933264304817,right
28/07/2020, 17:57:17,3.4895437,-8.138277,1.1184741,1.0824528,0.15027279,0.5815435,8.925214442494141,1.237933264304817,right
28/07/2020, 17:57:17,3.4895437,-8.138277,1.1184741,0.8026766,0.7611378,0.48624855,8.925214442494141,1.2083286530805657,right
28/07/2020, 17:57:17,2.2058132,-9.002879,2.2968237,0.8026766,0.7611378,0.48624855,9.549494431144858,1.2083286530805657,right
28/07/2020, 17:57:17,2.2058132,-9.002879,2.2968237,0.6817254,1.1435393,0.68539053,9.549494431144858,1.4973950151226505,right
28/07/2020, 17:57:17,1.7292042,-9.750125,3.3841627,0.6817254,1.1435393,0.68539053,10.464589824956123,1.4973950151226505,right
28/07/2020, 17:57:17,1.7292042,-9.750125,3.3841627,0.72692937,1.2962556,0.8906412,10.464589824956123,1.7326126584283805,right
28/07/2020, 17:57:17,1.3124708,-10.806329,4.1936793,0.72692937,1.2962556,0.8906412,11.66560189150625,1.7326126584283805,right
28/07/2020, 17:57:17,1.3124708,-10.806329,4.1936793,0.82588947,1.2192866,0.9566146,11.66560189150625,1.7560935767669839,right
28/07/2020, 17:57:17,0.6179151,-11.455379,4.021238,0.82588947,1.2192866,0.9566146,12.156392155234814,1.7560935767669839,right
28/07/2020, 17:57:17,0.6179151,-11.455379,4.021238,0.79412454,0.9529494,0.8662066,12.156392155234814,1.512964047510264,right
28/07/2020, 17:57:18,-3.5613942,2.2561085,0.3879932,0.92607135,1.7348566,2.8038704,4.233685525620721,3.424766418449642,right
28/07/2020, 17:57:18,-3.5613942,2.2561085,0.3879932,0.5791,1.9071206,2.7684402,4.233685525620721,3.4112647436267913,right
28/07/2020, 17:57:18,-3.7458107,2.6201515,0.25866213,0.5791,1.9071206,2.7684402,4.578558532966167,3.4112647436267913,right
28/07/2020, 17:57:18,-3.7458107,2.6201515,0.25866213,0.3249802,1.9828678,2.6975799,4.578558532966167,3.363675681983346,right
28/07/2020, 17:57:18,-3.9757326,2.6512868,0.16525635,0.3249802,1.9828678,2.6975799,4.781535422824044,3.363675681983346,right
28/07/2020, 17:57:18,-3.9757326,2.6512868,0.16525635,0.10384705,1.9755374,2.5827372,4.781535422824044,3.2533158142588827,right
28/07/2020, 17:57:18,-4.0930886,1.9591261,-0.18920656,0.10384705,1.9755374,2.5827372,4.54173411395373,3.2533158142588827,right
28/07/2020, 17:57:18,-4.0930886,1.9591261,-0.18920656,-0.17837258,1.9132292,2.470338,4.54173411395373,3.129669824468566,right
28/07/2020, 17:57:18,-4.0811133,0.7496411,-0.37601808,-0.17837258,1.9132292,2.470338,4.166393822626363,3.129669824468566,right
28/07/2020, 17:57:18,-4.0811133,0.7496411,-0.37601808,-0.45570529,1.8154908,2.4141386,4.166393822626363,3.0547895621501,right
28/07/2020, 17:57:18,-3.7697608,-0.23471193,-0.26345217,-0.45570529,1.8154908,2.4141386,3.7862373910653693,3.0547895621501,right
28/07/2020, 17:57:18,-3.7697608,-0.23471193,-0.26345217,-0.5729914,1.70187,2.453234,3.7862373910653693,3.040236394925246,right
28/07/2020, 17:57:18,-3.2404616,-0.8885523,-0.17723145,-0.5729914,1.70187,2.453234,3.3647477605774903,3.040236394925246,right
28/07/2020, 17:57:18,-3.2404616,-0.8885523,-0.17723145,-0.44226626,1.5711448,2.5546374,3.3647477605774903,3.031545462865809,right
28/07/2020, 17:57:18,-2.550696,-1.22146,0.366438,-0.44226626,1.5711448,2.5546374,2.8517171770553866,3.031545462865809,right
28/07/2020, 17:57:18,-2.550696,-1.22146,0.366438,-0.051312663,1.452637,2.6939147,2.8517171770553866,3.06103957345297,right
28/07/2020, 17:57:18,-2.0980372,-1.4729371,0.79754156,-0.051312663,1.452637,2.6939147,2.6846557566853586,3.06103957345297,right
28/07/2020, 17:57:18,-2.0980372,-1.4729371,0.79754156,0.45448357,1.4110981,2.841744,2.6846557566853586,3.2051929553214094,right
28/07/2020, 17:57:18,-1.5112574,-1.707649,1.2717555,0.45448357,1.4110981,2.841744,2.6110009543016286,3.2051929553214094,right
28/07/2020, 17:57:18,-1.5112574,-1.707649,1.2717555,0.99570996,1.4905106,2.955365,2.6110009543016286,3.456478273811412,right
28/07/2020, 17:57:18,-1.0825489,-2.0405567,1.4226416,0.99570996,1.4905106,2.955365,2.7128753692433083,3.456478273811412,right
28/07/2020, 17:57:18,-1.0825489,-2.0405567,1.4226416,1.4245372,1.6920961,3.054325,2.7128753692433083,3.7711267920202687,right
28/07/2020, 17:57:18,-0.7592212,-2.1243825,0.83586186,1.4245372,1.6920961,3.054325,2.4058434831420255,3.7711267920202687,right
28/07/2020, 17:57:18,-0.7592212,-2.1243825,0.83586186,1.7140872,1.9315552,3.1520634,2.4058434831420255,4.074862437573368,right
28/07/2020, 17:57:18,-0.3520679,-1.6046631,-0.17004639,1.7140872,1.9315552,3.1520634,1.6516087140900007,4.074862437573368,right
28/07/2020, 17:57:18,-0.3520679,-1.6046631,-0.17004639,1.9315552,2.0793846,3.2546887,1.6516087140900007,4.318303401619922,right
28/07/2020, 17:57:18,-0.026345216,-0.81191164,-1.4058765,1.9315552,2.0793846,3.2546887,1.6236943578108207,4.318303401619922,right
28/07/2020, 17:57:18,-0.026345216,-0.81191164,-1.4058765,2.063502,2.0793846,3.362201,1.6236943578108207,4.4594031412506325,right
28/07/2020, 17:57:18,0.51732427,0.33530274,-2.2680836,2.063502,2.0793846,3.362201,2.3503734635413536,4.4594031412506325,right
28/07/2020, 17:57:18,0.51732427,0.33530274,-2.2680836,2.1245885,1.946216,3.4074051,2.3503734635413536,4.4622911932419065,right
28/07/2020, 17:57:19,7.455696,-7.429351,-2.799778,-0.14172068,-0.9896013,-1.3548986,10.891345889467107,1.6837890761437195,right
28/07/2020, 17:57:19,8.035291,-6.3060865,-3.7458107,-0.14172068,-0.9896013,-1.3548986,10.879509296390648,1.6837890761437195,right
28/07/2020, 17:57:19,8.035291,-6.3060865,-3.7458107,-1.0751225,-1.1105525,-1.2449429,10.879509296390648,1.9847161347428042,right
28/07/2020, 17:57:19,7.9826,-5.4031644,-3.7386258,-1.0751225,-1.1105525,-1.2449429,10.338927127414415,1.9847161347428042,right
28/07/2020, 17:57:19,7.9826,-5.4031644,-3.7386258,-1.5845839,-1.253495,-1.1740825,10.338927127414415,2.336798126923898,right
28/07/2020, 17:57:19,7.7167535,-4.3325906,-4.160149,-1.5845839,-1.253495,-1.1740825,9.778878563584586,2.336798126923898,right
28/07/2020, 17:57:19,7.7167535,-4.3325906,-4.160149,-1.6530007,-1.420872,-1.1203264,9.778878563584586,2.450799820678435,right
28/07/2020, 17:57:19,7.92512,-2.6584718,-4.493057,-1.6530007,-1.420872,-1.1203264,9.490129433814994,2.450799820678435,right
28/07/2020, 17:57:19,7.92512,-2.6584718,-4.493057,-1.5796969,-1.5711448,-1.2473863,9.490129433814994,2.5534116376097526,right
28/07/2020, 17:57:19,8.210127,-2.308799,-4.184099,-1.5796969,-1.5711448,-1.2473863,9.499653803206153,2.5534116376097526,right
28/07/2020, 17:57:19,8.210127,-2.308799,-4.184099,-1.601688,-1.5723666,-1.5063931,9.499653803206153,2.703139164628739,right
28/07/2020, 17:57:19,9.0004835,-3.319497,-3.7985013,-1.601688,-1.5723666,-1.5063931,10.317769928074691,2.703139164628739,right
28/07/2020, 17:57:19,9.0004835,-3.319497,-3.7985013,-1.6468921,-1.4098765,-1.773952,10.317769928074691,2.8012338113332764,right
28/07/2020, 17:57:19,9.7621,-4.2104445,-3.4009278,-1.6468921,-1.4098765,-1.773952,11.16211238737931,2.8012338113332764,right
28/07/2020, 17:57:19,9.7621,-4.2104445,-3.4009278,-1.7861693,-1.1594218,-1.9156727,11.16211238737931,2.864343098899832,right
28/07/2020, 17:57:19,10.193204,-6.0689797,-4.0667434,-1.7861693,-1.1594218,-1.9156727,12.54082625005108,2.864343098899832,right
28/07/2020, 17:57:19,10.193204,-6.0689797,-4.0667434,-2.1795664,-0.9688319,-1.832595,12.54082625005108,3.0079144375717703,right
28/07/2020, 17:57:19,10.279425,-6.7300053,-5.0582814,-2.1795664,-0.9688319,-1.832595,13.287052091787984,3.0079144375717703,right
28/07/2020, 17:57:19,10.279425,-6.7300053,-5.0582814,-2.5057683,-0.84055024,-1.7898345,13.287052091787984,3.1920067381395834,right
28/07/2020, 17:57:19,9.699829,-6.552774,-5.0606766,-2.5057683,-0.84055024,-1.7898345,12.75288118291948,3.1920067381395834,right
28/07/2020, 17:57:19,9.699829,-6.552774,-5.0606766,-2.615724,-0.8014549,-1.8496993,12.75288118291948,3.3023824438633316,right
28/07/2020, 17:57:19,8.794512,-6.0258694,-5.4342995,-2.615724,-0.8014549,-1.8496993,11.966041538045813,3.3023824438633316,right
28/07/2020, 17:57:19,8.794512,-6.0258694,-5.4342995,-2.5680766,-0.64140826,-1.9474376,11.966041538045813,3.2861733698883966,right
28/07/2020, 17:57:19,8.919053,-5.4750147,-5.47262,-2.5680766,-0.64140826,-1.9474376,11.80994764590737,3.2861733698883966,right
28/07/2020, 17:57:19,8.919053,-5.4750147,-5.47262,-2.3298392,-0.47280952,-2.0793846,11.80994764590737,3.1584078032613356,right
28/07/2020, 17:57:19,9.407638,-4.385281,-6.6844997,-2.3298392,-0.47280952,-2.0793846,12.345722827164222,3.1584078032613356,right
28/07/2020, 17:57:19,9.407638,-4.385281,-6.6844997,-2.0586152,-0.4508184,-2.1942272,12.345722827164222,3.0423291867707136,right
28/07/2020, 17:57:19,9.649534,-3.7338357,-8.665181,-2.0586152,-0.4508184,-2.1942272,13.495940290214813,3.0423291867707136,right
28/07/2020, 17:57:19,9.649534,-3.7338357,-8.665181,-1.7055352,-0.58765215,-2.3677127,13.495940290214813,2.976617018403349,right
28/07/2020, 17:57:19,9.5489435,-3.1901662,-9.891431,-1.7055352,-0.58765215,-2.3677127,14.113819019044564,2.976617018403349,right
28/07/2020, 17:57:20,3.781736,-7.5874224,-1.219065,-0.3054325,-1.6077967,0.99937516,8.56484815886172,1.917563521612108,right
28/07/2020, 17:57:20,4.88105,-8.080796,-1.096919,-0.3054325,-1.6077967,0.99937516,9.504059618813818,1.917563521612108,right
28/07/2020, 17:57:20,4.88105,-8.080796,-1.096919,-0.44593146,-1.6627746,0.9737188,9.504059618813818,1.9778277129485144,right
28/07/2020, 17:57:20,5.724097,-8.715476,-0.82388675,-0.44593146,-1.6627746,0.9737188,10.459617383340019,1.9778277129485144,right
28/07/2020, 17:57:20,5.724097,-8.715476,-0.82388675,-0.42516205,-1.5882491,0.94561905,10.459617383340019,1.8967059105750697,right
28/07/2020, 17:57:20,6.478528,-9.369317,-0.5939649,-0.42516205,-1.5882491,0.94561905,11.406499098610306,1.8967059105750697,right
28/07/2020, 17:57:20,6.478528,-9.369317,-0.5939649,-0.26145023,-1.402546,0.92729306,11.406499098610306,1.701576934426933,right
28/07/2020, 17:57:20,7.1563187,-9.841136,-0.7113208,-0.26145023,-1.402546,0.92729306,12.188799427556575,1.701576934426933,right
28/07/2020, 17:57:20,7.1563187,-9.841136,-0.7113208,-0.02809979,-1.1398741,0.886976,12.188799427556575,1.4445860980461507,right
28/07/2020, 17:57:20,7.6257424,-10.209969,-1.0083033,-0.02809979,-1.1398741,0.886976,12.783273498705427,1.4445860980461507,right
28/07/2020, 17:57:20,7.6257424,-10.209969,-1.0083033,0.23457217,-0.8662066,0.8148939,12.783273498705427,1.2121839896086628,right
28/07/2020, 17:57:20,7.7383084,-10.33451,-1.3388159,0.23457217,-0.8662066,0.8148939,12.979828168030537,1.2121839896086628,right
28/07/2020, 17:57:20,7.7383084,-10.33451,-1.3388159,0.4960224,-0.65729076,0.72570765,12.979828168030537,1.0975978119963299,right
28/07/2020, 17:57:20,7.5155716,-10.279425,-1.7363893,0.4960224,-0.65729076,0.72570765,12.85167053769716,1.0975978119963299,right
28/07/2020, 17:57:20,7.5155716,-10.279425,-1.7363893,0.7122686,-0.5265656,0.65484726,12.85167053769716,1.101554732293742,right
28/07/2020, 17:57:20,7.2545147,-10.080638,-2.201023,0.7122686,-0.5265656,0.65484726,12.613157703595673,1.101554732293742,right
28/07/2020, 17:57:20,7.2545147,-10.080638,-2.201023,0.87353694,-0.45570529,0.6157519,12.613157703595673,1.1618453122784593,right
28/07/2020, 17:57:20,6.991062,-9.807606,-2.2800586,0.87353694,-0.45570529,0.6157519,12.258170659798004,1.1618453122784593,right
28/07/2020, 17:57:20,6.991062,-9.807606,-2.2800586,1.027475,-0.4068361,0.5949825,12.258170659798004,1.2550795439566085,right
28/07/2020, 17:57:20,6.7731156,-9.718989,-2.4333398,1.027475,-0.4068361,0.5949825,12.093593038080844,1.2550795439566085,right
28/07/2020, 17:57:20,6.7731156,-9.718989,-2.4333398,1.1447611,-0.35674515,0.58643043,12.093593038080844,1.3347830150537625,right
28/07/2020, 17:57:20,6.5288234,-9.529783,-2.5195606,1.1447611,-0.35674515,0.58643043,11.823302793030896,1.3347830150537625,right
28/07/2020, 17:57:20,6.5288234,-9.529783,-2.5195606,1.2705992,-0.32253674,0.5729914,11.823302793030896,1.4306542216607423,right
28/07/2020, 17:57:20,6.1695704,-9.335787,-2.3662794,1.2705992,-0.32253674,0.5729914,11.437648056023225,1.4306542216607423,right
28/07/2020, 17:57:20,6.1695704,-9.335787,-2.3662794,1.4233155,-0.2736675,0.5607741,11.437648056023225,1.5540876969867086,right
28/07/2020, 17:57:20,5.9540186,-9.242381,-2.2944288,1.4233155,-0.2736675,0.5607741,11.231044001344717,1.5540876969867086,right
28/07/2020, 17:57:20,5.9540186,-9.242381,-2.2944288,1.5625927,-0.19303334,0.53511775,11.231044001344717,1.6629218132704149,right
28/07/2020, 17:57:20,5.5588408,-9.125025,-2.090852,1.5625927,-0.19303334,0.53511775,10.887536461471738,1.6629218132704149,right
28/07/2020, 17:57:20,5.5588408,-9.125025,-2.090852,1.7067568,-0.11484262,0.5009093,10.887536461471738,1.782447155175162,right
28/07/2020, 17:57:20,4.9576907,-8.988508,-1.9806812,1.7067568,-0.11484262,0.5009093,10.454428500673266,1.782447155175162,right
28/07/2020, 17:57:21,3.1853762,-8.966953,3.0895753,0.5106832,0.0855211,0.64263,10.004916185876333,0.8252784140063467,right
28/07/2020, 17:57:21,3.1901662,-8.710687,3.7386258,0.5106832,0.0855211,0.64263,10.001527169243724,0.8252784140063467,right
28/07/2020, 17:57:21,3.1901662,-8.710687,3.7386258,0.48991373,0.28221965,0.6096433,10.001527169243724,0.8314615589471144,right
28/07/2020, 17:57:21,3.151846,-8.729847,4.030818,0.48991373,0.28221965,0.6096433,10.118886018624616,0.8314615589471144,right
28/07/2020, 17:57:21,3.151846,-8.729847,4.030818,0.50213104,0.38606668,0.6255258,10.118886018624616,0.890205344882525,right
28/07/2020, 17:57:21,3.0225148,-9.127419,3.8056862,0.50213104,0.38606668,0.6255258,10.34063004721444,0.890205344882525,right
28/07/2020, 17:57:21,3.0225148,-9.127419,3.8056862,0.4508184,0.41294473,0.6670646,10.34063004721444,0.9048401869787849,right
28/07/2020, 17:57:21,2.804568,-9.249566,3.4488282,0.4508184,0.41294473,0.6670646,10.262284866844654,0.9048401869787849,right
28/07/2020, 17:57:21,2.804568,-9.249566,3.4488282,0.33597577,0.3494148,0.687834,10.262284866844654,0.8414784964776697,right
28/07/2020, 17:57:21,2.4980054,-9.1202345,3.1853762,0.33597577,0.3494148,0.687834,9.978242801158842,0.8414784964776697,right
28/07/2020, 17:57:21,2.4980054,-9.1202345,3.1853762,0.2480112,0.2736675,0.65729076,9.978242801158842,0.7539460215240018,right
28/07/2020, 17:57:21,2.327959,-8.954978,3.0081446,0.2480112,0.2736675,0.65729076,9.729334931660073,0.7539460215240018,right
28/07/2020, 17:57:21,2.327959,-8.954978,3.0081446,0.22724178,0.22235486,0.6267475,9.729334931660073,0.7027751609554647,right
28/07/2020, 17:57:21,2.191443,-8.933423,2.8979738,0.22724178,0.22235486,0.6267475,9.643999249973792,0.7027751609554647,right
28/07/2020, 17:57:21,2.191443,-8.933423,2.8979738,0.20402892,0.19669853,0.64263,9.643999249973792,0.7023470685900172,right
28/07/2020, 17:57:21,1.9160157,-9.1849,2.459685,0.20402892,0.19669853,0.64263,9.699668050189574,0.7023470685900172,right
28/07/2020, 17:57:21,1.9160157,-9.1849,2.459685,0.061086502,0.20891583,0.6988296,9.699668050189574,0.7319427451925675,right
28/07/2020, 17:57:21,1.7699195,-9.309442,2.1770728,0.061086502,0.20891583,0.6988296,9.723063467094851,0.7319427451925675,right
28/07/2020, 17:57:21,1.7699195,-9.309442,2.1770728,-0.13805549,0.30298904,0.7110469,9.723063467094851,0.785142873308574,right
28/07/2020, 17:57:21,1.8848804,-9.15137,2.0453467,-0.13805549,0.30298904,0.7110469,9.564715952408063,0.785142873308574,right
28/07/2020, 17:57:21,1.8848804,-9.15137,2.0453467,-0.29199347,0.47158778,0.6841688,9.564715952408063,0.8807622753849734,right
28/07/2020, 17:57:21,1.8609302,-9.096285,2.2225783,-0.29199347,0.47158778,0.6841688,9.547005490597211,0.8807622753849734,right
28/07/2020, 17:57:21,1.8609302,-9.096285,2.2225783,-0.33719748,0.67683846,0.67439497,9.547005490597211,1.0132230795716062,right
28/07/2020, 17:57:21,1.6549586,-9.022039,2.435735,-0.33719748,0.67683846,0.67439497,9.490463007295327,1.0132230795716062,right
28/07/2020, 17:57:21,1.6549586,-9.022039,2.435735,-0.34452787,0.84543717,0.6597342,9.490463007295327,1.1263714578931185,right
28/07/2020, 17:57:21,1.2693604,-8.847202,2.193838,-0.34452787,0.84543717,0.6597342,9.203107577740745,1.1263714578931185,right
28/07/2020, 17:57:21,1.2693604,-8.847202,2.193838,-0.3652973,1.009149,0.65606904,9.203107577740745,1.257875315011471,right
28/07/2020, 17:57:21,0.7185059,-8.715476,2.0094216,-0.3652973,1.009149,0.65606904,8.972934213801695,1.257875315011471,right
28/07/2020, 17:57:21,0.7185059,-8.715476,2.0094216,-0.3408627,1.149648,0.6756167,8.972934213801695,1.3763486790570225,right
28/07/2020, 17:57:21,0.1820215,-8.734636,2.3806496,-0.3408627,1.149648,0.6756167,9.055081203202516,1.3763486790570225,right
28/07/2020, 17:57:22,-0.19639161,-9.010064,2.5291407,-0.05742131,1.3426813,0.73914665,9.36036206234948,1.5337627000563276,right
28/07/2020, 17:57:22,-0.40954837,-9.419612,2.8093581,-0.05742131,1.3426813,0.73914665,9.838155916786539,1.5337627000563276,right
28/07/2020, 17:57:22,-0.40954837,-9.419612,2.8093581,0.122173004,1.3548986,0.6829471,9.838155916786539,1.5222000931248187,right
28/07/2020, 17:57:22,-0.9364527,-9.635164,2.5866213,0.122173004,1.3548986,0.6829471,10.020176826672069,1.5222000931248187,right
28/07/2020, 17:57:22,-0.9364527,-9.635164,2.5866213,0.21624622,1.3011425,0.60842156,10.020176826672069,1.4525532390337708,right
28/07/2020, 17:57:22,-1.2549903,-9.692644,2.074087,0.21624622,1.3011425,0.60842156,9.991205495929258,1.4525532390337708,right
28/07/2020, 17:57:22,-1.2549903,-9.692644,2.074087,0.23823735,1.2058475,0.5326743,9.991205495929258,1.3396145551164804,right
28/07/2020, 17:57:22,-1.5974782,-9.486672,1.8800904,0.23823735,1.2058475,0.5326743,9.802225739199045,1.3396145551164804,right
28/07/2020, 17:57:22,-1.5974782,-9.486672,1.8800904,0.2809979,1.0812311,0.5106832,9.802225739199045,1.2283394722694132,right
28/07/2020, 17:57:22,-2.0285816,-9.077125,1.5543678,0.2809979,1.0812311,0.5106832,9.43002616690187,1.2283394722694132,right
28/07/2020, 17:57:22,-2.0285816,-9.077125,1.5543678,0.27611098,0.9040802,0.5302308,9.43002616690187,1.0838556288507777,right
28/07/2020, 17:57:22,-2.2824538,-8.284373,1.4920973,0.27611098,0.9040802,0.5302308,8.72162772447745,1.0838556288507777,right
28/07/2020, 17:57:22,-2.2824538,-8.284373,1.4920973,0.23823735,0.719599,0.56810445,8.72162772447745,0.9472710436342667,right
28/07/2020, 17:57:22,-2.2608986,-7.460486,1.7627344,0.23823735,0.719599,0.56810445,7.992355437256146,0.9472710436342667,right
28/07/2020, 17:57:22,-2.2608986,-7.460486,1.7627344,0.21868968,0.6133085,0.5827652,7.992355437256146,0.8738351004387627,right
28/07/2020, 17:57:22,-1.8465601,-6.945557,2.1148024,0.21868968,0.6133085,0.5827652,7.4915243425472635,0.8738351004387627,right
28/07/2020, 17:57:22,-1.8465601,-6.945557,2.1148024,0.116064355,0.6181954,0.5412264,7.4915243425472635,0.8297966660712919,right
28/07/2020, 17:57:22,-1.1975098,-6.943162,2.44292,0.116064355,0.6181954,0.5412264,7.457170085263983,0.8297966660712919,right
28/07/2020, 17:57:22,-1.1975098,-6.943162,2.44292,-0.095294945,0.75747263,0.5045745,7.457170085263983,0.9151182009920364,right
28/07/2020, 17:57:22,-0.7927515,-7.1347637,2.5315359,-0.095294945,0.75747263,0.5045745,7.611963088678234,0.9151182009920364,right
28/07/2020, 17:57:22,-0.7927515,-7.1347637,2.5315359,-0.42027512,0.86376315,0.48624855,7.611963088678234,1.076640895863683,right
28/07/2020, 17:57:22,-0.6227051,-7.335945,2.4740553,-0.42027512,0.86376315,0.48624855,7.766904284499661,1.076640895863683,right
28/07/2020, 17:57:22,-0.6227051,-7.335945,2.4740553,-0.89308465,0.8820891,0.43249243,7.766904284499661,1.3276788136488629,right
28/07/2020, 17:57:22,-0.52690434,-7.6353226,1.6693287,-0.89308465,0.8820891,0.43249243,7.833417978273184,1.3276788136488629,right
28/07/2020, 17:57:22,-0.52690434,-7.6353226,1.6693287,-1.4587456,0.84421545,0.3995057,7.833417978273184,1.7321210294224818,right
28/07/2020, 17:57:22,-0.52690434,-7.9778104,0.58677983,-1.4587456,0.84421545,0.3995057,8.016694909071967,1.7321210294224818,right
28/07/2020, 17:57:22,-0.52690434,-7.9778104,0.58677983,-1.8875729,0.7831289,0.43004897,8.016694909071967,2.088340109786147,right
28/07/2020, 17:57:22,-0.47900394,-8.248447,0.51971924,-1.8875729,0.7831289,0.43004897,8.278673666317122,2.088340109786147,right
28/07/2020, 17:57:22,-0.47900394,-8.248447,0.51971924,-2.1038191,0.751364,0.4679226,8.278673666317122,2.2824448179288885,right
28/07/2020, 17:57:22,-0.3305127,-8.902288,0.37601808,-2.1038191,0.751364,0.4679226,8.91635394398418,2.2824448179288885,right
28/07/2020, 17:57:23,9.69504,-6.2869267,0.19878663,1.9205596,-1.4282024,-1.9889765,11.556762512765772,3.111967038690425,right
28/07/2020, 17:57:23,10.078242,-6.6270194,-0.083825685,1.9205596,-1.4282024,-1.9889765,12.06214661000252,3.111967038690425,right
28/07/2020, 17:57:23,10.078242,-6.6270194,-0.083825685,2.2821918,-1.3390161,-1.9804244,12.06214661000252,3.3050634006018402,right
28/07/2020, 17:57:23,10.962005,-6.840176,0.25866213,2.2821918,-1.3390161,-1.9804244,12.923639636498867,3.3050634006018402,right
28/07/2020, 17:57:23,10.962005,-6.840176,0.25866213,2.3298392,-1.1997389,-1.9987503,12.923639636498867,3.295834802589816,right
28/07/2020, 17:57:23,11.388318,-6.67013,-0.32572266,2.3298392,-1.1997389,-1.9987503,13.201913299226643,3.295834802589816,right
28/07/2020, 17:57:23,11.388318,-6.67013,-0.32572266,2.4813337,-1.2644906,-2.0170763,13.201913299226643,3.4386843698123504,right
28/07/2020, 17:57:23,10.526112,-7.6305327,-0.7448511,2.4813337,-1.2644906,-2.0170763,13.022244759397466,3.4386843698123504,right
28/07/2020, 17:57:23,10.526112,-7.6305327,-0.7448511,2.79654,-1.4159851,-1.9657636,13.022244759397466,3.6999832874267553,right
28/07/2020, 17:57:23,10.384805,-6.864126,-0.5292993,2.79654,-1.4159851,-1.9657636,12.459556794804515,3.6999832874267553,right
28/07/2020, 17:57:23,10.384805,-6.864126,-0.5292993,3.1215203,-1.4147633,-1.9608767,12.459556794804515,3.948478389581427,right
28/07/2020, 17:57:23,10.791959,-5.836663,-0.51971924,3.1215203,-1.4147633,-1.9608767,12.28019198983899,3.948478389581427,right
28/07/2020, 17:57:23,10.791959,-5.836663,-0.51971924,3.2827885,-1.4245372,-1.9914199,12.28019198983899,4.095333915660262,right
28/07/2020, 17:57:23,10.205178,-6.1863356,0.27542725,3.2827885,-1.4245372,-1.9914199,11.937012658623814,4.095333915660262,right
28/07/2020, 17:57:23,10.205178,-6.1863356,0.27542725,3.189937,-1.2095127,-1.9046772,11.937012658623814,3.9072259787012746,right
28/07/2020, 17:57:23,9.362132,-6.3923073,0.51013917,3.189937,-1.2095127,-1.9046772,11.347746529291122,3.9072259787012746,right
28/07/2020, 17:57:23,9.362132,-6.3923073,0.51013917,2.963917,-1.2034041,-1.8423688,11.347746529291122,3.6915184387509363,right
28/07/2020, 17:57:23,9.15137,-6.119275,1.1879297,2.963917,-1.2034041,-1.8423688,11.072681631813307,3.6915184387509363,right
28/07/2020, 17:57:23,9.15137,-6.119275,1.1879297,2.9113827,-1.2327256,-1.832595,11.072681631813307,3.6543352249355143,right
28/07/2020, 17:57:23,9.745335,-6.591094,1.8633252,2.9113827,-1.2327256,-1.832595,11.911593018681932,3.6543352249355143,right
28/07/2020, 17:57:23,9.745335,-6.591094,1.8633252,2.973691,-1.3329074,-1.8668035,11.911593018681932,3.7555872684530915,right
28/07/2020, 17:57:23,9.850716,-6.878496,1.5807129,2.973691,-1.3329074,-1.8668035,12.118125327144734,3.7555872684530915,right
28/07/2020, 17:57:23,9.850716,-6.878496,1.5807129,3.1129682,-1.4355328,-1.8228211,12.118125327144734,3.882525261642819,right
28/07/2020, 17:57:23,9.807606,-7.0054326,1.8561403,3.1129682,-1.4355328,-1.8228211,12.194690363491114,3.882525261642819,right
28/07/2020, 17:57:23,9.807606,-7.0054326,1.8561403,3.1483982,-1.357342,-1.7800606,12.194690363491114,3.863082216512051,right
28/07/2020, 17:57:23,10.087823,-6.9072366,1.6453785,3.1483982,-1.357342,-1.7800606,12.336180874791925,3.863082216512051,right
28/07/2020, 17:57:23,10.087823,-6.9072366,1.6453785,2.9578085,-1.3781115,-1.7373,12.336180874791925,3.6967599015417907,right
28/07/2020, 17:57:23,9.599238,-6.375542,1.8585353,2.9578085,-1.3781115,-1.7373,11.672491982589717,3.6967599015417907,right
28/07/2020, 17:57:23,9.599238,-6.375542,1.8585353,2.679254,-1.2632688,-1.7030916,11.672491982589717,3.416836474726939,right
28/07/2020, 17:57:23,9.319021,-6.236631,1.6525636,2.679254,-1.2632688,-1.7030916,11.334491084325295,3.416836474726939,right
28/07/2020, 17:57:24,5.942044,-9.989627,-3.4488282,2.3469434,-0.074525535,0.19669853,12.12414721467008,2.3563504810031355,right
28/07/2020, 17:57:24,5.807923,-9.891431,-3.6212697,2.3469434,-0.074525535,0.19669853,12.02854797277004,2.3563504810031355,right
28/07/2020, 17:57:24,5.807923,-9.891431,-3.6212697,2.1258101,0.09896013,0.16737701,12.02854797277004,2.134684273921483,right
28/07/2020, 17:57:24,5.000801,-9.395662,-3.6092947,2.1258101,0.09896013,0.16737701,11.238927422080916,2.134684273921483,right
28/07/2020, 17:57:24,5.000801,-9.395662,-3.6092947,1.8985685,0.17837258,0.18081604,11.238927422080916,1.9154826042753752,right
28/07/2020, 17:57:24,4.2200246,-8.966953,-3.410508,1.8985685,0.17837258,0.18081604,10.480764420653427,1.9154826042753752,right
28/07/2020, 17:57:24,4.2200246,-8.966953,-3.410508,1.7776172,0.1624901,0.27733272,10.480764420653427,1.8064438653958799,right
28/07/2020, 17:57:24,3.8799317,-8.976534,-2.929109,1.7776172,0.1624901,0.27733272,10.208413720039875,1.8064438653958799,right
28/07/2020, 17:57:24,3.8799317,-8.976534,-2.929109,1.7495174,0.108733974,0.40927956,10.208413720039875,1.800040029289799,right
28/07/2020, 17:57:24,3.9302273,-9.251961,-2.4668703,1.7495174,0.108733974,0.40927956,10.350406435825287,1.800040029289799,right
28/07/2020, 17:57:24,3.9302273,-9.251961,-2.4668703,1.7861693,0.087964565,0.5045745,10.350406435825287,1.858153358206629,right
28/07/2020, 17:57:24,4.3206153,-9.750125,-1.7938697,1.7861693,0.087964565,0.5045745,10.814371054134341,1.858153358206629,right
28/07/2020, 17:57:24,4.3206153,-9.750125,-1.7938697,1.9376638,0.109955706,0.49480066,10.814371054134341,2.0028626823389346,right
28/07/2020, 17:57:24,4.6918435,-10.181229,-1.1160791,1.9376638,0.109955706,0.49480066,11.265719889645531,2.0028626823389346,right
28/07/2020, 17:57:24,4.6918435,-10.181229,-1.1160791,2.135584,0.13194685,0.42882723,11.265719889645531,2.18220582822161,right
28/07/2020, 17:57:24,4.749324,-10.511742,-0.83586186,2.135584,0.13194685,0.42882723,11.565096381077181,2.18220582822161,right
28/07/2020, 17:57:24,4.749324,-10.511742,-0.83586186,2.2797482,0.18448123,0.4105013,11.565096381077181,2.3237462222609224,right
28/07/2020, 17:57:24,4.878655,-10.744058,-0.67539555,2.2797482,0.18448123,0.4105013,11.819145833585223,2.3237462222609224,right
28/07/2020, 17:57:24,4.878655,-10.744058,-0.67539555,2.3787084,0.22602005,0.45326185,11.819145833585223,2.4320330682978653,right
28/07/2020, 17:57:24,4.6678934,-10.971585,-0.99393314,2.3787084,0.22602005,0.45326185,11.96464856955009,2.4320330682978653,right
28/07/2020, 17:57:24,4.6678934,-10.971585,-0.99393314,2.388482,0.20158546,0.5290091,11.96464856955009,2.454655584944131,right
28/07/2020, 17:57:24,4.3397756,-11.060201,-1.3675562,2.388482,0.20158546,0.5290091,11.959594527429038,2.454655584944131,right
28/07/2020, 17:57:24,4.3397756,-11.060201,-1.3675562,2.2711961,0.09040802,0.610865,11.959594527429038,2.3536485509730416,right
28/07/2020, 17:57:24,4.0691385,-10.813514,-1.7507594,2.2711961,0.09040802,0.610865,11.685680401492208,2.3536485509730416,right
28/07/2020, 17:57:24,4.0691385,-10.813514,-1.7507594,2.1209233,-0.09162975,0.6976078,11.685680401492208,2.2345845783670395,right
28/07/2020, 17:57:24,4.0859036,-10.265054,-1.8800904,2.1209233,-0.09162975,0.6976078,11.207170776359366,2.2345845783670395,right
28/07/2020, 17:57:24,4.0859036,-10.265054,-1.8800904,1.9877547,-0.29199347,0.77213335,11.207170776359366,2.1523519355061715,right
28/07/2020, 17:57:25,4.397256,-9.503438,-2.2297633,1.9877547,-0.29199347,0.77213335,10.706214896408733,2.1523519355061715,right
28/07/2020, 17:57:25,4.397256,-9.503438,-2.2297633,1.8716904,-0.4960224,0.8539893,10.706214896408733,2.116261061329877,right
28/07/2020, 17:57:25,4.761299,-8.938213,-2.4501052,1.8716904,-0.4960224,0.8539893,10.419435816852417,2.116261061329877,right
28/07/2020, 17:57:25,4.761299,-8.938213,-2.4501052,1.7140872,-0.65362555,0.9737188,10.419435816852417,2.0768846367595337,right
28/07/2020, 17:57:25,5.4319043,-8.293953,-2.7710378,1.7140872,-0.65362555,0.9737188,10.294362072670278,2.0768846367595337,right
28/07/2020, 17:57:25,5.4319043,-8.293953,-2.7710378,1.5393798,-0.69394267,1.1166612,10.294362072670278,2.0243959385521957,right
