DATE,TIME,ax,ay,az,gx,gy,gz,ma,mg,label
28/07/2020, 18:09:14,1.4465919,6.006709,7.781419,-0.25045466,0.53145254,0.25411984,9.93597809662622,0.6401142337159986,left
28/07/2020, 18:09:14,1.346001,5.7001467,7.537127,-0.25045466,0.53145254,0.25411984,9.545243557550581,0.6401142337159986,left
28/07/2020, 18:09:14,1.346001,5.7001467,7.537127,-0.3506365,0.5265656,0.26267195,9.545243557550581,0.6849918675709968,left
28/07/2020, 18:09:14,1.3843213,5.5803957,7.556287,-0.3506365,0.5265656,0.26267195,9.494979309358703,0.6849918675709968,left
28/07/2020, 18:09:14,1.3843213,5.5803957,7.556287,-0.42271858,0.52290046,0.2553416,9.494979309358703,0.7192462876747823,left
28/07/2020, 18:09:14,1.4992822,5.1900077,7.673643,-0.42271858,0.52290046,0.2553416,9.384499221484939,0.7192462876747823,left
28/07/2020, 18:09:14,1.4992822,5.1900077,7.673643,-0.44715318,0.5131266,0.21991141,9.384499221484939,0.7152663249753535,left
28/07/2020, 18:09:14,1.3867164,4.761299,7.8412943,-0.44715318,0.5131266,0.21991141,9.27786871199262,0.7152663249753535,left
28/07/2020, 18:09:14,1.3867164,4.761299,7.8412943,-0.45814875,0.49724412,0.21258102,9.27786871199262,0.708761371060476,left
28/07/2020, 18:09:14,1.1448194,4.4691067,8.066426,-0.45814875,0.49724412,0.21258102,9.292510896436609,0.708761371060476,left
28/07/2020, 18:09:14,1.1448194,4.4691067,8.066426,-0.4593705,0.4605922,0.23701562,9.292510896436609,0.6923458954181566,left
28/07/2020, 18:09:14,1.0681788,4.2439747,8.200547,-0.4593705,0.4605922,0.23701562,9.295230051132155,0.6923458954181566,left
28/07/2020, 18:09:14,1.0681788,4.2439747,8.200547,-0.40927956,0.41172302,0.2565633,9.295230051132155,0.6347049136546825,left
28/07/2020, 18:09:14,1.1999048,3.8679566,8.490345,-0.40927956,0.41172302,0.2565633,9.406743236826056,0.6347049136546825,left
28/07/2020, 18:09:14,1.1999048,3.8679566,8.490345,-0.3335323,0.38973188,0.24434601,9.406743236826056,0.5681898541996068,left
28/07/2020, 18:09:14,1.3148658,3.7649708,8.650811,-0.3335323,0.38973188,0.24434601,9.52577616010185,0.5681898541996068,left
28/07/2020, 18:09:14,1.3148658,3.7649708,8.650811,-0.25411984,0.3909536,0.22357659,9.52577616010185,0.5171151749705851,left
28/07/2020, 18:09:14,1.2094849,3.7098854,8.617281,-0.25411984,0.3909536,0.22357659,9.459578972028815,0.5171151749705851,left
28/07/2020, 18:09:14,1.2094849,3.7098854,8.617281,-0.19058989,0.3652973,0.2076941,9.459578972028815,0.461414621592843,left
28/07/2020, 18:09:14,1.089734,3.666775,8.456815,-0.19058989,0.3652973,0.2076941,9.281728012547402,0.461414621592843,left
28/07/2020, 18:09:14,1.089734,3.666775,8.456815,-0.14660761,0.31642807,0.1954768,9.281728012547402,0.3997895578105061,left
28/07/2020, 18:09:14,1.0490186,3.544629,8.3250885,-0.14660761,0.31642807,0.1954768,9.108893129926471,0.3997895578105061,left
28/07/2020, 18:09:14,1.0490186,3.544629,8.3250885,-0.11239916,0.2651154,0.19181162,9.108893129926471,0.34599342486901713,left
28/07/2020, 18:09:14,0.9987232,3.5254688,8.301138,-0.11239916,0.2651154,0.19181162,9.073878406154222,0.34599342486901713,left
28/07/2020, 18:09:14,0.9987232,3.5254688,8.301138,-0.06352996,0.21868968,0.17348567,9.073878406154222,0.28628396495139996,left
28/07/2020, 18:09:14,1.0394385,3.5566041,8.308323,-0.06352996,0.21868968,0.17348567,9.097147626762693,0.28628396495139996,left
28/07/2020, 18:09:14,1.0394385,3.5566041,8.308323,0.0,0.17959431,0.15760317,9.097147626762693,0.23894115616950468,left
28/07/2020, 18:09:14,1.2478052,3.6308498,8.3322735,0.0,0.17959431,0.15760317,9.174250370438264,0.23894115616950468,left
28/07/2020, 18:09:14,1.2478052,3.6308498,8.3322735,0.05619958,0.14905107,0.14782934,9.174250370438264,0.21732033456257202,left
28/07/2020, 18:09:14,1.463357,3.776946,8.339458,0.05619958,0.14905107,0.14782934,9.271100405289445,0.21732033456257202,left
28/07/2020, 18:09:15,0.9580079,4.7086086,7.726333,-0.0122173,-0.14538588,-0.040317092,9.09862616547394,0.15136638781838335,left
28/07/2020, 18:09:15,0.9580079,4.7086086,7.726333,-0.06597342,-0.15149452,-0.018325951,9.09862616547394,0.16624957755348965,left
28/07/2020, 18:09:15,0.9915381,5.0726514,7.788604,-0.06597342,-0.15149452,-0.018325951,9.34758197546946,0.16624957755348965,left
28/07/2020, 18:09:15,0.9915381,5.0726514,7.788604,-0.13072512,-0.15271625,0.01954768,9.34758197546946,0.2019738112211453,left
28/07/2020, 18:09:15,1.0705738,5.096602,7.95865,-0.13072512,-0.15271625,0.01954768,9.511129872579858,0.2019738112211453,left
28/07/2020, 18:09:15,1.0705738,5.096602,7.95865,-0.15515971,-0.12583819,0.05375612,9.511129872579858,0.20688041696484272,left
28/07/2020, 18:09:15,1.1663746,5.110972,8.032896,-0.15515971,-0.12583819,0.05375612,9.59217819312122,0.20688041696484272,left
28/07/2020, 18:09:15,1.1663746,5.110972,8.032896,-0.16493355,-0.08307764,0.07208207,9.59217819312122,0.1982442795756412,left
28/07/2020, 18:09:15,1.0442286,4.727769,7.89638,-0.16493355,-0.08307764,0.07208207,9.262560569483469,0.1982442795756412,left
28/07/2020, 18:09:15,1.0442286,4.727769,7.89638,-0.1710422,-0.043982282,0.101403594,9.262560569483469,0.20364814153404973,left
28/07/2020, 18:09:15,0.87897223,4.5002418,7.92991,-0.1710422,-0.043982282,0.101403594,9.160144298062487,0.20364814153404973,left
28/07/2020, 18:09:15,0.87897223,4.5002418,7.92991,-0.16126837,-0.0244346,0.14660761,9.160144298062487,0.2193133076675596,left
28/07/2020, 18:09:15,0.613125,4.4547367,7.7335186,-0.16126837,-0.0244346,0.14660761,8.94583206824922,0.2193133076675596,left
28/07/2020, 18:09:15,0.613125,4.4547367,7.7335186,-0.20525065,-0.01954768,0.18814643,8.94583206824922,0.2791218721177678,left
28/07/2020, 18:09:15,0.5604346,4.488267,7.5251517,-0.20525065,-0.01954768,0.18814643,8.779893828520796,0.2791218721177678,left
28/07/2020, 18:09:15,0.5604346,4.488267,7.5251517,-0.26878062,-0.043982282,0.22602005,8.779893828520796,0.35392446457599075,left
28/07/2020, 18:09:15,0.613125,4.3134303,7.563472,-0.26878062,-0.043982282,0.22602005,8.728557092183749,0.35392446457599075,left
28/07/2020, 18:09:15,0.613125,4.3134303,7.563472,-0.30176732,-0.073303804,0.23823735,8.728557092183749,0.39140004883894675,left
28/07/2020, 18:09:15,0.6227051,3.9805226,7.6161623,-0.30176732,-0.073303804,0.23823735,8.61616215343364,0.39140004883894675,left
28/07/2020, 18:09:15,0.6227051,3.9805226,7.6161623,-0.3090977,-0.09162975,0.24923292,8.61616215343364,0.40749779304989675,left
28/07/2020, 18:09:15,0.61073,3.7074904,7.719148,-0.3090977,-0.09162975,0.24923292,8.585087350652095,0.40749779304989675,left
28/07/2020, 18:09:15,0.61073,3.7074904,7.719148,-0.29932386,-0.109955706,0.2736675,8.585087350652095,0.4202129661026838,left
28/07/2020, 18:09:15,0.5364844,3.4727786,7.680828,-0.29932386,-0.109955706,0.2736675,8.446486054460571,0.4202129661026838,left
28/07/2020, 18:09:15,0.5364844,3.4727786,7.680828,-0.29443693,-0.14049895,0.30176732,8.446486054460571,0.4444058697096078,left
28/07/2020, 18:09:15,0.42152345,3.3266823,7.599397,-0.29443693,-0.14049895,0.30176732,8.306343050737599,0.4444058697096078,left
28/07/2020, 18:09:15,0.42152345,3.3266823,7.599397,-0.29932386,-0.18448123,0.3420844,8.306343050737599,0.49056073914819853,left
28/07/2020, 18:09:15,0.488584,3.2596216,7.589817,-0.29932386,-0.18448123,0.3420844,8.274609975826866,0.49056073914819853,left
28/07/2020, 18:09:15,0.488584,3.2596216,7.589817,-0.29810214,-0.21991141,0.41294473,8.274609975826866,0.5547515375471803,left
28/07/2020, 18:09:15,0.58198977,3.2189064,7.5251517,-0.29810214,-0.21991141,0.41294473,8.205362823704865,0.5547515375471803,left
28/07/2020, 18:09:15,0.58198977,3.2189064,7.5251517,-0.3054325,-0.23823735,0.49113548,8.205362823704865,0.6255078771518315,left
28/07/2020, 18:09:16,1.9447559,2.2369483,8.605306,0.67072976,1.1398741,1.4538587,9.101499807214811,1.9654252943087662,left
28/07/2020, 18:09:16,1.8848804,2.323169,8.667576,0.67072976,1.1398741,1.4538587,9.169337994481676,1.9654252943087662,left
28/07/2020, 18:09:16,1.8848804,2.323169,8.667576,0.7293728,1.2205083,1.439198,9.169337994481676,2.0230957005836743,left
28/07/2020, 18:09:16,1.5926881,2.3830445,8.813672,0.7293728,1.2205083,1.439198,9.268029543212437,2.0230957005836743,left
28/07/2020, 18:09:16,1.5926881,2.3830445,8.813672,0.79412454,1.2828165,1.4465283,9.268029543212437,2.0901426282202746,left
28/07/2020, 18:09:16,1.8705103,2.5195606,8.801697,0.79412454,1.2828165,1.4465283,9.344349125803552,2.0901426282202746,left
28/07/2020, 18:09:16,1.8705103,2.5195606,8.801697,0.76235956,1.3243554,1.4098765,9.344349125803552,2.079149075120045,left
28/07/2020, 18:09:16,1.83219,2.7207422,8.923843,0.76235956,1.3243554,1.4098765,9.507593771699915,2.079149075120045,left
28/07/2020, 18:09:16,1.83219,2.7207422,8.923843,0.68539053,1.3536769,1.3793331,9.507593771699915,2.050551457269279,left
28/07/2020, 18:09:16,1.5160475,2.818938,9.091495,0.68539053,1.3536769,1.3793331,9.638469008960303,2.050551457269279,left
28/07/2020, 18:09:16,1.5160475,2.818938,9.091495,0.6059781,1.362229,1.393994,9.638469008960303,2.0411017716614475,left
28/07/2020, 18:09:16,1.1424243,2.682422,9.314231,0.6059781,1.362229,1.393994,9.759888235306816,2.0411017716614475,left
28/07/2020, 18:09:16,1.1424243,2.682422,9.314231,0.52045697,1.3402379,1.4123199,9.759888235306816,2.0153809723630625,left
28/07/2020, 18:09:16,0.85023195,2.4932153,9.417217,0.52045697,1.3402379,1.4123199,9.778701234139398,2.0153809723630625,left
28/07/2020, 18:09:16,0.85023195,2.4932153,9.417217,0.38484496,1.325577,1.4147633,9.778701234139398,1.976566559434337,left
28/07/2020, 18:09:16,0.14370118,2.3327491,9.354947,0.38484496,1.325577,1.4147633,9.642479120259091,1.976566559434337,left
28/07/2020, 18:09:16,0.14370118,2.3327491,9.354947,0.21502449,1.3060294,1.434311,9.642479120259091,1.9517163119893468,left
28/07/2020, 18:09:16,0.84544194,2.694397,9.0004835,0.21502449,1.3060294,1.434311,9.433093372878742,1.9517163119893468,left
28/07/2020, 18:09:16,0.84544194,2.694397,9.0004835,0.01588249,1.2791513,1.4379762,9.433093372878742,1.9246443890041076,left
28/07/2020, 18:09:16,0.035925295,2.7087672,9.08431,0.01588249,1.2791513,1.4379762,9.479630306437778,1.9246443890041076,left
28/07/2020, 18:09:16,0.035925295,2.7087672,9.08431,-0.23579389,1.2363908,1.4159851,9.479630306437778,1.894538166566113,left
28/07/2020, 18:09:16,0.1101709,2.680027,8.902288,-0.23579389,1.2363908,1.4159851,9.297603013942895,1.894538166566113,left
28/07/2020, 18:09:16,0.1101709,2.680027,8.902288,-0.5106832,1.1850781,1.3866636,9.297603013942895,1.8942131175204993,left
28/07/2020, 18:09:16,0.32332766,2.454895,8.581355,-0.5106832,1.1850781,1.3866636,8.931444765430454,1.8942131175204993,left
28/07/2020, 18:09:16,0.32332766,2.454895,8.581355,-0.72448593,1.1362089,1.3817767,8.931444765430454,1.9300666663537072,left
28/07/2020, 18:09:16,0.49576905,2.1124072,8.796907,-0.72448593,1.1362089,1.3817767,9.060553592777168,1.9300666663537072,left
28/07/2020, 18:09:16,0.49576905,2.1124072,8.796907,-0.84055024,1.09467,1.3952156,9.060553592777168,1.9625121407178243,left
28/07/2020, 18:09:16,0.5604346,1.5974782,8.741821,-0.84055024,1.09467,1.3952156,8.90423847457751,1.9625121407178243,left
28/07/2020, 18:09:16,0.5604346,1.5974782,8.741821,-0.8979716,1.0897832,1.407433,8.90423847457751,1.9937021062916467,left
28/07/2020, 18:09:16,0.6706055,1.0466236,8.248447,-0.8979716,1.0897832,1.407433,8.341583629975002,1.9937021062916467,left
28/07/2020, 18:09:17,-1.5663428,-5.927674,8.590936,1.189965,-0.35674515,-0.77213335,10.554379331041272,1.4626940007075837,left
28/07/2020, 18:09:17,-1.951941,-5.1636624,9.017249,1.189965,-0.35674515,-0.77213335,10.57280780645171,1.4626940007075837,left
28/07/2020, 18:09:17,-1.951941,-5.1636624,9.017249,1.1777477,-0.36285383,-0.7318163,10.57280780645171,1.4332856276670471,left
28/07/2020, 18:09:17,-1.951941,-5.1636624,9.017249,1.0079273,-0.4276055,-0.6817254,10.57280780645171,1.2897726189874525,left
28/07/2020, 18:09:17,-2.3710694,-4.7133985,8.641231,1.0079273,-0.4276055,-0.6817254,10.124670920596484,1.2897726189874525,left
28/07/2020, 18:09:17,-2.8979738,-4.145779,8.741821,1.0079273,-0.4276055,-0.6817254,10.099761188949785,1.2897726189874525,left
28/07/2020, 18:09:17,-2.8979738,-4.145779,8.741821,0.7110469,-0.5607741,-0.6450735,10.099761188949785,1.1118340800628599,left
28/07/2020, 18:09:17,-3.539839,-3.8751419,8.428074,0.7110469,-0.5607741,-0.6450735,9.928726713909482,1.1118340800628599,left
28/07/2020, 18:09:17,-3.539839,-3.8751419,8.428074,0.50335276,-0.68539053,-0.62308234,9.928726713909482,1.0542086063869347,left
28/07/2020, 18:09:17,-3.7314405,-3.1063404,8.902288,0.50335276,-0.68539053,-0.62308234,10.140204074886189,1.0542086063869347,left
28/07/2020, 18:09:17,-3.7314405,-3.1063404,8.902288,0.28344136,-0.75502914,-0.6963861,10.140204074886189,1.0655334866020942,left
28/07/2020, 18:09:17,-3.551814,-3.515889,8.617281,0.28344136,-0.75502914,-0.6963861,9.961645916336307,1.0655334866020942,left
28/07/2020, 18:09:17,-3.551814,-3.515889,8.617281,-0.074525535,-0.77946377,-0.7684682,9.961645916336307,1.0971149425702,left
28/07/2020, 18:09:17,-3.439248,-3.307522,8.4448395,-0.074525535,-0.77946377,-0.7684682,9.699662022931893,1.0971149425702,left
28/07/2020, 18:09:17,-3.439248,-3.307522,8.4448395,-0.37995803,-0.79045933,-0.7660247,9.699662022931893,1.1644689440823766,left
28/07/2020, 18:09:17,-3.0728102,-3.168611,8.349038,-0.37995803,-0.79045933,-0.7660247,9.44397670162833,1.1644689440823766,left
28/07/2020, 18:09:17,-3.0728102,-3.168611,8.349038,-0.5644393,-0.8051201,-0.6829471,9.44397670162833,1.1971745287771327,left
28/07/2020, 18:09:17,-2.4525,-3.0225148,8.571775,-0.5644393,-0.8051201,-0.6829471,9.414121665581245,1.1971745287771327,left
28/07/2020, 18:09:17,-2.4525,-3.0225148,8.571775,-0.62063885,-0.8136722,-0.58765215,9.414121665581245,1.1800805265111416,left
28/07/2020, 18:09:17,-1.9950514,-3.05844,8.703502,-0.62063885,-0.8136722,-0.58765215,9.438497069998629,1.1800805265111416,left
28/07/2020, 18:09:17,-1.9950514,-3.05844,8.703502,-0.6304127,-0.84299374,-0.4801399,9.438497069998629,1.1569757746927645,left
28/07/2020, 18:09:17,-1.6501685,-3.04407,8.612491,-0.6304127,-0.84299374,-0.4801399,9.28247885357607,1.1569757746927645,left
28/07/2020, 18:09:17,-1.6501685,-3.04407,8.612491,-0.65240383,-0.8906412,-0.41783166,9.28247885357607,1.180447298356922,left
28/07/2020, 18:09:17,-1.1496094,-3.1853762,8.420889,-0.65240383,-0.8906412,-0.41783166,9.076320459614488,1.180447298356922,left
28/07/2020, 18:09:17,-1.1496094,-3.1853762,8.420889,-0.7122686,-0.918741,-0.4593705,9.076320459614488,1.249973119270876,left
28/07/2020, 18:09:17,-0.6514453,-3.2692018,7.9849954,-0.7122686,-0.918741,-0.4593705,8.652873055615345,1.249973119270876,left
28/07/2020, 18:09:17,-0.6514453,-3.2692018,7.9849954,-0.8515458,-0.92851484,-0.5644393,8.652873055615345,1.3805295332576464,left
28/07/2020, 18:09:17,-0.6011499,-3.7050953,7.668853,-0.8515458,-0.92851484,-0.5644393,8.538174026113088,1.3805295332576464,left
28/07/2020, 18:09:17,-0.6011499,-3.7050953,7.668853,-0.963945,-0.9236279,-0.6145302,8.538174026113088,1.469668603331508,left
28/07/2020, 18:09:17,-0.7065308,-4.253555,7.647298,-0.963945,-0.9236279,-0.6145302,8.779127459332773,1.469668603331508,left
28/07/2020, 18:09:18,0.31135255,-3.5829494,-9.496253,4.069583,-2.9883516,-1.4477501,10.154471335924162,5.252402384879459,left
28/07/2020, 18:09:18,0.31135255,-3.5829494,-9.496253,4.127004,-2.9297085,-1.4697412,10.154471335924162,5.270246130657358,left
28/07/2020, 18:09:18,0.22513184,-3.1374757,-10.205178,4.127004,-2.9297085,-1.4697412,10.678956017791553,5.270246130657358,left
28/07/2020, 18:09:18,0.22513184,-3.1374757,-10.205178,4.113565,-2.8759525,-1.4550805,10.678956017791553,5.225875880182635,left
28/07/2020, 18:09:18,0.21555176,-2.4644752,-10.559642,4.113565,-2.8759525,-1.4550805,10.845558358160606,5.225875880182635,left
28/07/2020, 18:09:18,0.21555176,-2.4644752,-10.559642,4.036596,-2.801427,-1.389107,10.845558358160606,5.106047067731913,left
28/07/2020, 18:09:18,0.34967285,-1.8944606,-10.720108,4.036596,-2.801427,-1.389107,10.891830339139075,5.106047067731913,left
28/07/2020, 18:09:18,0.34967285,-1.8944606,-10.720108,3.8447845,-2.7220144,-1.298699,10.891830339139075,4.886547812878105,left
28/07/2020, 18:09:18,0.51971924,-1.3124708,-10.703342,3.8447845,-2.7220144,-1.298699,10.796028298202511,4.886547812878105,left
28/07/2020, 18:09:18,0.51971924,-1.3124708,-10.703342,3.5601213,-2.684141,-1.1924086,10.796028298202511,4.615291357562131,left
28/07/2020, 18:09:18,0.6777906,-0.9915381,-10.686578,3.5601213,-2.684141,-1.1924086,10.753859442157266,4.615291357562131,left
28/07/2020, 18:09:18,0.6777906,-0.9915381,-10.686578,3.1911588,-2.6890278,-1.0763441,10.753859442157266,4.309626600028077,left
28/07/2020, 18:09:18,0.83586186,-0.91250247,-10.679393,3.1911588,-2.6890278,-1.0763441,10.750849115051016,4.309626600028077,left
28/07/2020, 18:09:18,0.83586186,-0.91250247,-10.679393,2.778214,-2.6804757,-0.9407321,10.750849115051016,3.9734619505603472,left
28/07/2020, 18:09:18,0.83586186,-1.1496094,-10.756033,2.778214,-2.6804757,-0.9407321,10.849539696130208,3.9734619505603472,left
28/07/2020, 18:09:18,0.83586186,-1.1496094,-10.756033,2.3420565,-2.63405,-0.7770203,10.849539696130208,3.6093223815241404,left
28/07/2020, 18:09:18,0.72569096,-1.8465601,-10.684182,2.3420565,-2.63405,-0.7770203,10.866837636976681,3.6093223815241404,left
28/07/2020, 18:09:18,0.72569096,-1.8465601,-10.684182,1.9547681,-2.5680766,-0.62308234,10.866837636976681,3.286999734508175,left
28/07/2020, 18:09:18,0.53169435,-2.4165747,-10.176438,1.9547681,-2.5680766,-0.62308234,10.472937952757583,3.286999734508175,left
28/07/2020, 18:09:18,0.53169435,-2.4165747,-10.176438,1.7409652,-2.5106552,-0.50701797,10.472937952757583,3.0970012221367287,left
28/07/2020, 18:09:18,0.27303225,-2.9865894,-9.592053,1.7409652,-2.5106552,-0.50701797,10.049962772454617,3.0970012221367287,left
28/07/2020, 18:09:18,0.27303225,-2.9865894,-9.592053,1.7482957,-2.4654512,-0.41660994,10.049962772454617,3.0509918707735144,left
28/07/2020, 18:09:18,-0.07664063,-3.412903,-9.24717,1.7482957,-2.4654512,-0.41660994,9.857177205171933,3.0509918707735144,left
28/07/2020, 18:09:18,-0.07664063,-3.412903,-9.24717,1.882686,-2.434908,-0.321315,9.857177205171933,3.094596341182894,left
28/07/2020, 18:09:18,-0.29698244,-3.4464333,-9.388477,1.882686,-2.434908,-0.321315,10.00547887856022,3.094596341182894,left
28/07/2020, 18:09:18,-0.29698244,-3.4464333,-9.388477,2.0598369,-2.4263558,-0.20891583,10.00547887856022,3.189635776774212,left
28/07/2020, 18:09:18,-0.38320315,-2.6441016,-10.073453,2.0598369,-2.4263558,-0.20891583,10.421735573068574,3.189635776774212,left
28/07/2020, 18:09:18,-0.38320315,-2.6441016,-10.073453,2.2797482,-2.4275775,-0.0488692,10.421735573068574,3.330581414315885,left
28/07/2020, 18:09:18,-0.39517823,-1.6214283,-10.98356,2.2797482,-2.4275775,-0.0488692,11.109625424781887,3.330581414315885,left
28/07/2020, 18:09:18,-0.39517823,-1.6214283,-10.98356,2.4410167,-2.4507904,0.19181162,11.109625424781887,3.4643509798450527,left
28/07/2020, 18:09:19,-4.1625443,-4.888235,-0.45984375,7.0115085,2.21744,-0.10384705,6.436852742787206,7.354527505361904,left
28/07/2020, 18:09:19,-5.343289,-3.8655617,0.18441652,7.0115085,2.21744,-0.10384705,6.597523258334588,7.354527505361904,left
28/07/2020, 18:09:19,-5.343289,-3.8655617,0.18441652,6.6791983,2.299296,-0.21135929,6.597523258334588,7.067044917129939,left
28/07/2020, 18:09:19,-6.725215,-2.907554,1.8920655,6.6791983,2.299296,-0.21135929,7.567185601765272,7.067044917129939,left
28/07/2020, 18:09:19,-6.725215,-2.907554,1.8920655,6.4837213,2.4410167,-0.20647237,7.567185601765272,6.9310774465541485,left
28/07/2020, 18:09:19,-7.2593045,-2.4165747,3.1470559,6.4837213,2.4410167,-0.20647237,8.27292548851001,6.9310774465541485,left
28/07/2020, 18:09:19,-7.2593045,-2.4165747,3.1470559,6.1880627,2.552194,-0.18081604,8.27292548851001,6.696156273551445,left
28/07/2020, 18:09:19,-7.5203614,-2.2896388,3.9853127,6.1880627,2.552194,-0.18081604,8.81368248235023,6.696156273551445,left
28/07/2020, 18:09:19,-7.5203614,-2.2896388,3.9853127,5.7629004,2.6535976,-0.27855444,8.81368248235023,6.350605737690598,left
28/07/2020, 18:09:19,-7.3718705,-1.6357985,4.9145803,5.7629004,2.6535976,-0.27855444,9.009628820445354,6.350605737690598,left
28/07/2020, 18:09:19,-7.3718705,-1.6357985,4.9145803,5.2693214,2.7036886,-0.443488,9.009628820445354,5.939053984039882,left
28/07/2020, 18:09:19,-7.668853,-0.7041358,5.1732426,5.2693214,2.7036886,-0.443488,9.2773675808026,5.939053984039882,left
28/07/2020, 18:09:19,-7.668853,-0.7041358,5.1732426,4.8771462,2.6988015,-0.629191,9.2773675808026,5.6094533073812025,left
28/07/2020, 18:09:19,-7.4940166,-0.57959473,6.1552005,4.8771462,2.6988015,-0.629191,9.715076352226342,5.6094533073812025,left
28/07/2020, 18:09:19,-7.4940166,-0.57959473,6.1552005,4.466645,2.674367,-0.7892376,9.715076352226342,5.265553157475748,left
28/07/2020, 18:09:19,-7.561077,-2.3495142,5.621111,4.466645,2.674367,-0.7892376,9.710148933293977,5.265553157475748,left
28/07/2020, 18:09:19,-7.561077,-2.3495142,5.621111,3.8362322,2.6071718,-0.85643274,9.710148933293977,4.716725460513041,left
28/07/2020, 18:09:19,-7.2257743,-4.2343946,5.654641,3.8362322,2.6071718,-0.85643274,10.10528959619276,4.716725460513041,left
28/07/2020, 18:09:19,-7.2257743,-4.2343946,5.654641,3.290119,2.4605644,-0.9382887,10.10528959619276,4.214219417386721,left
28/07/2020, 18:09:19,-6.9886675,-5.271438,6.4426026,3.290119,2.4605644,-0.9382887,10.86906904183997,4.214219417386721,left
28/07/2020, 18:09:19,-6.9886675,-5.271438,6.4426026,2.883283,2.2883003,-1.0189228,10.86906904183997,3.819403371862508,left
28/07/2020, 18:09:19,-6.9311867,-6.006709,7.1227884,2.883283,2.2883003,-1.0189228,11.612752384500135,3.819403371862508,left
28/07/2020, 18:09:19,-6.9311867,-6.006709,7.1227884,2.7940965,2.1697924,-1.0519096,11.612752384500135,3.6907300004846055,left
28/07/2020, 18:09:19,-6.935977,-6.550379,8.157437,2.7940965,2.1697924,-1.0519096,12.552251703026107,3.6907300004846055,left
28/07/2020, 18:09:19,-6.935977,-6.550379,8.157437,2.8441875,2.1514666,-1.0983353,12.552251703026107,3.731561529257962,left
28/07/2020, 18:09:19,-6.564749,-6.686895,8.487949,2.8441875,2.1514666,-1.0983353,12.6434083294026,3.731561529257962,left
28/07/2020, 18:09:19,-6.564749,-6.686895,8.487949,2.9382608,2.2076662,-1.2241734,12.6434083294026,3.8737277832003225,left
28/07/2020, 18:09:19,-6.4905033,-6.104905,8.480764,2.9382608,2.2076662,-1.2241734,12.301213943438619,3.8737277832003225,left
28/07/2020, 18:09:19,-6.4905033,-6.104905,8.480764,3.0640988,2.190562,-1.4453067,12.301213943438619,4.034374167976621,left
28/07/2020, 18:09:19,-6.6557593,-5.326524,8.01613,3.0640988,2.190562,-1.4453067,11.701680873141473,4.034374167976621,left
28/07/2020, 18:09:20,-3.6811452,1.8968556,7.9921803,5.798331,0.5791,-0.8051201,9.001324222821381,5.882534750940645,left
28/07/2020, 18:09:20,-3.9972878,2.193838,8.090376,5.798331,0.5791,-0.8051201,9.286841024503214,5.882534750940645,left
28/07/2020, 18:09:20,-3.9972878,2.193838,8.090376,5.0799537,0.48869202,-0.67317325,9.286841024503214,5.147612204044261,left
28/07/2020, 18:09:20,-4.157754,2.4045997,8.392149,5.0799537,0.48869202,-0.67317325,9.669394075098767,5.147612204044261,left
28/07/2020, 18:09:20,-4.157754,2.4045997,8.392149,4.372572,0.42394033,-0.5742131,9.669394075098767,4.4304437125215035,left
28/07/2020, 18:09:20,-4.014053,2.6369166,8.51669,4.372572,0.42394033,-0.5742131,9.777523340043576,4.4304437125215035,left
28/07/2020, 18:09:20,-4.014053,2.6369166,8.51669,3.7042854,0.3579669,-0.547335,9.777523340043576,3.7615749541063184,left
28/07/2020, 18:09:20,-3.9422023,2.550696,8.892708,3.7042854,0.3579669,-0.547335,10.056205110180475,3.7615749541063184,left
28/07/2020, 18:09:20,-3.9422023,2.550696,8.892708,3.1031942,0.32864538,-0.5497785,10.056205110180475,3.1686083187991727,left
28/07/2020, 18:09:20,-4.102669,1.9591261,9.048384,3.1031942,0.32864538,-0.5497785,10.126367261745614,3.1686083187991727,left
28/07/2020, 18:09:20,-4.102669,1.9591261,9.048384,2.565633,0.33841923,-0.49113548,10.126367261745614,2.634049092803736,left
28/07/2020, 18:09:20,-4.4212065,1.6190332,9.172925,2.565633,0.33841923,-0.49113548,10.310717153487232,2.634049092803736,left
28/07/2020, 18:09:20,-4.4212065,1.6190332,9.172925,2.0964887,0.30787596,-0.43860108,10.310717153487232,2.163890810702601,left
28/07/2020, 18:09:20,-4.6942387,1.5471827,9.17053,2.0964887,0.30787596,-0.43860108,10.417690588654317,2.163890810702601,left
28/07/2020, 18:09:20,-4.6942387,1.5471827,9.17053,1.6542225,0.21258102,-0.45448357,10.417690588654317,1.7286405198630865,left
28/07/2020, 18:09:20,-4.7157936,1.7387843,9.704619,1.6542225,0.21258102,-0.45448357,10.92893947754185,1.7286405198630865,left
28/07/2020, 18:09:20,-4.7157936,1.7387843,9.704619,1.4294242,0.14782934,-0.5143483,10.92893947754185,1.5263227589085773,left
28/07/2020, 18:09:20,-4.5385623,1.6741188,10.243499,1.4294242,0.14782934,-0.5143483,11.328304774101847,1.5263227589085773,left
28/07/2020, 18:09:20,-4.5385623,1.6741188,10.243499,1.4355328,0.11239916,-0.53756124,11.328304774101847,1.5369971045767066,left
28/07/2020, 18:09:20,-4.6822634,1.707649,10.346485,1.4355328,0.11239916,-0.53756124,11.484311476875693,1.5369971045767066,left
28/07/2020, 18:09:20,-4.6822634,1.707649,10.346485,1.8069386,0.12705992,-0.64140826,11.484311476875693,1.921607676939398,left
28/07/2020, 18:09:20,-4.902605,2.1195924,10.607542,1.8069386,0.12705992,-0.64140826,11.876369668020608,1.921607676939398,left
28/07/2020, 18:09:20,-4.902605,2.1195924,10.607542,2.150245,0.17959431,-0.84177196,11.876369668020608,2.3161147421838106,left
28/07/2020, 18:09:20,-5.6666164,3.0728102,9.577683,2.150245,0.17959431,-0.84177196,11.544900366862887,2.3161147421838106,left
28/07/2020, 18:09:20,-5.6666164,3.0728102,9.577683,2.3005176,0.20402892,-0.900415,11.544900366862887,2.478861839150837,left
28/07/2020, 18:09:20,-6.351592,3.2811768,8.746612,2.3005176,0.20402892,-0.900415,11.296550684684739,2.478861839150837,left
28/07/2020, 18:09:20,-6.351592,3.2811768,8.746612,2.3237305,0.21991141,-0.70615995,11.296550684684739,2.4385951271710145,left
28/07/2020, 18:09:20,-6.236631,2.6704469,8.3179035,2.3237305,0.21991141,-0.70615995,10.733795723592957,2.4385951271710145,left
28/07/2020, 18:09:20,-6.236631,2.6704469,8.3179035,2.2724178,0.31642807,-0.35185826,10.733795723592957,2.321166417612356,left
28/07/2020, 18:09:20,-5.5157304,2.3998096,8.008945,2.2724178,0.31642807,-0.35185826,10.016265532115845,2.321166417612356,left
28/07/2020, 18:09:21,1.2502003,0.5292993,9.508228,-1.5894707,-3.2155933,-0.5424481,9.60466365527642,3.627768970984624,left
28/07/2020, 18:09:21,1.4130616,0.023950197,9.14179,-1.5894707,-3.2155933,-0.5424481,9.250386385737121,3.627768970984624,left
28/07/2020, 18:09:21,1.4130616,0.023950197,9.14179,-1.4440849,-3.1606157,-0.7672465,9.250386385737121,3.558586771462466,left
28/07/2020, 18:09:21,1.453777,-0.4382886,9.266331,-1.4440849,-3.1606157,-0.7672465,9.389912104309401,3.558586771462466,left
28/07/2020, 18:09:21,1.453777,-0.4382886,9.266331,-1.0665703,-3.0604336,-0.9932665,9.389912104309401,3.3897499217660703,left
28/07/2020, 18:09:21,1.3220508,-0.974773,8.863968,-1.0665703,-3.0604336,-0.9932665,9.014872576913733,3.3897499217660703,left
28/07/2020, 18:09:21,1.3220508,-0.974773,8.863968,-0.6157519,-2.9663606,-1.0787876,9.014872576913733,3.2159334672571647,left
28/07/2020, 18:09:21,1.0059083,-0.9148975,8.629255,-0.6157519,-2.9663606,-1.0787876,8.735727547838767,3.2159334672571647,left
28/07/2020, 18:09:21,1.0059083,-0.9148975,8.629255,-0.14049895,-2.9077175,-0.94317555,8.735727547838767,3.0600883885239436,left
28/07/2020, 18:09:21,1.3627661,-0.17962648,8.581355,-0.14049895,-2.9077175,-0.94317555,8.690745221650431,3.0600883885239436,left
28/07/2020, 18:09:21,1.3627661,-0.17962648,8.581355,0.23579389,-2.8588483,-0.7440336,8.690745221650431,2.963477435690743,left
28/07/2020, 18:09:21,1.954336,0.56522465,8.2197075,0.23579389,-2.8588483,-0.7440336,8.467732842525901,2.963477435690743,left
28/07/2020, 18:09:21,1.954336,0.56522465,8.2197075,0.33964095,-2.819753,-0.62063885,8.467732842525901,2.9071558516413853,left
28/07/2020, 18:09:21,2.459685,0.98435307,8.020921,0.33964095,-2.819753,-0.62063885,8.44713983661599,2.9071558516413853,left
28/07/2020, 18:09:21,2.459685,0.98435307,8.020921,0.23335044,-2.8258615,-0.61941713,8.44713983661599,2.9023478371173534,left
28/07/2020, 18:09:21,2.7734327,1.0274634,7.9706254,0.23335044,-2.8258615,-0.61941713,8.501675099957057,2.9023478371173534,left
28/07/2020, 18:09:21,2.7734327,1.0274634,7.9706254,0.073303804,-2.886948,-0.69394267,8.501675099957057,2.9700840482371462,left
28/07/2020, 18:09:21,3.151846,0.7113208,7.824529,0.073303804,-2.886948,-0.69394267,8.46542183427077,2.9700840482371462,left
28/07/2020, 18:09:21,3.151846,0.7113208,7.824529,-0.03420844,-2.9578085,-0.7696899,8.46542183427077,3.056505173733038,left
28/07/2020, 18:09:21,3.4009278,0.4047583,7.767049,-0.03420844,-2.9578085,-0.7696899,8.48865046286622,3.056505173733038,left
28/07/2020, 18:09:21,3.4009278,0.4047583,7.767049,0.021991141,-3.004234,-0.79045933,8.48865046286622,3.1065627228520554,left
28/07/2020, 18:09:21,3.542234,0.047900394,7.5251517,0.021991141,-3.004234,-0.79045933,8.317308718242929,3.1065627228520554,left
28/07/2020, 18:09:21,3.542234,0.047900394,7.5251517,0.17226394,-2.98713,-0.74647707,8.317308718242929,3.0838041563155763,left
28/07/2020, 18:09:21,3.67875,-0.3305127,6.9168167,0.17226394,-2.98713,-0.74647707,7.841224005798844,3.0838041563155763,left
28/07/2020, 18:09:21,3.67875,-0.3305127,6.9168167,0.35185826,-2.940704,-0.63774306,7.841224005798844,3.0295645043049175,left
28/07/2020, 18:09:21,3.7362306,-0.23231691,6.5407987,0.35185826,-2.940704,-0.63774306,7.536274775776161,3.0295645043049175,left
28/07/2020, 18:09:21,3.7362306,-0.23231691,6.5407987,0.55466545,-2.915048,-0.49724412,7.536274775776161,3.008722259989921,left
28/07/2020, 18:09:21,4.026028,-0.08861572,6.1480155,0.55466545,-2.915048,-0.49724412,7.3494795760568215,3.008722259989921,left
28/07/2020, 18:09:21,4.026028,-0.08861572,6.1480155,0.67683846,-2.9064958,-0.3946188,7.3494795760568215,3.0102412184439653,left
28/07/2020, 18:09:21,4.5792775,-0.06227051,5.604346,0.67683846,-2.9064958,-0.3946188,7.237565337098167,3.0102412184439653,left
28/07/2020, 18:09:22,1.22146,-3.3985329,-10.636282,4.7207646,-0.92607135,1.9840896,11.232652591014688,5.2038292139221545,left
28/07/2020, 18:09:22,2.9003687,-4.258345,-11.381133,4.7207646,-0.92607135,1.9840896,12.493031334959051,5.2038292139221545,left
28/07/2020, 18:09:22,2.9003687,-4.258345,-11.381133,5.304752,-0.7660247,1.92789,12.493031334959051,5.695958735935249,left
28/07/2020, 18:09:22,3.7027004,-5.4678297,-10.669812,5.304752,-0.7660247,1.92789,12.547989647305965,5.695958735935249,left
28/07/2020, 18:09:22,3.7027004,-5.4678297,-10.669812,5.9840336,-0.1869247,1.9828678,12.547989647305965,6.306771253370469,left
28/07/2020, 18:09:22,3.7146754,-6.8114357,-10.092612,5.9840336,-0.1869247,1.9828678,12.730093957813494,6.306771253370469,left
28/07/2020, 18:09:22,3.7146754,-6.8114357,-10.092612,6.646211,0.49480066,2.0696106,12.730093957813494,6.978555604324838,left
28/07/2020, 18:09:22,3.5733693,-7.671248,-10.667418,6.646211,0.49480066,2.0696106,13.616563804095785,6.978555604324838,left
28/07/2020, 18:09:22,3.5733693,-7.671248,-10.667418,7.4000187,1.0653486,1.9816461,13.616563804095785,7.734479002895277,left
28/07/2020, 18:09:22,2.4165747,-8.1071415,-9.972861,7.4000187,1.0653486,1.9816461,13.077596831444643,7.734479002895277,left
28/07/2020, 18:09:22,2.4165747,-8.1071415,-9.972861,8.167265,1.3683376,1.8313733,13.077596831444643,8.481184630376589,left
28/07/2020, 18:09:22,1.5591577,-8.205338,-9.453142,8.167265,1.3683376,1.8313733,12.614294808951177,8.481184630376589,left
28/07/2020, 18:09:22,1.5591577,-8.205338,-9.453142,8.669396,1.5234973,1.6896527,12.614294808951177,8.962946183375248,left
28/07/2020, 18:09:22,0.8334668,-8.777747,-8.832832,8.669396,1.5234973,1.6896527,12.480482328029755,8.962946183375248,left
28/07/2020, 18:09:22,0.8334668,-8.777747,-8.832832,8.921073,1.6762136,1.6139053,12.480482328029755,9.219540401475028,left
28/07/2020, 18:09:22,0.07903565,-9.81958,-8.631651,8.921073,1.6762136,1.6139053,13.074241745883931,9.219540401475028,left
28/07/2020, 18:09:22,0.07903565,-9.81958,-8.631651,9.061571,1.7971649,1.5601492,13.074241745883931,9.36888138613922,left
28/07/2020, 18:09:22,0.1580713,-11.235037,-8.061636,9.061571,1.7971649,1.5601492,13.828991795661395,9.36888138613922,left
28/07/2020, 18:09:22,0.1580713,-11.235037,-8.061636,9.065237,1.9682071,1.4440849,13.828991795661395,9.388170381206022,left
28/07/2020, 18:09:22,0.7879615,-12.164305,-7.062913,9.065237,1.9682071,1.4440849,14.088148641839096,9.388170381206022,left
28/07/2020, 18:09:22,0.7879615,-12.164305,-7.062913,8.923516,2.15391,1.2058475,14.088148641839096,9.258646706265823,left
28/07/2020, 18:09:22,1.575923,-13.076807,-5.879773,8.923516,2.15391,1.2058475,14.424220854701405,9.258646706265823,left
28/07/2020, 18:09:22,1.575923,-13.076807,-5.879773,8.814782,2.3603823,0.78801584,14.424220854701405,9.159298984070505,left
28/07/2020, 18:09:22,2.1627028,-12.755875,-3.7577858,8.814782,2.3603823,0.78801584,13.472586060816186,9.159298984070505,left
28/07/2020, 18:09:22,2.1627028,-12.755875,-3.7577858,9.006594,2.579072,0.32253674,13.472586060816186,9.374133158508155,left
28/07/2020, 18:09:22,2.1770728,-11.867322,-1.7244141,9.006594,2.579072,0.32253674,12.187968679594121,9.374133158508155,left
28/07/2020, 18:09:22,2.1770728,-11.867322,-1.7244141,9.525829,2.805092,-0.0488692,12.187968679594121,9.9303753206839,left
28/07/2020, 18:09:22,1.1352394,-11.239827,-0.53169435,9.525829,2.805092,-0.0488692,11.309517310368971,9.9303753206839,left
28/07/2020, 18:09:22,1.1352394,-11.239827,-0.53169435,10.379818,2.940704,-0.13194685,11.309517310368971,10.789150641022237,left
28/07/2020, 18:09:22,-0.050295413,-10.205178,-0.2706372,10.379818,2.940704,-0.13194685,10.20889011915568,10.789150641022237,left
28/07/2020, 18:09:23,-9.572893,-1.8154249,8.562195,-3.0946422,0.30176732,-1.7153089,12.971015032233492,3.5510784652375396,left
28/07/2020, 18:09:23,-10.528506,-2.5075855,8.969349,-3.0946422,0.30176732,-1.7153089,14.056551833877123,3.5510784652375396,left
28/07/2020, 18:09:23,-10.528506,-2.5075855,8.969349,-3.5039217,-0.21013756,-1.696983,14.056551833877123,3.8988942841178256,left
28/07/2020, 18:09:23,-11.400293,-3.9278321,10.87818,-3.5039217,-0.21013756,-1.696983,16.23974581117908,3.8988942841178256,left
28/07/2020, 18:09:23,-11.400293,-3.9278321,10.87818,-3.221702,-0.48624855,-1.7556261,16.23974581117908,3.701084301942539,left
28/07/2020, 18:09:23,-10.842254,-5.1852174,10.777588,-3.221702,-0.48624855,-1.7556261,16.143027751734635,3.701084301942539,left
28/07/2020, 18:09:23,-10.842254,-5.1852174,10.777588,-2.6120589,-0.36407554,-1.7910563,16.143027751734635,3.1879907721480265,left
28/07/2020, 18:09:23,-10.197993,-6.1647806,9.965676,-2.6120589,-0.36407554,-1.7910563,15.534422783953154,3.1879907721480265,left
28/07/2020, 18:09:23,-10.197993,-6.1647806,9.965676,-1.7519609,-0.00977384,-1.8411472,15.534422783953154,2.5415124208060837,left
28/07/2020, 18:09:23,-9.69504,-6.5048733,9.395662,-1.7519609,-0.00977384,-1.8411472,14.986181710904184,2.5415124208060837,left
28/07/2020, 18:09:23,-9.69504,-6.5048733,9.395662,-1.0140359,0.24312428,-1.9572115,14.986181710904184,2.2176688516824687,left
28/07/2020, 18:09:23,-9.316627,-5.8893533,8.758587,-1.0140359,0.24312428,-1.9572115,14.078240530942523,2.2176688516824687,left
28/07/2020, 18:09:23,-9.316627,-5.8893533,8.758587,-0.3824015,0.35674515,-2.1612403,14.078240530942523,2.2236136834139963,left
28/07/2020, 18:09:23,-9.148975,-5.1947975,8.986114,-0.3824015,0.35674515,-2.1612403,13.836181131246315,2.2236136834139963,left
28/07/2020, 18:09:23,-9.148975,-5.1947975,8.986114,0.11972954,0.36041036,-2.3383913,13.836181131246315,2.3690303254979,left
28/07/2020, 18:09:23,-9.034014,-4.905,9.043594,0.11972954,0.36041036,-2.3383913,13.691567858171249,2.3690303254979,left
28/07/2020, 18:09:23,-9.034014,-4.905,9.043594,0.38728842,0.34697133,-2.4959943,13.691567858171249,2.5495821461459545,left
28/07/2020, 18:09:23,-9.031619,-5.0271463,8.428074,0.38728842,0.34697133,-2.4959943,13.336970149069462,2.5495821461459545,left
28/07/2020, 18:09:23,-9.031619,-5.0271463,8.428074,0.4105013,0.3494148,-2.615724,13.336970149069462,2.6706955116287454,left
28/07/2020, 18:09:23,-8.871153,-4.878655,8.265213,0.4105013,0.3494148,-2.615724,13.06952079130461,2.6706955116287454,left
28/07/2020, 18:09:23,-8.871153,-4.878655,8.265213,0.4838051,0.28466308,-2.620611,13.06952079130461,2.6800563797788715,left
28/07/2020, 18:09:23,-9.268726,-4.8020144,8.337064,0.4838051,0.28466308,-2.620611,13.359463409303377,2.6800563797788715,left
28/07/2020, 18:09:23,-9.268726,-4.8020144,8.337064,0.6682863,0.11972954,-2.5350897,13.359463409303377,2.6244278840550175,left
28/07/2020, 18:09:23,-8.871153,-4.366121,7.8436894,0.6682863,0.11972954,-2.5350897,12.620769723458507,2.6244278840550175,left
28/07/2020, 18:09:23,-8.871153,-4.366121,7.8436894,1.0152576,0.07086034,-2.483777,12.620769723458507,2.6841977556443544,left
28/07/2020, 18:09:23,-8.377779,-3.896697,7.30481,1.0152576,0.07086034,-2.483777,11.77844127081282,2.6841977556443544,left
28/07/2020, 18:09:23,-8.377779,-3.896697,7.30481,1.357342,0.15027279,-2.3200653,11.77844127081282,2.6921482200423554,left
28/07/2020, 18:09:23,-7.678433,-2.794988,5.9372535,1.357342,0.15027279,-2.3200653,10.100557842053282,2.6921482200423554,left
28/07/2020, 18:09:23,-7.678433,-2.794988,5.9372535,1.5821403,0.19058989,-2.2773046,10.100557842053282,2.779497973524759,left
28/07/2020, 18:09:23,-6.567144,-1.7699195,6.325247,1.5821403,0.19058989,-2.2773046,9.288096766023516,2.779497973524759,left
28/07/2020, 18:09:24,-4.0356083,4.5625124,7.2976246,-4.4141107,-1.1301003,0.06475169,9.50568136909592,4.556938915636377,left
28/07/2020, 18:09:24,-3.8416114,3.8176613,7.158714,-4.4141107,-1.1301003,0.06475169,8.976619589149745,4.556938915636377,left
28/07/2020, 18:09:24,-3.8416114,3.8176613,7.158714,-4.4189973,-0.9920448,0.02321287,8.976619589149745,4.529042808869161,left
28/07/2020, 18:09:24,-3.6308498,3.4368532,6.6749196,-4.4189973,-0.9920448,0.02321287,8.339639200795345,4.529042808869161,left
28/07/2020, 18:09:24,-3.6308498,3.4368532,6.6749196,-4.6083655,-0.9065237,0.021991141,8.339639200795345,4.696733093132014,left
28/07/2020, 18:09:24,-3.4296682,3.1111305,6.423443,-4.6083655,-0.9065237,0.021991141,7.918483102543304,4.696733093132014,left
28/07/2020, 18:09:24,-3.4296682,3.1111305,6.423443,-4.8710375,-0.9211844,0.05619958,7.918483102543304,4.957695562704417,left
28/07/2020, 18:09:24,-3.396138,2.7159522,6.480923,-4.8710375,-0.9211844,0.05619958,7.804646970213234,4.957695562704417,left
28/07/2020, 18:09:24,-3.396138,2.7159522,6.480923,-5.0384145,-1.0421357,0.12950338,7.804646970213234,5.14669198914988,left
28/07/2020, 18:09:24,-3.2260914,2.2944288,6.983877,-5.0384145,-1.0421357,0.12950338,8.02786458229894,5.14669198914988,left
28/07/2020, 18:09:24,-3.2260914,2.2944288,6.983877,-5.054297,-1.1740825,0.22235486,8.02786458229894,5.193633535996446,left
28/07/2020, 18:09:24,-2.7375073,1.839375,7.6089773,-5.054297,-1.1740825,0.22235486,8.292996004962166,5.193633535996446,left
28/07/2020, 18:09:24,-2.7375073,1.839375,7.6089773,-4.927237,-1.266934,0.2651154,8.292996004962166,5.0944158470808265,left
28/07/2020, 18:09:24,-2.311194,1.3196558,8.435259,-4.927237,-1.266934,0.2651154,8.845151266939249,5.0944158470808265,left
28/07/2020, 18:09:24,-2.311194,1.3196558,8.435259,-4.635244,-1.293812,0.22479832,8.845151266939249,4.8176726555268035,left
28/07/2020, 18:09:24,-1.6429834,0.57001466,9.175321,-4.635244,-1.293812,0.22479832,9.338673345696858,4.8176726555268035,left
28/07/2020, 18:09:24,-1.6429834,0.57001466,9.175321,-4.1929774,-1.2473863,0.16371182,9.338673345696858,4.3776516474192135,left
28/07/2020, 18:09:24,-0.96758795,-0.17483643,9.79084,-4.1929774,-1.2473863,0.16371182,9.840088670069473,4.3776516474192135,left
28/07/2020, 18:09:24,-0.96758795,-0.17483643,9.79084,-3.633425,-1.1191047,0.14416414,9.840088670069473,3.8045966852920996,left
28/07/2020, 18:09:24,-0.32093263,-0.7711963,10.015972,-3.633425,-1.1191047,0.14416414,10.050743223816811,3.8045966852920996,left
28/07/2020, 18:09:24,-0.32093263,-0.7711963,10.015972,-3.0164514,-0.92607135,0.15393798,10.050743223816811,3.1591587233551333,left
28/07/2020, 18:09:24,0.39996827,-0.87897223,10.250684,-3.0164514,-0.92607135,0.15393798,10.296071330800185,3.1591587233551333,left
28/07/2020, 18:09:24,0.39996827,-0.87897223,10.250684,-2.3371696,-0.701273,0.14905107,10.296071330800185,2.444659901849047,left
28/07/2020, 18:09:24,0.8813672,-0.68018556,10.018367,-2.3371696,-0.701273,0.14905107,10.080036416452655,2.444659901849047,left
28/07/2020, 18:09:24,0.8813672,-0.68018556,10.018367,-1.7128655,-0.4960224,0.12583819,10.080036416452655,1.787674914317428,left
28/07/2020, 18:09:24,0.9580079,-0.51732427,9.510623,-1.7128655,-0.4960224,0.12583819,9.57274009444459,1.787674914317428,left
28/07/2020, 18:09:24,0.9580079,-0.51732427,9.510623,-1.2461647,-0.37018418,0.11484262,9.57274009444459,1.3050484918577072,left
28/07/2020, 18:09:24,0.54366946,-0.58198977,9.429193,-1.2461647,-0.37018418,0.11484262,9.462767068063183,1.3050484918577072,left
28/07/2020, 18:09:24,0.54366946,-0.58198977,9.429193,-0.918741,-0.35307997,0.12950338,9.462767068063183,0.9927344043852951,left
28/07/2020, 18:09:24,0.031135255,-0.55324954,10.044712,-0.918741,-0.35307997,0.12950338,10.059984838819656,0.9927344043852951,left
28/07/2020, 18:09:25,4.8259645,-3.5781593,-2.2513185,2.4422383,-3.1459548,-0.5766566,6.415730034263278,4.024188461954693,left
28/07/2020, 18:09:25,4.3014555,-3.9709425,-2.572251,2.4422383,-3.1459548,-0.5766566,6.394323994110088,4.024188461954693,left
28/07/2020, 18:09:25,4.3014555,-3.9709425,-2.572251,2.846631,-2.9981256,-0.44593146,6.394323994110088,4.15823520724348,left
28/07/2020, 18:09:25,3.9254372,-3.539839,-2.4860303,2.846631,-2.9981256,-0.44593146,5.841221148962662,4.15823520724348,left
28/07/2020, 18:09:25,3.9254372,-3.539839,-2.4860303,3.0017908,-2.9468129,-0.3750711,5.841221148962662,4.223166133901669,left
28/07/2020, 18:09:25,3.8104763,-2.3710694,-2.4525,3.0017908,-2.9468129,-0.3750711,5.11433834128275,4.223166133901669,left
28/07/2020, 18:09:25,3.8104763,-2.3710694,-2.4525,3.0323339,-2.950478,-0.3298671,5.11433834128275,4.243722630633419,left
28/07/2020, 18:09:25,3.7362306,-0.8981324,-3.2260914,3.0323339,-2.950478,-0.3298671,5.017342582192178,4.243722630633419,left
28/07/2020, 18:09:25,3.7362306,-0.8981324,-3.2260914,2.9944603,-3.0201166,-0.30176732,5.017342582192178,4.263679203542138,left
28/07/2020, 18:09:25,3.5015187,-0.06945557,-4.471502,2.9944603,-3.0201166,-0.30176732,5.679769894845303,4.263679203542138,left
28/07/2020, 18:09:25,3.5015187,-0.06945557,-4.471502,2.883283,-3.104416,-0.2736675,5.679769894845303,4.245658044303218,left
28/07/2020, 18:09:25,3.530259,-0.6562354,-6.310877,2.883283,-3.104416,-0.2736675,7.26089108332173,4.245658044303218,left
28/07/2020, 18:09:25,3.530259,-0.6562354,-6.310877,2.637715,-3.181385,-0.29932386,7.26089108332173,4.143470345148634,left
28/07/2020, 18:09:25,3.3458424,-2.1579127,-6.983877,2.637715,-3.181385,-0.29932386,8.039016666009516,4.143470345148634,left
28/07/2020, 18:09:25,3.3458424,-2.1579127,-6.983877,2.366491,-3.2204804,-0.36163208,8.039016666009516,4.0127985330238065,left
28/07/2020, 18:09:25,2.9794044,-3.6045046,-7.110813,2.366491,-3.2204804,-0.36163208,8.510756000675906,4.0127985330238065,left
28/07/2020, 18:09:25,2.9794044,-3.6045046,-7.110813,2.1197016,-3.1838284,-0.41172302,8.510756000675906,3.8470006244754593,left
28/07/2020, 18:09:25,3.0656252,-3.8583767,-6.7707205,2.1197016,-3.1838284,-0.41172302,8.374233381770836,3.8470006244754593,left
28/07/2020, 18:09:25,3.0656252,-3.8583767,-6.7707205,1.9999721,-3.1190767,-0.45448357,8.374233381770836,3.732972458422927,left
28/07/2020, 18:09:25,2.924319,-3.4344583,-6.11209,1.9999721,-3.1190767,-0.45448357,7.596366948443949,3.732972458422927,left
28/07/2020, 18:09:25,2.924319,-3.4344583,-6.11209,1.9926417,-3.0787597,-0.4508184,7.596366948443949,3.6949450905246257,left
28/07/2020, 18:09:25,2.7303224,-2.931504,-5.7767873,1.9926417,-3.0787597,-0.4508184,7.029910899342321,3.6949450905246257,left
28/07/2020, 18:09:25,2.7303224,-2.931504,-5.7767873,2.0586152,-3.0824249,-0.41783166,7.029910899342321,3.73012372501523,left
28/07/2020, 18:09:25,2.5866213,-2.5099807,-5.8198977,2.0586152,-3.0824249,-0.41783166,6.845569468789857,3.73012372501523,left
28/07/2020, 18:09:25,2.5866213,-2.5099807,-5.8198977,2.1392493,-3.104416,-0.4031709,6.845569468789857,3.7916134427529133,left
28/07/2020, 18:09:25,2.2944288,-2.3926246,-6.0833497,2.1392493,-3.104416,-0.4031709,6.927928970550089,3.7916134427529133,left
28/07/2020, 18:09:25,2.2944288,-2.3926246,-6.0833497,2.1392493,-3.1471765,-0.42394033,6.927928970550089,3.8289467253884037,left
28/07/2020, 18:09:25,1.8274,-2.2297633,-7.1563187,2.1392493,-3.1471765,-0.42394033,7.715188378344523,3.8289467253884037,left
28/07/2020, 18:09:25,1.8274,-2.2297633,-7.1563187,2.0415108,-3.2143717,-0.42394033,7.715188378344523,3.831406678855979,left
28/07/2020, 18:09:25,1.341211,-1.9830762,-7.398216,2.0415108,-3.2143717,-0.42394033,7.77592661402113,3.831406678855979,left
28/07/2020, 18:09:26,-7.1203933,-4.521797,3.3218923,1.7580695,1.5577058,-0.31031942,9.065407786947887,2.3692939454253286,left
28/07/2020, 18:09:26,-7.1203933,-4.521797,3.3218923,1.434311,1.1728609,-0.080634184,9.065407786947887,1.854549165667126,left
28/07/2020, 18:09:26,-6.8976564,-5.0582814,5.5492606,1.434311,1.1728609,-0.080634184,10.195987872824373,1.854549165667126,left
28/07/2020, 18:09:26,-6.8976564,-5.0582814,5.5492606,1.5772535,0.9224062,0.08307764,10.195987872824373,1.8290608424939925,left
28/07/2020, 18:09:26,-5.6450615,-5.223538,7.2425394,1.5772535,0.9224062,0.08307764,10.564395142426646,1.8290608424939925,left
28/07/2020, 18:09:26,-5.6450615,-5.223538,7.2425394,2.023185,0.90896714,0.07574726,10.564395142426646,2.2192873873847385,left
28/07/2020, 18:09:26,-4.9217653,-5.039121,8.49274,2.023185,0.90896714,0.07574726,11.033727527053703,2.2192873873847385,left
28/07/2020, 18:09:26,-4.9217653,-5.039121,8.49274,2.7354536,1.0702355,0.03176498,11.033727527053703,2.937536288868543,left
28/07/2020, 18:09:26,-3.8008962,-5.118157,8.5598,2.7354536,1.0702355,0.03176498,10.672980858538322,2.937536288868543,left
28/07/2020, 18:09:26,-3.8008962,-5.118157,8.5598,3.3414316,1.4147633,-0.108733974,10.672980858538322,3.6302263864821236,left
28/07/2020, 18:09:26,-2.787803,-5.616321,7.5131764,3.3414316,1.4147633,-0.108733974,9.785843243680583,3.6302263864821236,left
28/07/2020, 18:09:26,-2.787803,-5.616321,7.5131764,3.6468642,1.8533645,-0.26633716,9.785843243680583,4.099452847316479,left
28/07/2020, 18:09:26,-2.818938,-5.3049684,6.7898808,3.6468642,1.8533645,-0.26633716,9.06595728242714,4.099452847316479,left
28/07/2020, 18:09:26,-2.818938,-5.3049684,6.7898808,4.013383,2.2027793,-0.32253674,9.06595728242714,4.589499859053895,left
28/07/2020, 18:09:26,-3.4679885,-5.2091675,5.391189,4.013383,2.2027793,-0.32253674,8.25998122927299,4.589499859053895,left
28/07/2020, 18:09:26,-3.4679885,-5.2091675,5.391189,4.393341,2.366491,-0.36407554,8.25998122927299,5.003426499617687,left
28/07/2020, 18:09:26,-3.7529957,-5.455855,3.6883302,4.393341,2.366491,-0.36407554,7.579914842824514,5.003426499617687,left
28/07/2020, 18:09:26,-3.7529957,-5.455855,3.6883302,4.49108,2.3371696,-0.44959664,7.579914842824514,5.08274501987289,left
28/07/2020, 18:09:26,-4.0691385,-4.967271,3.9326222,4.49108,2.3371696,-0.44959664,7.529753341431426,5.08274501987289,left
28/07/2020, 18:09:26,-4.0691385,-4.967271,3.9326222,4.6047006,2.1734576,-0.5925391,7.529753341431426,5.126235254574345,left
28/07/2020, 18:09:26,-4.1864944,-4.119434,4.9145803,4.6047006,2.1734576,-0.5925391,7.658300751841587,5.126235254574345,left
28/07/2020, 18:09:26,-4.1864944,-4.119434,4.9145803,4.7170997,2.0989323,-0.72448593,7.658300751841587,5.2135808990639925,left
28/07/2020, 18:09:26,-4.0595584,-3.0943654,5.5588408,4.7170997,2.0989323,-0.72448593,7.546908095884686,5.2135808990639925,left
28/07/2020, 18:09:26,-4.0595584,-3.0943654,5.5588408,4.745199,2.185675,-0.7684682,7.546908095884686,5.28059027484159,left
28/07/2020, 18:09:26,-3.896697,-2.2680836,6.071375,4.745199,2.185675,-0.7684682,7.562409936032042,5.28059027484159,left
28/07/2020, 18:09:26,-3.896697,-2.2680836,6.071375,4.6401305,2.326174,-0.76235956,7.562409936032042,5.246245220565739,left
28/07/2020, 18:09:26,-3.906277,-1.5160475,5.6354814,4.6401305,2.326174,-0.76235956,7.022538688281094,5.246245220565739,left
28/07/2020, 18:09:26,-3.906277,-1.5160475,5.6354814,4.2198553,2.3823736,-0.8161157,7.022538688281094,4.914155823482267,left
28/07/2020, 18:09:26,-4.390071,-0.8382569,5.223538,4.2198553,2.3823736,-0.8161157,6.874645131582326,4.914155823482267,left
28/07/2020, 18:09:26,-4.390071,-0.8382569,5.223538,3.56623,2.381152,-0.86376315,6.874645131582326,4.374239140374522,left
28/07/2020, 18:09:27,-2.7470875,-6.353987,-0.5484595,3.8350105,1.1362089,-0.25900677,6.944094682460507,4.008161786439286,left
28/07/2020, 18:09:27,-3.2668068,-6.3156667,-0.12693603,3.8350105,1.1362089,-0.25900677,7.111665434282713,4.008161786439286,left
28/07/2020, 18:09:27,-3.2668068,-6.3156667,-0.12693603,3.6212077,1.0739007,-0.23335044,7.111665434282713,3.7842912743871135,left
28/07/2020, 18:09:27,-3.4608033,-6.318062,0.5388794,3.6212077,1.0739007,-0.23335044,7.223950134658072,3.7842912743871135,left
28/07/2020, 18:09:27,-3.4608033,-6.318062,0.5388794,3.452609,1.1044439,-0.21502449,7.223950134658072,3.631327747718121,left
28/07/2020, 18:09:27,-3.1087356,-6.502478,1.3675562,3.452609,1.1044439,-0.21502449,7.335984496046112,3.631327747718121,left
28/07/2020, 18:09:27,-3.1087356,-6.502478,1.3675562,3.4562743,1.2205083,-0.24556774,7.335984496046112,3.6736597490288796,left
28/07/2020, 18:09:27,-2.9458742,-7.101233,1.9064356,3.4562743,1.2205083,-0.24556774,7.9208700163055665,3.6736597490288796,left
28/07/2020, 18:09:27,-2.9458742,-7.101233,1.9064356,3.5503476,1.293812,-0.2651154,7.9208700163055665,3.7880342672937184,left
28/07/2020, 18:09:27,-3.661985,-7.699988,1.3148658,3.5503476,1.293812,-0.2651154,8.627213871406687,3.7880342672937184,left
28/07/2020, 18:09:27,-3.661985,-7.699988,1.3148658,3.6627467,1.2644906,-0.14782934,8.627213871406687,3.877693019695248,left
28/07/2020, 18:09:27,-4.366121,-8.076006,2.0812721,3.6627467,1.2644906,-0.14782934,9.41363779342897,3.877693019695248,left
28/07/2020, 18:09:27,-4.366121,-8.076006,2.0812721,3.810576,1.1655304,0.021991141,9.41363779342897,3.9849007499528866,left
28/07/2020, 18:09:27,-4.8020144,-9.110655,2.7662477,3.810576,1.1655304,0.021991141,10.66374699086703,3.9849007499528866,left
28/07/2020, 18:09:27,-4.8020144,-9.110655,2.7662477,4.0927954,0.94684076,0.07086034,10.66374699086703,4.201488138237097,left
28/07/2020, 18:09:27,-5.0558863,-9.8938265,3.0536501,4.0927954,0.94684076,0.07086034,11.522784717780407,4.201488138237097,left
28/07/2020, 18:09:27,-5.0558863,-9.8938265,3.0536501,4.398228,0.6914992,0.06352996,11.522784717780407,4.452709083821272,left
28/07/2020, 18:09:27,-5.4031644,-10.030342,2.9889846,4.398228,0.6914992,0.06352996,11.77862372786524,4.452709083821272,left
28/07/2020, 18:09:27,-5.4031644,-10.030342,2.9889846,4.6279135,0.59986943,0.09407321,11.77862372786524,4.667577126848168,left
28/07/2020, 18:09:27,-5.2115626,-9.285491,3.4895437,4.6279135,0.59986943,0.09407321,11.205250692059689,4.667577126848168,left
28/07/2020, 18:09:27,-5.2115626,-9.285491,3.4895437,4.910133,0.6511821,0.1869247,11.205250692059689,4.9566504755848,left
28/07/2020, 18:09:27,-5.372029,-8.475974,3.6883302,4.910133,0.6511821,0.1869247,10.691333399009125,4.9566504755848,left
28/07/2020, 18:09:27,-5.372029,-8.475974,3.6883302,5.0982795,0.64018655,0.29565868,10.691333399009125,5.146815179059745,left
28/07/2020, 18:09:27,-5.757627,-7.688013,3.6116896,5.0982795,0.64018655,0.29565868,10.26158444839288,5.146815179059745,left
28/07/2020, 18:09:27,-5.757627,-7.688013,3.6116896,5.1618094,0.4190534,0.34452787,10.26158444839288,5.190239103428216,left
28/07/2020, 18:09:27,-5.8965383,-7.1371584,4.3349857,5.1618094,0.4190534,0.34452787,10.222538562801534,5.190239103428216,left
28/07/2020, 18:09:27,-5.8965383,-7.1371584,4.3349857,5.1764703,0.14049895,0.30298904,10.222538562801534,5.187233064712555,left
28/07/2020, 18:09:27,-5.0534916,-7.247329,4.5696974,5.1764703,0.14049895,0.30298904,9.947044408341215,5.187233064712555,left
28/07/2020, 18:09:27,-5.0534916,-7.247329,4.5696974,5.1019444,0.025656331,0.199142,9.947044408341215,5.105893939065059,left
28/07/2020, 18:09:27,-3.7194655,-7.36708,4.27032,5.1019444,0.025656331,0.199142,9.292143282658715,5.105893939065059,left
28/07/2020, 18:09:28,-3.412903,-0.16046631,11.364368,1.6627746,-0.9370669,0.7806855,11.866866764946892,2.0621308084518444,left
28/07/2020, 18:09:28,-2.914739,0.36883304,11.316468,1.6627746,-0.9370669,0.7806855,11.691629228883029,2.0621308084518444,left
28/07/2020, 18:09:28,-2.914739,0.36883304,11.316468,1.3072511,-1.09467,0.610865,11.691629228883029,1.811177519236751,left
28/07/2020, 18:09:28,-2.692002,0.4766089,11.235037,1.3072511,-1.09467,0.610865,11.562875254296145,1.811177519236751,left
28/07/2020, 18:09:28,-2.692002,0.4766089,11.235037,0.9553929,-1.3414595,0.41783166,11.562875254296145,1.699079900314859,left
28/07/2020, 18:09:28,-2.6009912,0.4622388,11.429033,0.9553929,-1.3414595,0.41783166,11.730371770646084,1.699079900314859,left
28/07/2020, 18:09:28,-2.6009912,0.4622388,11.429033,0.6963861,-1.57481,0.3408627,11.730371770646084,1.7553254961992646,left
28/07/2020, 18:09:28,-2.1555176,0.5939649,11.493699,0.6963861,-1.57481,0.3408627,11.709148931536898,1.7553254961992646,left
28/07/2020, 18:09:28,-2.1555176,0.5939649,11.493699,0.3909536,-1.7177525,0.443488,11.709148931536898,1.8166452124206949,left
28/07/2020, 18:09:28,-0.92926764,1.2070899,11.972703,0.3909536,-1.7177525,0.443488,12.06922619860712,1.8166452124206949,left
28/07/2020, 18:09:28,-0.92926764,1.2070899,11.972703,0.010995571,-1.6859875,0.5571089,12.06922619860712,1.7756815489480524,left
28/07/2020, 18:09:28,-0.20597169,1.8489552,12.628939,0.010995571,-1.6859875,0.5571089,12.765232138679814,1.7756815489480524,left
28/07/2020, 18:09:28,-0.20597169,1.8489552,12.628939,-0.18203777,-1.6187923,0.56932616,12.765232138679814,1.7256183022120641,left
28/07/2020, 18:09:28,-0.038320314,2.1219873,12.269686,-0.18203777,-1.6187923,0.56932616,12.451886885791762,1.7256183022120641,left
28/07/2020, 18:09:28,-0.038320314,2.1219873,12.269686,-0.5253439,-1.7458522,0.38117978,12.451886885791762,1.862601473311316,left
28/07/2020, 18:09:28,0.059875492,1.9711012,12.906761,-0.5253439,-1.7458522,0.38117978,13.056542756843712,1.862601473311316,left
28/07/2020, 18:09:28,0.059875492,1.9711012,12.906761,-0.8466589,-1.8680252,0.19425507,13.056542756843712,2.060117566307114,left
28/07/2020, 18:09:28,-0.0023950196,1.5064673,11.943963,-0.8466589,-1.8680252,0.19425507,12.038592232883891,2.060117566307114,left
28/07/2020, 18:09:28,-0.0023950196,1.5064673,11.943963,-1.149648,-2.0195198,0.08185591,12.038592232883891,2.325263651215573,left
28/07/2020, 18:09:28,0.35685793,0.92208254,12.607384,-1.149648,-2.0195198,0.08185591,12.646094585350204,2.325263651215573,left
28/07/2020, 18:09:28,0.35685793,0.92208254,12.607384,-1.2950338,-1.9840896,-0.043982282,12.646094585350204,2.3697380886906476,left
28/07/2020, 18:09:28,0.98914313,0.48379397,13.040882,-1.2950338,-1.9840896,-0.043982282,13.087286463187983,2.3697380886906476,left
28/07/2020, 18:09:28,0.98914313,0.48379397,13.040882,-1.189965,-2.0146327,-0.1588249,13.087286463187983,2.345205107966394,left
28/07/2020, 18:09:28,1.463357,-0.48379397,12.506792,-1.189965,-2.0146327,-0.1588249,12.601401433181014,2.345205107966394,left
28/07/2020, 18:09:28,1.463357,-0.48379397,12.506792,-1.0421357,-2.122145,-0.31887153,12.601401433181014,2.3856288555896716,left
28/07/2020, 18:09:28,1.9088306,-1.2981006,13.48875,-1.0421357,-2.122145,-0.31887153,13.684848865731833,2.3856288555896716,left
28/07/2020, 18:09:28,1.9088306,-1.2981006,13.48875,-0.6658429,-2.0659454,-0.42516205,13.684848865731833,2.211840831317012,left
28/07/2020, 18:09:28,1.9687061,-1.7148341,13.452826,-0.6658429,-2.0659454,-0.42516205,13.703830668046892,2.211840831317012,left
28/07/2020, 18:09:28,1.9687061,-1.7148341,13.452826,-0.15271625,-1.8924598,-0.38851014,13.703830668046892,1.9379541496080157,left
28/07/2020, 18:09:28,1.5615528,-1.4058765,13.718673,-0.15271625,-1.8924598,-0.38851014,13.87864971459307,1.9379541496080157,left
28/07/2020, 18:09:29,4.3254056,-1.0059083,-14.310243,-1.0360271,-1.8936815,0.72692937,14.983458538609337,2.2776760358731947,left
28/07/2020, 18:09:29,6.1887307,-1.2334352,-14.274317,-1.0360271,-1.8936815,0.72692937,15.6069814480282,2.2776760358731947,left
28/07/2020, 18:09:29,6.1887307,-1.2334352,-14.274317,-1.4953976,-1.6749918,-0.11239916,15.6069814480282,2.248209318867362,left
28/07/2020, 18:09:29,4.988826,-3.2668068,-14.2623415,-1.4953976,-1.6749918,-0.11239916,15.458809618542311,2.248209318867362,left
28/07/2020, 18:09:29,4.988826,-3.2668068,-14.2623415,-1.9645419,-1.2107345,0.15271625,15.458809618542311,2.312709487611113,left
28/07/2020, 18:09:29,3.3937428,-3.774551,-14.631175,-1.9645419,-1.2107345,0.15271625,15.486639657629441,2.312709487611113,left
28/07/2020, 18:09:29,3.3937428,-3.774551,-14.631175,-2.44346,-0.72448593,1.054353,15.486639657629441,2.758085717555556,left
28/07/2020, 18:09:29,2.4333398,-3.415298,-15.194005,-2.44346,-0.72448593,1.054353,15.7620808079354,2.758085717555556,left
28/07/2020, 18:09:29,2.4333398,-3.415298,-15.194005,-2.778214,-0.5448916,1.5821403,15.7620808079354,3.243231069546915,left
28/07/2020, 18:09:29,2.0118165,-2.9722195,-14.597645,-2.778214,-0.5448916,1.5821403,15.032389300328214,3.243231069546915,left
28/07/2020, 18:09:29,2.0118165,-2.9722195,-14.597645,-2.968804,-0.5949825,1.4611892,15.032389300328214,3.361974778140216,left
28/07/2020, 18:09:29,1.3867164,-3.7170706,-14.746136,-2.968804,-0.5949825,1.4611892,15.270498171291027,3.361974778140216,left
28/07/2020, 18:09:29,1.3867164,-3.7170706,-14.746136,-2.8820612,-0.6792819,1.1777477,15.270498171291027,3.186658218649005,left
28/07/2020, 18:09:29,0.38320315,-3.7074904,-15.75923,-2.8820612,-0.6792819,1.1777477,16.19400041758349,3.186658218649005,left
28/07/2020, 18:09:29,0.38320315,-3.7074904,-15.75923,-2.3237305,-0.76235956,1.0311401,16.19400041758349,2.654084639311295,left
28/07/2020, 18:09:29,0.76880133,-5.9252787,-12.315191,-2.3237305,-0.76235956,1.0311401,13.688094049910081,2.654084639311295,left
28/07/2020, 18:09:29,0.76880133,-5.9252787,-12.315191,-1.4795151,-0.7122686,0.9761623,13.688094049910081,1.9102838189338116,left
28/07/2020, 18:09:29,1.0418335,-5.719307,-11.527229,-1.4795151,-0.7122686,0.9761623,12.910186077965967,1.9102838189338116,left
28/07/2020, 18:09:29,1.0418335,-5.719307,-11.527229,-0.4960224,-0.6133085,1.0189228,12.910186077965967,1.288560907269237,left
28/07/2020, 18:09:29,1.8489552,-6.2270513,-10.193204,-0.4960224,-0.6133085,1.0189228,12.087026466947153,1.288560907269237,left
28/07/2020, 18:09:29,1.8489552,-6.2270513,-10.193204,0.62063885,-0.55100024,1.1716391,12.087026466947153,1.4358036027242989,left
28/07/2020, 18:09:29,2.8907888,-6.191126,-9.022039,0.62063885,-0.55100024,1.1716391,11.317415542515795,1.4358036027242989,left
28/07/2020, 18:09:29,2.8907888,-6.191126,-9.022039,1.896125,-0.53633946,1.2315038,11.317415542515795,2.3236935247209494,left
28/07/2020, 18:09:29,3.8631666,-6.2725563,-9.620794,1.896125,-0.53633946,1.2315038,12.117289360342422,2.3236935247209494,left
28/07/2020, 18:09:29,3.8631666,-6.2725563,-9.620794,3.014008,-0.47403124,1.1826347,12.117289360342422,3.2722431103230454,left
28/07/2020, 18:09:29,4.0787187,-6.4354177,-10.559642,3.014008,-0.47403124,1.1826347,13.021389404807353,3.2722431103230454,left
28/07/2020, 18:09:29,4.0787187,-6.4354177,-10.559642,3.9119794,-0.28221965,1.1252134,13.021389404807353,4.080359813226752,left
28/07/2020, 18:09:29,4.4283915,-5.597161,-10.423125,3.9119794,-0.28221965,1.1252134,12.632513622688867,4.080359813226752,left
28/07/2020, 18:09:29,4.4283915,-5.597161,-10.423125,4.6889997,0.025656331,1.0531312,12.632513622688867,4.805877793302751,left
28/07/2020, 18:09:29,5.0654664,-3.6548,-9.891431,4.6889997,0.025656331,1.0531312,11.698586104020322,4.805877793302751,left
28/07/2020, 18:09:30,-11.369158,0.1341211,5.8103175,0.70615995,0.46914434,-3.0311122,12.768536603352349,3.1474433152644394,left
28/07/2020, 18:09:30,-12.684024,-0.86220706,8.308323,0.70615995,0.46914434,-3.0311122,15.18736618812923,3.1474433152644394,left
28/07/2020, 18:09:30,-12.684024,-0.86220706,8.308323,0.79290277,0.14049895,-3.1752763,15.18736618812923,3.275792149243962,left
28/07/2020, 18:09:30,-12.363091,-0.728086,9.850716,0.79290277,0.14049895,-3.1752763,15.824434853953282,3.275792149243962,left
28/07/2020, 18:09:30,-12.363091,-0.728086,9.850716,0.6621777,-0.0073303804,-3.2498019,15.824434853953282,3.3165863833484197,left
28/07/2020, 18:09:30,-11.747571,0.5748047,11.955938,0.6621777,-0.0073303804,-3.2498019,16.771412768224003,3.3165863833484197,left
28/07/2020, 18:09:30,-11.747571,0.5748047,11.955938,0.36163208,0.095294945,-3.1984892,16.771412768224003,3.220278245758779,left
28/07/2020, 18:09:30,-10.542876,2.550696,11.917618,0.36163208,0.095294945,-3.1984892,16.114834874052544,3.220278245758779,left
28/07/2020, 18:09:30,-10.542876,2.550696,11.917618,-0.24434601,0.22602005,-2.995682,16.114834874052544,3.0141169001301575,left
28/07/2020, 18:09:30,-9.410032,4.380491,11.227852,-0.24434601,0.22602005,-2.995682,15.290587444618156,3.0141169001301575,left
28/07/2020, 18:09:30,-9.410032,4.380491,11.227852,-1.0922266,0.15149452,-2.819753,15.290587444618156,3.0276915601561116,left
28/07/2020, 18:09:30,-9.359736,4.488267,9.608819,-1.0922266,0.15149452,-2.819753,14.144914604511328,3.0276915601561116,left
28/07/2020, 18:09:30,-9.359736,4.488267,9.608819,-2.2052226,0.073303804,-2.7024667,14.144914604511328,3.48879729983655,left
28/07/2020, 18:09:30,-9.192085,3.9182522,8.241262,-2.2052226,0.073303804,-2.7024667,12.952433694582805,3.48879729983655,left
28/07/2020, 18:09:30,-9.192085,3.9182522,8.241262,-2.968804,-0.06963861,-2.6401587,12.952433694582805,3.9735480044540656,left
28/07/2020, 18:09:30,-9.711804,2.1171973,7.7454934,-2.968804,-0.06963861,-2.6401587,12.60136250594697,3.9735480044540656,left
28/07/2020, 18:09:30,-9.711804,2.1171973,7.7454934,-3.2742364,-0.3176498,-2.742784,12.60136250594697,4.283035123656288,left
28/07/2020, 18:09:30,-9.568104,-0.6945557,6.928792,-3.2742364,-0.3176498,-2.742784,11.833814952859377,4.283035123656288,left
28/07/2020, 18:09:30,-9.568104,-0.6945557,6.928792,-3.1606157,-0.53145254,-2.8527396,11.833814952859377,4.29069415833848,left
28/07/2020, 18:09:30,-9.388477,-4.167334,7.326365,-3.1606157,-0.53145254,-2.8527396,12.616885663605782,4.29069415833848,left
28/07/2020, 18:09:30,-9.388477,-4.167334,7.326365,-2.652376,-0.5082397,-2.7342317,12.616885663605782,3.843101447247106,left
28/07/2020, 18:09:30,-9.163345,-5.6450615,7.577842,-2.652376,-0.5082397,-2.7342317,13.162724260938825,3.843101447247106,left
28/07/2020, 18:09:30,-9.163345,-5.6450615,7.577842,-1.8020518,-0.2651154,-2.5314245,13.162724260938825,3.1186193933334154,left
28/07/2020, 18:09:30,-8.059241,-5.0750465,8.255632,-1.8020518,-0.2651154,-2.5314245,12.604084018972324,3.1186193933334154,left
28/07/2020, 18:09:30,-8.059241,-5.0750465,8.255632,-0.69394267,0.13072512,-2.4642293,12.604084018972324,2.5634101790284247,left
28/07/2020, 18:09:30,-7.3646855,-4.0427933,7.7383084,-0.69394267,0.13072512,-2.4642293,11.422092095799687,2.5634101790284247,left
28/07/2020, 18:09:30,-7.3646855,-4.0427933,7.7383084,0.13683376,0.49113548,-2.4287994,11.422092095799687,2.481734074308618,left
28/07/2020, 18:09:30,-7.9466753,-2.9865894,7.1299734,0.13683376,0.49113548,-2.4287994,11.086292690372495,2.481734074308618,left
28/07/2020, 18:09:30,-7.9466753,-2.9865894,7.1299734,0.5253439,0.70738167,-2.2553136,11.086292690372495,2.4213249721153867,left
28/07/2020, 18:09:30,-8.943004,-1.8130299,6.6126494,0.5253439,0.70738167,-2.2553136,11.269051617392615,2.4213249721153867,left
28/07/2020, 18:09:31,-2.318379,-5.7648125,7.8915896,0.46303567,-0.29077175,-0.4801399,10.044159035013111,0.7276569114571803,left
28/07/2020, 18:09:31,-2.1171973,-5.6426663,7.913145,0.46303567,-0.29077175,-0.4801399,9.946862447511007,0.7276569114571803,left
28/07/2020, 18:09:31,-2.1171973,-5.6426663,7.913145,0.6145302,-0.3090977,-0.44104454,9.946862447511007,0.817134659625155,left
28/07/2020, 18:09:31,-1.9184108,-5.4103494,8.004155,0.6145302,-0.3090977,-0.44104454,9.849806090364572,0.817134659625155,left
28/07/2020, 18:09:31,-1.9184108,-5.4103494,8.004155,0.70982516,-0.34330612,-0.38606668,9.849806090364572,0.8779284297188359,left
28/07/2020, 18:09:31,-1.5615528,-5.225933,7.6209526,0.70982516,-0.34330612,-0.38606668,9.371645648519786,0.8779284297188359,left
28/07/2020, 18:09:31,-1.5615528,-5.225933,7.6209526,0.69027746,-0.366519,-0.32864538,9.371645648519786,0.8478366193157513,left
28/07/2020, 18:09:31,-1.4346168,-4.854705,7.767049,0.69027746,-0.366519,-0.32864538,9.271101997012414,0.8478366193157513,left
28/07/2020, 18:09:31,-1.4346168,-4.854705,7.767049,0.6438517,-0.38973188,-0.2809979,9.271101997012414,0.8033652785168459,left
28/07/2020, 18:09:31,-1.2861255,-4.703819,7.4772515,0.6438517,-0.38973188,-0.2809979,8.926887510765628,0.8033652785168459,left
28/07/2020, 18:09:31,-1.2861255,-4.703819,7.4772515,0.5583306,-0.40561438,-0.19425507,8.926887510765628,0.7169317315684198,left
28/07/2020, 18:09:31,-1.219065,-4.615203,7.3790555,0.5583306,-0.40561438,-0.19425507,8.78843997930851,0.7169317315684198,left
28/07/2020, 18:09:31,-1.219065,-4.615203,7.3790555,0.48869202,-0.42882723,-0.05742131,8.78843997930851,0.652694325748449,left
28/07/2020, 18:09:31,-1.1687696,-4.5936475,7.2616997,0.48869202,-0.42882723,-0.05742131,8.671787689727879,0.652694325748449,left
28/07/2020, 18:09:31,-1.1687696,-4.5936475,7.2616997,0.42516205,-0.48624855,0.087964565,8.671787689727879,0.6518728296629348,left
28/07/2020, 18:09:31,-1.2046949,-4.6104126,7.2569094,0.42516205,-0.48624855,0.087964565,8.681585549543964,0.6518728296629348,left
28/07/2020, 18:09:31,-1.2046949,-4.6104126,7.2569094,0.33231056,-0.55100024,0.16126837,8.681585549543964,0.6633543961243363,left
28/07/2020, 18:09:31,-1.2525953,-4.648733,7.096443,0.33231056,-0.55100024,0.16126837,8.575501183676128,0.6633543961243363,left
28/07/2020, 18:09:31,-1.2525953,-4.648733,7.096443,0.1710422,-0.59131736,0.11362089,8.575501183676128,0.6259563544892367,left
28/07/2020, 18:09:31,-1.590293,-4.8211746,7.2114043,0.1710422,-0.59131736,0.11362089,8.81913312260257,0.6259563544892367,left
28/07/2020, 18:09:31,-1.590293,-4.8211746,7.2114043,0.02321287,-0.597426,0.03176498,8.81913312260257,0.5987200293456578,left
28/07/2020, 18:09:31,-2.1291726,-5.022356,6.969507,0.02321287,-0.597426,0.03176498,8.850506583487505,0.5987200293456578,left
28/07/2020, 18:09:31,-2.1291726,-5.022356,6.969507,-0.15760317,-0.6279692,0.010995571,8.850506583487505,0.6475376329397381,left
28/07/2020, 18:09:31,-2.5339308,-5.2929935,6.595884,-0.15760317,-0.6279692,0.010995571,8.82849191974197,0.6475376329397381,left
28/07/2020, 18:09:31,-2.5339308,-5.2929935,6.595884,-0.33964095,-0.67317325,0.07819072,8.82849191974197,0.7580448426381279,left
28/07/2020, 18:09:31,-2.6129665,-5.6498513,6.437813,-0.33964095,-0.67317325,0.07819072,8.9551017751405,0.7580448426381279,left
28/07/2020, 18:09:31,-2.6129665,-5.6498513,6.437813,-0.4593705,-0.70615995,0.18203777,8.9551017751405,0.8618705672163289,left
28/07/2020, 18:09:31,-2.3974147,-5.846243,6.5144534,-0.4593705,-0.70615995,0.18203777,9.075475553061791,0.8618705672163289,left
28/07/2020, 18:09:31,-2.3974147,-5.846243,6.5144534,-0.48136163,-0.72204244,0.25045466,9.075475553061791,0.9032064229603304,left
28/07/2020, 18:09:31,-2.0381618,-5.886958,6.586304,-0.48136163,-0.72204244,0.25045466,9.065858046815585,0.9032064229603304,left
28/07/2020, 18:09:32,1.949546,4.24637,9.429193,-2.0708325,-2.9468129,-0.28710654,10.523405263832496,3.613098871141311,left
28/07/2020, 18:09:32,3.1997461,2.5578809,10.140513,-2.0708325,-2.9468129,-0.28710654,10.936687904491526,3.613098871141311,left
28/07/2020, 18:09:32,3.1997461,2.5578809,10.140513,-1.8839077,-2.9932384,-0.46303567,10.936687904491526,3.5669295729317767,left
28/07/2020, 18:09:32,4.5529323,0.7232959,10.289004,-1.8839077,-2.9932384,-0.46303567,11.274571353358777,3.5669295729317767,left
28/07/2020, 18:09:32,4.5529323,0.7232959,10.289004,-1.5112801,-2.9309304,-0.60353464,11.274571353358777,3.352398298053523,left
28/07/2020, 18:09:32,5.3313136,-1.0130934,10.042317,-1.5112801,-2.9309304,-0.60353464,11.414788719896372,3.352398298053523,left
28/07/2020, 18:09:32,5.3313136,-1.0130934,10.042317,-0.97494054,-2.8393006,-0.629191,11.414788719896372,3.067249325710483,left
28/07/2020, 18:09:32,5.2115626,-1.9184108,10.31535,-0.97494054,-2.8393006,-0.629191,11.715251680198737,3.067249325710483,left
28/07/2020, 18:09:32,5.2115626,-1.9184108,10.31535,-0.20891583,-2.7537794,-0.5412264,11.715251680198737,2.8142268693337997,left
28/07/2020, 18:09:32,4.615203,-1.9782863,10.43031,-0.20891583,-2.7537794,-0.5412264,11.576056595039049,2.8142268693337997,left
28/07/2020, 18:09:32,4.615203,-1.9782863,10.43031,0.6304127,-2.647489,-0.39584053,11.576056595039049,2.750146954575442,left
28/07/2020, 18:09:32,3.8559816,-1.5447876,10.135723,0.6304127,-2.647489,-0.39584053,10.953896380874955,2.750146954575442,left
28/07/2020, 18:09:32,3.8559816,-1.5447876,10.135723,1.3060294,-2.5424201,-0.25900677,10.953896380874955,2.8699647410463607,left
28/07/2020, 18:09:32,3.283572,-0.69216067,9.374106,1.3060294,-2.5424201,-0.25900677,9.95664612845744,2.8699647410463607,left
28/07/2020, 18:09:32,3.283572,-0.69216067,9.374106,1.70187,-2.483777,-0.18814643,9.95664612845744,3.016771265732637,left
28/07/2020, 18:09:32,3.0991554,0.43349856,8.746612,1.70187,-2.483777,-0.18814643,9.289558641499724,3.016771265732637,left
28/07/2020, 18:09:32,3.0991554,0.43349856,8.746612,1.8912381,-2.4923294,-0.2076941,9.289558641499724,3.135542058134966,left
28/07/2020, 18:09:32,3.187771,1.5783179,8.406519,1.8912381,-2.4923294,-0.2076941,9.128117682580656,3.135542058134966,left
28/07/2020, 18:09:32,3.187771,1.5783179,8.406519,1.9804244,-2.5118768,-0.29077175,9.128117682580656,3.2118770523040006,left
28/07/2020, 18:09:32,3.3266823,2.2920337,8.274793,1.9804244,-2.5118768,-0.29077175,9.208280372891371,3.2118770523040006,left
28/07/2020, 18:09:32,3.3266823,2.2920337,8.274793,2.0378456,-2.5399768,-0.36407554,9.208280372891371,3.276712996301491,left
28/07/2020, 18:09:32,3.3793726,2.7279274,7.7478886,2.0378456,-2.5399768,-0.36407554,8.882090098444,3.276712996301491,left
28/07/2020, 18:09:32,3.3793726,2.7279274,7.7478886,2.100154,-2.5448637,-0.33231056,8.882090098444,3.316234018124079,left
28/07/2020, 18:09:32,3.173401,2.9650342,7.4772515,2.100154,-2.5448637,-0.33231056,8.64703377883617,3.316234018124079,left
28/07/2020, 18:09:32,3.173401,2.9650342,7.4772515,2.2113314,-2.5375333,-0.21380275,8.64703377883617,3.372650767329666,left
28/07/2020, 18:09:32,3.0416749,3.2500417,7.0581226,2.2113314,-2.5375333,-0.21380275,8.344558241125533,3.372650767329666,left
28/07/2020, 18:09:32,3.0416749,3.2500417,7.0581226,2.2834134,-2.5192072,-0.02687806,8.344558241125533,3.4001623999101116,left
28/07/2020, 18:09:32,2.7782228,3.887117,6.715635,2.2834134,-2.5192072,-0.02687806,8.241841472681676,3.4001623999101116,left
28/07/2020, 18:09:32,2.7782228,3.887117,6.715635,2.2027793,-2.515542,0.28221965,8.241841472681676,3.3555679474919966,left
28/07/2020, 18:09:32,2.3926246,4.8906302,6.447393,2.2027793,-2.515542,0.28221965,8.43870798646947,3.3555679474919966,left
28/07/2020, 18:09:33,-0.43589357,-7.0102224,-3.6045046,4.4067802,0.67195153,1.226617,7.894661176625561,4.623399202268449,left
28/07/2020, 18:09:33,-0.035925295,-8.911868,-3.3482375,4.4067802,0.67195153,1.226617,9.520156407858261,4.623399202268449,left
28/07/2020, 18:09:33,-0.035925295,-8.911868,-3.3482375,4.7989554,1.0164794,1.2889252,9.520156407858261,5.071935698722348,left
28/07/2020, 18:09:33,-0.62989014,-10.157278,-3.788921,4.7989554,1.0164794,1.2889252,10.85923489187113,5.071935698722348,left
28/07/2020, 18:09:33,-0.62989014,-10.157278,-3.788921,5.2461085,1.1643087,1.497841,10.85923489187113,5.578601712297202,left
28/07/2020, 18:09:33,-1.453777,-10.758429,-3.8224514,5.2461085,1.1643087,1.497841,11.509491177141195,5.578601712297202,left
28/07/2020, 18:09:33,-1.453777,-10.758429,-3.8224514,5.9815903,1.2522733,1.6468921,11.509491177141195,6.32928622624301,left
28/07/2020, 18:09:33,-1.1088941,-11.084151,-2.3854396,5.9815903,1.2522733,1.6468921,11.392031325782492,6.32928622624301,left
28/07/2020, 18:09:33,-1.1088941,-11.084151,-2.3854396,6.750058,1.457524,1.5968012,11.392031325782492,7.087837141602938,left
28/07/2020, 18:09:33,-1.0538087,-11.8074465,-3.0081446,6.750058,1.457524,1.5968012,12.230095631834203,7.087837141602938,left
28/07/2020, 18:09:33,-1.0538087,-11.8074465,-3.0081446,7.208207,1.6676614,1.3927722,12.230095631834203,7.528556240734929,left
28/07/2020, 18:09:33,-1.1855347,-12.090059,-3.2620168,7.208207,1.6676614,1.3927722,12.57838540490347,7.528556240734929,left
28/07/2020, 18:09:33,-1.1855347,-12.090059,-3.2620168,7.4611053,1.6517789,1.3610072,12.57838540490347,7.762010518183542,left
28/07/2020, 18:09:33,-1.3939015,-13.062437,-2.9650342,7.4611053,1.6517789,1.3610072,13.467058003298925,7.762010518183542,left
28/07/2020, 18:09:33,-1.3939015,-13.062437,-2.9650342,7.7347727,1.5051714,1.6114619,13.467058003298925,8.042950878064861,left
28/07/2020, 18:09:33,-1.22146,-13.675562,-2.7662477,7.7347727,1.5051714,1.6114619,14.0058946347612,8.042950878064861,left
28/07/2020, 18:09:33,-1.22146,-13.675562,-2.7662477,8.108623,1.2681558,1.8716904,14.0058946347612,8.41790970288701,left
28/07/2020, 18:09:33,-0.9412427,-13.656402,-3.2452517,8.108623,1.2681558,1.8716904,14.068223118563303,8.41790970288701,left
28/07/2020, 18:09:33,-0.9412427,-13.656402,-3.2452517,8.539893,1.0164794,1.8631383,14.068223118563303,8.799675546687315,left
28/07/2020, 18:09:33,-0.36164796,-13.867164,-3.788921,8.539893,1.0164794,1.8631383,14.380018790251858,8.799675546687315,left
28/07/2020, 18:09:33,-0.36164796,-13.867164,-3.788921,9.170305,0.89552814,1.5149453,14.380018790251858,9.337640399403313,left
28/07/2020, 18:09:33,0.5245093,-13.929434,-4.406836,9.170305,0.89552814,1.5149453,14.619317373143417,9.337640399403313,left
28/07/2020, 18:09:33,0.5245093,-13.929434,-4.406836,9.915561,1.0616834,0.9724971,14.619317373143417,10.019544237919035,left
28/07/2020, 18:09:33,1.4250367,-14.540164,-4.4212065,9.915561,1.0616834,0.9724971,15.264146394850208,10.019544237919035,left
28/07/2020, 18:09:33,1.4250367,-14.540164,-4.4212065,10.362714,1.4819585,0.47891816,15.264146394850208,10.479093530261578,left
28/07/2020, 18:09:33,1.949546,-14.039605,-3.6811452,10.362714,1.4819585,0.47891816,14.644523616396754,10.479093530261578,left
28/07/2020, 18:09:33,1.949546,-14.039605,-3.6811452,10.341945,1.9535463,0.07086034,14.644523616396754,10.525074077769727,left
28/07/2020, 18:09:33,1.9447559,-12.20023,-2.3566992,10.341945,1.9535463,0.07086034,12.5770310564318,10.525074077769727,left
28/07/2020, 18:09:33,1.9447559,-12.20023,-2.3566992,10.11959,2.2565353,-0.3420844,12.5770310564318,10.373768413565491,left
28/07/2020, 18:09:33,2.3255641,-10.262659,-0.66342044,10.11959,2.2565353,-0.3420844,10.543744426057195,10.373768413565491,left
28/07/2020, 18:09:34,-9.05557,1.0657837,5.024751,0.74036837,-0.03298671,-2.9468129,10.410925085057206,3.038575245174627,left
28/07/2020, 18:09:34,-8.629255,0.5292993,5.6426663,0.74036837,-0.03298671,-2.9468129,10.323947313641838,3.038575245174627,left
28/07/2020, 18:09:34,-8.629255,0.5292993,5.6426663,0.09896013,-0.33108884,-2.7708838,10.323947313641838,2.792348465639097,left
28/07/2020, 18:09:34,-8.389753,-0.87418216,4.358936,0.09896013,-0.33108884,-2.7708838,9.494865833026944,2.792348465639097,left
28/07/2020, 18:09:34,-8.389753,-0.87418216,4.358936,-0.38362324,-0.44959664,-2.5900676,9.494865833026944,2.656643415327442,left
28/07/2020, 18:09:34,-6.69408,-0.96040285,6.586304,-0.38362324,-0.44959664,-2.5900676,9.439940776651875,2.656643415327442,left
28/07/2020, 18:09:34,-6.69408,-0.96040285,6.586304,-0.7171555,-0.27733272,-2.5350897,9.439940776651875,2.6491329560791375,left
28/07/2020, 18:09:34,-5.846243,-2.7686427,6.0737696,-0.7171555,-0.27733272,-2.5350897,8.873252790444539,2.6491329560791375,left
28/07/2020, 18:09:34,-5.846243,-2.7686427,6.0737696,-0.9370669,0.00122173,-2.5680766,8.873252790444539,2.733699575509646,left
28/07/2020, 18:09:34,-5.7648125,-3.3099172,6.701265,-0.9370669,0.00122173,-2.5680766,9.439044732167577,2.733699575509646,left
28/07/2020, 18:09:34,-5.7648125,-3.3099172,6.701265,-1.1215482,0.16371182,-2.620611,9.439044732167577,2.8552186664261647,left
28/07/2020, 18:09:34,-6.205496,-4.277505,5.839058,-1.1215482,0.16371182,-2.620611,9.534139936024035,2.8552186664261647,left
28/07/2020, 18:09:34,-6.205496,-4.277505,5.839058,-1.253495,0.3995057,-2.4886642,9.534139936024035,2.815013982286676,left
28/07/2020, 18:09:34,-6.351592,-4.3062453,6.6581545,-1.253495,0.3995057,-2.4886642,10.15960096378784,2.815013982286676,left
28/07/2020, 18:09:34,-6.351592,-4.3062453,6.6581545,-1.293812,0.7635813,-2.2235487,10.15960096378784,2.6835004291056097,left
28/07/2020, 18:09:34,-5.9564137,-3.6859353,5.6690116,-1.293812,0.7635813,-2.2235487,9.011252736700609,2.6835004291056097,left
28/07/2020, 18:09:34,-5.9564137,-3.6859353,5.6690116,-1.5662578,1.0213664,-2.0940452,9.011252736700609,2.8073792016963184,left
28/07/2020, 18:09:34,-6.1719656,-3.4703834,4.7636943,-1.5662578,1.0213664,-2.0940452,8.534020365115566,2.8073792016963184,left
28/07/2020, 18:09:34,-6.1719656,-3.4703834,4.7636943,-1.8924598,1.0103707,-2.0818279,8.534020365115566,2.989357830436572,left
28/07/2020, 18:09:34,-6.837781,-3.0608351,4.926555,-1.8924598,1.0103707,-2.0818279,8.966320634261976,2.989357830436572,left
28/07/2020, 18:09:34,-6.837781,-3.0608351,4.926555,-2.1282537,0.8747587,-2.0610585,8.966320634261976,3.0891145740407926,left
28/07/2020, 18:09:34,-6.550379,-3.4823585,5.0534916,-2.1282537,0.8747587,-2.0610585,8.9761940767987,3.0891145740407926,left
28/07/2020, 18:09:34,-6.550379,-3.4823585,5.0534916,-2.4630077,0.77824205,-1.9474376,8.9761940767987,3.234900453165132,left
28/07/2020, 18:09:34,-6.207891,-4.3278003,5.846243,-2.4630077,0.77824205,-1.9474376,9.562757019941836,3.234900453165132,left
28/07/2020, 18:09:34,-6.207891,-4.3278003,5.846243,-2.715906,0.77213335,-1.7641782,9.562757019941836,3.329363206896694,left
28/07/2020, 18:09:34,-5.846243,-4.2751102,5.484595,-2.715906,0.77213335,-1.7641782,9.084927301076155,3.329363206896694,left
28/07/2020, 18:09:34,-5.846243,-4.2751102,5.484595,-3.0030124,0.75991607,-1.6737702,9.084927301076155,3.5209462737680033,left
28/07/2020, 18:09:34,-5.606741,-5.039121,4.9217653,-3.0030124,0.75991607,-1.6737702,9.002891758226166,3.5209462737680033,left
28/07/2020, 18:09:34,-5.606741,-5.039121,4.9217653,-3.3060014,0.7489205,-1.6126837,9.002891758226166,3.7538348263851926,left
28/07/2020, 18:09:34,-5.640271,-5.513335,5.2834134,-3.3060014,0.7489205,-1.6126837,9.493365138866446,3.7538348263851926,left
28/07/2020, 18:09:35,-1.8729054,-4.5960426,7.5035963,-0.95783633,-0.1588249,0.27122405,8.99640705750675,1.008086440670028,left
28/07/2020, 18:09:35,-1.8729054,-4.5960426,7.5035963,-0.9737188,-0.116064355,0.26633716,8.99640705750675,1.0161371755798343,left
28/07/2020, 18:09:35,-1.5807129,-4.5601172,7.551497,-0.9737188,-0.116064355,0.26633716,8.962054969781788,1.0161371755798343,left
28/07/2020, 18:09:35,-1.5807129,-4.5601172,7.551497,-0.99082303,-0.0488692,0.21624622,8.962054969781788,1.0153230535181095,left
28/07/2020, 18:09:35,-1.6477735,-4.775669,7.8676395,-0.99082303,-0.0488692,0.21624622,9.349969241175577,1.0153230535181095,left
28/07/2020, 18:09:35,-1.6477735,-4.775669,7.8676395,-0.97494054,-0.00122173,0.14172068,9.349969241175577,0.9851879505289053,left
28/07/2020, 18:09:35,-2.0046315,-5.2905984,8.167017,-0.97494054,-0.00122173,0.14172068,9.93524762046523,0.9851879505289053,left
28/07/2020, 18:09:35,-2.0046315,-5.2905984,8.167017,-0.87964565,-0.00122173,0.06230823,9.93524762046523,0.8818504804919636,left
28/07/2020, 18:09:35,-2.6153615,-5.7648125,8.375383,-0.87964565,-0.00122173,0.06230823,10.498582049326092,0.8818504804919636,left
28/07/2020, 18:09:35,-2.6153615,-5.7648125,8.375383,-0.7293728,-0.03543017,0.010995571,10.498582049326092,0.7303156030512494,left
28/07/2020, 18:09:35,-3.1350808,-6.2653713,8.605306,-0.7293728,-0.03543017,0.010995571,11.096616386371483,0.7303156030512494,left
28/07/2020, 18:09:35,-3.1350808,-6.2653713,8.605306,-0.5937608,-0.058643043,-0.00855211,11.096616386371483,0.5967110012135529,left
28/07/2020, 18:09:35,-3.4991236,-6.5455885,8.490345,-0.5937608,-0.058643043,-0.00855211,11.277169536068815,0.5967110012135529,left
28/07/2020, 18:09:35,-3.4991236,-6.5455885,8.490345,-0.50213104,-0.07941245,-0.04520401,11.277169536068815,0.5103776311675835,left
28/07/2020, 18:09:35,-3.6212697,-6.6030693,8.56459,-0.50213104,-0.07941245,-0.04520401,11.404662562298377,0.5103776311675835,left
28/07/2020, 18:09:35,-3.6212697,-6.6030693,8.56459,-0.42149687,-0.08429937,-0.13316858,11.404662562298377,0.4499998488263182,left
28/07/2020, 18:09:35,-3.537444,-6.6653395,8.466394,-0.42149687,-0.08429937,-0.13316858,11.341080004294943,0.4499998488263182,left
28/07/2020, 18:09:35,-3.537444,-6.6653395,8.466394,-0.35307997,-0.08918629,-0.27000234,11.341080004294943,0.45334415581776655,left
28/07/2020, 18:09:35,-3.551814,-6.70845,8.234077,-0.35307997,-0.08918629,-0.27000234,11.199049693122376,0.45334415581776655,left
28/07/2020, 18:09:35,-3.551814,-6.70845,8.234077,-0.30421078,-0.11239916,-0.4068361,11.199049693122376,0.5202820171950557,left
28/07/2020, 18:09:35,-3.5206788,-6.701265,7.9083548,-0.30421078,-0.11239916,-0.4068361,10.94733778684967,0.5202820171950557,left
28/07/2020, 18:09:35,-3.5206788,-6.701265,7.9083548,-0.29810214,-0.12461646,-0.49846584,10.94733778684967,0.5940221693596935,left
28/07/2020, 18:09:35,-3.4296682,-6.7467704,7.812554,-0.29810214,-0.12461646,-0.49846584,10.877386296137335,0.5940221693596935,left
28/07/2020, 18:09:35,-3.4296682,-6.7467704,7.812554,-0.32620192,-0.101403594,-0.5583306,10.877386296137335,0.6545406271398047,left
28/07/2020, 18:09:35,-3.187771,-6.6365995,7.92991,-0.32620192,-0.101403594,-0.5583306,10.820804657889894,0.6545406271398047,left
28/07/2020, 18:09:35,-3.187771,-6.6365995,7.92991,-0.36407554,-0.01343903,-0.6304127,10.820804657889894,0.7281152223315973,left
28/07/2020, 18:09:35,-3.0009596,-6.4162574,7.92991,-0.36407554,-0.01343903,-0.6304127,10.632854415638217,0.7281152223315973,left
28/07/2020, 18:09:35,-3.0009596,-6.4162574,7.92991,-0.42271858,0.12583819,-0.701273,10.632854415638217,0.8284383538689286,left
28/07/2020, 18:09:35,-2.9841945,-6.207891,7.951465,-0.42271858,0.12583819,-0.701273,10.519939407560994,0.8284383538689286,left
28/07/2020, 18:09:35,-2.9841945,-6.207891,7.951465,-0.42516205,0.26755887,-0.7501422,10.519939407560994,0.9028088734302829,left
28/07/2020, 18:09:36,1.0226734,-10.756033,1.2382251,-0.1624901,0.15515971,-1.09467,10.875261234072935,1.1174883010617764,left
28/07/2020, 18:09:36,1.0657837,-11.000325,1.3915064,-0.1624901,0.15515971,-1.09467,11.139090613843788,1.1174883010617764,left
28/07/2020, 18:09:36,1.0657837,-11.000325,1.3915064,-0.17837258,0.14172068,-1.1374307,11.139090613843788,1.1600215740271882,left
28/07/2020, 18:09:36,1.1759547,-11.103311,1.6238233,-0.17837258,0.14172068,-1.1374307,11.282870976130926,1.1600215740271882,left
28/07/2020, 18:09:36,1.1759547,-11.103311,1.6238233,-0.16004664,0.16859874,-1.2034041,11.282870976130926,1.2256515878327874,left
28/07/2020, 18:09:36,1.1280543,-11.407478,1.8274,-0.16004664,0.16859874,-1.2034041,11.607861946551626,1.2256515878327874,left
28/07/2020, 18:09:36,1.1280543,-11.407478,1.8274,-0.10018186,0.21013756,-1.2437211,11.607861946551626,1.2653206878728778,left
28/07/2020, 18:09:36,0.69216067,-11.702065,1.7507594,-0.10018186,0.21013756,-1.2437211,11.852534790025686,1.2653206878728778,left
28/07/2020, 18:09:36,0.69216067,-11.702065,1.7507594,-0.05009093,0.21013756,-1.2437211,11.852534790025686,1.2623427184987333,left
28/07/2020, 18:09:36,-0.021555176,-11.572735,2.0285816,-0.05009093,0.21013756,-1.2437211,11.749204207991479,1.2623427184987333,left
28/07/2020, 18:09:36,-0.021555176,-11.572735,2.0285816,0.08307764,0.15149452,-1.2229518,11.749204207991479,1.2350965607783297,left
28/07/2020, 18:09:36,-0.6993457,-11.146421,2.4644752,0.08307764,0.15149452,-1.2229518,11.437020283226744,1.2350965607783297,left
28/07/2020, 18:09:36,-0.6993457,-11.146421,2.4644752,0.23579389,0.11484262,-1.2253952,11.437020283226744,1.2531484304333218,left
28/07/2020, 18:09:36,-1.2885206,-10.679393,2.560276,0.23579389,0.11484262,-1.2253952,11.057338265506612,1.2531484304333218,left
28/07/2020, 18:09:36,-1.2885206,-10.679393,2.560276,0.4068361,0.03298671,-1.2412777,11.057338265506612,1.3066652381740749,left
28/07/2020, 18:09:36,-1.9136207,-10.253079,2.4620802,0.4068361,0.03298671,-1.2412777,10.716782204091212,1.3066652381740749,left
28/07/2020, 18:09:36,-1.9136207,-10.253079,2.4620802,0.52167875,-0.09285148,-1.2424995,10.716782204091212,1.3507683170149747,left
28/07/2020, 18:09:36,-2.4620802,-10.30098,2.430945,0.52167875,-0.09285148,-1.2424995,10.866531798363477,1.3507683170149747,left
28/07/2020, 18:09:36,-2.4620802,-10.30098,2.430945,0.5167918,-0.21013756,-1.2278386,10.866531798363477,1.3486360869341316,left
28/07/2020, 18:09:36,-2.3303542,-10.5620365,2.3255641,0.5167918,-0.21013756,-1.2278386,11.063246118918439,1.3486360869341316,left
28/07/2020, 18:09:36,-2.3303542,-10.5620365,2.3255641,0.3457496,-0.27855444,-1.2205083,11.063246118918439,1.298759390077364,left
28/07/2020, 18:09:36,-1.3531861,-11.182346,2.1770728,0.3457496,-0.27855444,-1.2205083,11.472385465900546,1.298759390077364,left
28/07/2020, 18:09:36,-1.3531861,-11.182346,2.1770728,0.1624901,-0.3090977,-1.2510515,11.472385465900546,1.298874279418848,left
28/07/2020, 18:09:36,-0.42152345,-11.5751295,2.3375392,0.1624901,-0.3090977,-1.2510515,11.816318998013028,1.298874279418848,left
28/07/2020, 18:09:36,-0.42152345,-11.5751295,2.3375392,0.047647472,-0.34819305,-1.325577,11.816318998013028,1.371372713366894,left
28/07/2020, 18:09:36,0.28740236,-11.04104,2.2393434,0.047647472,-0.34819305,-1.325577,11.269508976427685,1.371372713366894,left
28/07/2020, 18:09:36,0.28740236,-11.04104,2.2393434,-0.03176498,-0.3420844,-1.4489719,11.269508976427685,1.48914412634527,left
28/07/2020, 18:09:36,0.50774413,-10.40157,2.550696,-0.03176498,-0.3420844,-1.4489719,10.72177778096068,1.48914412634527,left
28/07/2020, 18:09:36,0.50774413,-10.40157,2.550696,0.01954768,-0.28344136,-1.5515971,10.72177778096068,1.5773949210095168,left
28/07/2020, 18:09:36,-0.46942386,-10.406361,2.5291407,0.01954768,-0.28344136,-1.5515971,10.719573358057096,1.5773949210095168,left
28/07/2020, 18:09:37,-0.44547364,1.6932789,-20.561243,0.84055024,-1.9071206,1.3194684,20.63565739895547,2.4667043688075916,left
28/07/2020, 18:09:37,3.7290456,2.7375073,-20.855831,0.84055024,-1.9071206,1.3194684,21.36271098343949,2.4667043688075916,left
28/07/2020, 18:09:37,3.7290456,2.7375073,-20.855831,0.86865,-2.0573933,0.029321522,21.36271098343949,2.2334457346346466,left
28/07/2020, 18:09:37,5.376819,3.3242872,-17.021404,0.86865,-2.0573933,0.029321522,18.157347615368266,2.2334457346346466,left
28/07/2020, 18:09:37,5.376819,3.3242872,-17.021404,1.0348053,-1.7983866,-0.7538074,18.157347615368266,2.2075420512399258,left
28/07/2020, 18:09:37,5.1947975,3.6931202,-16.530426,1.0348053,-1.7983866,-0.7538074,17.716660038717674,2.2075420512399258,left
28/07/2020, 18:09:37,5.1947975,3.6931202,-16.530426,1.5662578,-1.0115925,-0.7293728,17.716660038717674,2.0021158021899397,left
28/07/2020, 18:09:37,4.84752,3.3242872,-16.96632,1.5662578,-1.0115925,-0.7293728,17.955649522928624,2.0021158021899397,left
28/07/2020, 18:09:37,4.84752,3.3242872,-16.96632,1.8851295,-0.24190255,-0.12828165,17.955649522928624,1.9049110408789898,left
28/07/2020, 18:09:37,4.2056546,2.4932153,-16.880098,1.8851295,-0.24190255,-0.12828165,17.573883278954852,1.9049110408789898,left
28/07/2020, 18:09:37,4.2056546,2.4932153,-16.880098,1.8729122,0.28466308,0.37140593,17.573883278954852,1.930485800270453,left
28/07/2020, 18:09:37,3.9685476,2.5027955,-17.359102,1.8729122,0.28466308,0.37140593,17.981985038244314,1.930485800270453,left
28/07/2020, 18:09:37,3.9685476,2.5027955,-17.359102,1.901012,0.5461133,0.18936816,17.981985038244314,1.986944000174523,left
28/07/2020, 18:09:37,3.300337,2.1698878,-15.356866,1.901012,0.5461133,0.18936816,15.85666949721079,1.986944000174523,left
28/07/2020, 18:09:37,3.300337,2.1698878,-15.356866,2.2614222,0.58887386,-0.13194685,15.85666949721079,2.3405581750187157,left
28/07/2020, 18:09:37,1.4944923,0.11256592,-15.057488,2.2614222,0.58887386,-0.13194685,15.131891370984233,2.3405581750187157,left
28/07/2020, 18:09:37,1.4944923,0.11256592,-15.057488,2.4178038,0.45814875,-0.08307764,15.131891370984233,2.462230129787646,left
28/07/2020, 18:09:37,0.859812,-1.1064991,-15.23951,2.4178038,0.45814875,-0.08307764,15.303799176431472,2.462230129787646,left
28/07/2020, 18:09:37,0.859812,-1.1064991,-15.23951,2.4678946,0.24190255,0.18081604,15.303799176431472,2.486305454240881,left
28/07/2020, 18:09:37,1.5256275,-1.1424243,-14.283897,2.4678946,0.24190255,0.18081604,14.41049609017815,2.486305454240881,left
28/07/2020, 18:09:37,1.5256275,-1.1424243,-14.283897,2.6658149,0.09651667,0.38117978,14.41049609017815,2.694658131921181,left
28/07/2020, 18:09:37,2.2345533,-1.2957057,-12.71995,2.6658149,0.09651667,0.38117978,12.979568665904939,2.694658131921181,left
28/07/2020, 18:09:37,2.2345533,-1.2957057,-12.71995,3.1386244,0.06230823,0.42882723,12.979568665904939,3.1683968211208806,left
28/07/2020, 18:09:37,3.2644117,-1.1424243,-12.111614,3.1386244,0.06230823,0.42882723,12.595741988572051,3.1683968211208806,left
28/07/2020, 18:09:37,3.2644117,-1.1424243,-12.111614,3.6847377,-0.11239916,0.51557004,12.595741988572051,3.722329624017903,left
28/07/2020, 18:09:37,4.5960426,-2.1411476,-9.836346,3.6847377,-0.11239916,0.51557004,11.066246752119818,3.722329624017903,left
28/07/2020, 18:09:37,4.5960426,-2.1411476,-9.836346,4.1428866,-0.2809979,0.6963861,11.066246752119818,4.210394651376087,left
28/07/2020, 18:09:37,2.0429518,-1.2310401,-3.5925295,4.1428866,-0.2809979,0.6963861,4.312236123807972,4.210394651376087,left
28/07/2020, 18:09:37,2.0429518,-1.2310401,-3.5925295,4.2833853,-0.0122173,0.8918629,4.312236123807972,4.375266640533667,left
28/07/2020, 18:09:37,2.42855,-3.657195,-8.57417,4.2833853,-0.0122173,0.8918629,9.63272153557884,4.375266640533667,left
28/07/2020, 18:09:38,-13.234879,-6.5264287,7.6425076,-1.4880672,-0.5253439,-2.5399768,16.618188927748932,2.990286336596441,left
28/07/2020, 18:09:38,-12.569063,-7.2640944,8.284373,-1.4880672,-0.5253439,-2.5399768,16.714641989992515,2.990286336596441,left
28/07/2020, 18:09:38,-12.569063,-7.2640944,8.284373,-1.0262532,-0.38484496,-2.7855444,16.714641989992515,2.9934192656364225,left
28/07/2020, 18:09:38,-11.587105,-6.485713,9.862691,-1.0262532,-0.38484496,-2.7855444,16.540802370593646,2.9934192656364225,left
28/07/2020, 18:09:38,-11.587105,-6.485713,9.862691,-0.18814643,0.051312663,-3.0921986,16.540802370593646,3.0983421878518,left
28/07/2020, 18:09:38,-11.364368,-5.376819,9.029224,-0.18814643,0.051312663,-3.0921986,15.478564119355045,3.0983421878518,left
28/07/2020, 18:09:38,-11.364368,-5.376819,9.029224,0.5644393,0.47891816,-3.3047798,15.478564119355045,3.3866685168965174,left
28/07/2020, 18:09:38,-11.896063,-3.3051271,8.339458,0.5644393,0.47891816,-3.3047798,14.899219586607652,3.3866685168965174,left
28/07/2020, 18:09:38,-11.896063,-3.3051271,8.339458,1.253495,0.6621777,-3.497813,14.899219586607652,3.7741786695692103,left
28/07/2020, 18:09:38,-12.897181,-2.699187,6.0593996,1.253495,0.6621777,-3.497813,14.503075555744408,3.7741786695692103,left
28/07/2020, 18:09:38,-12.897181,-2.699187,6.0593996,1.3035859,0.62308234,-3.5112522,14.503075555744408,3.796901306577873,left
28/07/2020, 18:09:38,-13.912669,-1.2837305,5.8127127,1.3035859,0.62308234,-3.5112522,15.132678426302794,3.796901306577873,left
28/07/2020, 18:09:38,-13.912669,-1.2837305,5.8127127,1.4880672,0.66095597,-3.4550526,15.132678426302794,3.8195019568764157,left
28/07/2020, 18:09:38,-12.578643,0.5125342,5.271438,1.4880672,0.66095597,-3.4550526,13.648186949379141,3.8195019568764157,left
28/07/2020, 18:09:38,-12.578643,0.5125342,5.271438,1.5809187,0.64018655,-3.5650082,13.648186949379141,3.9520154177617997,left
28/07/2020, 18:09:38,-11.838582,2.0237916,4.7062135,1.5809187,0.64018655,-3.5650082,12.899465190503049,3.9520154177617997,left
28/07/2020, 18:09:38,-11.838582,2.0237916,4.7062135,1.3781115,0.5424481,-3.6908464,12.899465190503049,3.976906922209853,left
28/07/2020, 18:09:38,-11.670931,2.806963,3.9278321,1.3781115,0.5424481,-3.6908464,12.630025079471846,3.976906922209853,left
28/07/2020, 18:09:38,-11.670931,2.806963,3.9278321,1.0763441,0.45570529,-3.56623,12.630025079471846,3.7528896639265694,left
28/07/2020, 18:09:38,-12.451707,1.7914747,3.5182838,1.0763441,0.45570529,-3.56623,13.062645489703707,3.7528896639265694,left
28/07/2020, 18:09:38,-12.451707,1.7914747,3.5182838,0.60109115,0.29321522,-3.218037,13.062645489703707,3.2867989221102802,left
28/07/2020, 18:09:38,-11.737991,2.4093897,2.4836354,0.60109115,0.29321522,-3.218037,12.237403497167932,3.2867989221102802,left
28/07/2020, 18:09:38,-11.737991,2.4093897,2.4836354,0.07208207,0.0073303804,-3.045773,12.237403497167932,3.0466346853257704,left
28/07/2020, 18:09:38,-11.474539,2.1555176,2.3423293,0.07208207,0.0073303804,-3.045773,11.907888274290787,3.0466346853257704,left
28/07/2020, 18:09:38,-11.474539,2.1555176,2.3423293,-0.24678947,-0.07086034,-2.9333737,11.907888274290787,2.9445895187193214,left
28/07/2020, 18:09:38,-9.7740755,1.5328126,5.225933,-0.24678947,-0.07086034,-2.9333737,11.18894288995933,2.9445895187193214,left
28/07/2020, 18:09:38,-9.7740755,1.5328126,5.225933,-0.46425742,0.08674283,-2.6413803,11.18894288995933,2.6832721093256096,left
28/07/2020, 18:09:38,-9.687855,1.7244141,2.8380983,-0.46425742,0.08674283,-2.6413803,10.241237029620681,2.6832721093256096,left
28/07/2020, 18:09:38,-9.687855,1.7244141,2.8380983,-0.64263,0.20280719,-2.5289812,10.241237029620681,2.6172218099582065,left
28/07/2020, 18:09:38,-7.2760696,2.7327175,6.344407,-0.64263,0.20280719,-2.5289812,10.032967439943572,2.6172218099582065,left
28/07/2020, 18:09:39,-3.1326857,-10.116563,5.4295096,-0.13561203,-0.19181162,-0.10384705,11.901182216214588,0.2568395008617949,left
28/07/2020, 18:09:39,-2.9506643,-10.303374,5.326524,-0.13561203,-0.19181162,-0.10384705,11.968199407649793,0.2568395008617949,left
28/07/2020, 18:09:39,-2.9506643,-10.303374,5.326524,0.18936816,-0.19181162,-0.07574726,11.968199407649793,0.2799815078659406,left
28/07/2020, 18:09:39,-2.5985963,-10.384805,5.3384986,0.18936816,-0.19181162,-0.07574726,11.962292394022278,0.2799815078659406,left
28/07/2020, 18:09:39,-2.5985963,-10.384805,5.3384986,0.4838051,-0.1624901,-0.07819072,11.962292394022278,0.5163179124559891,left
28/07/2020, 18:09:39,-2.1315675,-10.205178,5.352869,0.4838051,-0.1624901,-0.07819072,11.719319525551143,0.5163179124559891,left
28/07/2020, 18:09:39,-2.1315675,-10.205178,5.352869,0.72204244,-0.08918629,-0.12095127,11.719319525551143,0.7375152144255053,left
28/07/2020, 18:09:39,-1.8250049,-9.920172,5.0846267,0.72204244,-0.08918629,-0.12095127,11.2957460461542,0.7375152144255053,left
28/07/2020, 18:09:39,-1.8250049,-9.920172,5.0846267,0.87598044,-0.01710422,-0.14660761,11.2957460461542,0.8883288077037892,left
28/07/2020, 18:09:39,-1.698069,-9.532178,4.782854,0.87598044,-0.01710422,-0.14660761,10.799145679036807,0.8883288077037892,left
28/07/2020, 18:09:39,-1.698069,-9.532178,4.782854,0.9847144,-0.00610865,-0.13927722,10.799145679036807,0.9945340050271909,left
28/07/2020, 18:09:39,-1.7771046,-9.16574,4.6822634,0.9847144,-0.00610865,-0.13927722,10.444734611828613,0.9945340050271909,left
28/07/2020, 18:09:39,-1.7771046,-9.16574,4.6822634,1.0812311,-0.05375612,-0.11362089,10.444734611828613,1.0885128187793807,left
28/07/2020, 18:09:39,-1.7507594,-8.914263,4.5840673,1.0812311,-0.05375612,-0.11362089,10.175603791884805,1.0885128187793807,left
28/07/2020, 18:09:39,-1.7507594,-8.914263,4.5840673,1.1533132,-0.095294945,-0.09651667,10.175603791884805,1.1612613137377508,left
28/07/2020, 18:09:39,-1.5543678,-8.777747,4.6966333,1.1533132,-0.095294945,-0.09651667,10.07587559578126,1.1612613137377508,left
28/07/2020, 18:09:39,-1.5543678,-8.777747,4.6966333,1.2205083,-0.10384705,-0.11362089,10.07587559578126,1.2301766204480606,left
28/07/2020, 18:09:39,-1.3196558,-8.636441,4.873865,1.2205083,-0.10384705,-0.11362089,10.004207603877697,1.2301766204480606,left
28/07/2020, 18:09:39,-1.3196558,-8.636441,4.873865,1.3048077,-0.09285148,-0.14905107,10.004207603877697,1.3165715539355116,left
28/07/2020, 18:09:39,-1.099314,-8.583751,5.0822315,1.3048077,-0.09285148,-0.14905107,10.035852976147758,1.3165715539355116,left
28/07/2020, 18:09:39,-1.099314,-8.583751,5.0822315,1.402546,-0.074525535,-0.17715086,10.035852976147758,1.4156524643976311,left
28/07/2020, 18:09:39,-0.9388477,-8.459209,5.240303,1.402546,-0.074525535,-0.17715086,9.995020528984032,1.4156524643976311,left
28/07/2020, 18:09:39,-0.9388477,-8.459209,5.240303,1.470963,-0.03420844,-0.18203777,9.995020528984032,1.482578874241652,left
28/07/2020, 18:09:39,-0.72569096,-8.274793,5.225933,1.470963,-0.03420844,-0.18203777,9.813724961806425,1.482578874241652,left
28/07/2020, 18:09:39,-0.72569096,-8.274793,5.225933,1.4917324,0.0122173,-0.17715086,9.813724961806425,1.502263998256157,left
28/07/2020, 18:09:39,-0.68976563,-8.040081,5.343289,1.4917324,0.0122173,-0.17715086,9.678296118377844,1.502263998256157,left
28/07/2020, 18:09:39,-0.68976563,-8.040081,5.343289,1.4758499,0.04276055,-0.18081604,9.678296118377844,1.487499826679367,left
28/07/2020, 18:09:39,-0.79993653,-7.805369,5.3289185,1.4758499,0.04276055,-0.18081604,9.484780126509582,1.487499826679367,left
28/07/2020, 18:09:39,-0.79993653,-7.805369,5.3289185,1.4330894,0.05619958,-0.18570296,9.484780126509582,1.446163594509519,left
28/07/2020, 18:09:39,-0.9412427,-7.7574687,5.345684,1.4330894,0.05619958,-0.18570296,9.467871800307043,1.446163594509519,left
28/07/2020, 18:09:40,-0.086220704,-1.8010547,12.061319,-2.0268502,-1.1997389,0.4190534,12.195353893666494,2.3923003402283554,left
28/07/2020, 18:09:40,-0.2706372,-2.5315359,11.529625,-2.0268502,-1.1997389,0.4190534,11.807377759900518,2.3923003402283554,left
28/07/2020, 18:09:40,-0.2706372,-2.5315359,11.529625,-2.1209233,-1.3329074,0.40439263,11.807377759900518,2.537418215585833,left
28/07/2020, 18:09:40,-0.119750984,-3.0153298,11.623031,-2.1209233,-1.3329074,0.40439263,12.008388572625387,2.537418215585833,left
28/07/2020, 18:09:40,-0.119750984,-3.0153298,11.623031,-2.0610585,-1.5125017,0.32375845,12.008388572625387,2.5769057427146955,left
28/07/2020, 18:09:40,0.25147706,-3.6236646,11.737991,-2.0610585,-1.5125017,0.32375845,12.287173251290628,2.5769057427146955,left
28/07/2020, 18:09:40,0.25147706,-3.6236646,11.737991,-1.92789,-1.6236792,0.23335044,12.287173251290628,2.531313113611686,left
28/07/2020, 18:09:40,0.5939649,-4.4595265,12.221786,-1.92789,-1.6236792,0.23335044,13.023525372940782,2.531313113611686,left
28/07/2020, 18:09:40,0.5939649,-4.4595265,12.221786,-1.7385218,-1.6603311,0.20891583,13.023525372940782,2.4130485664775163,left
28/07/2020, 18:09:40,1.0322535,-4.749324,12.83012,-1.7385218,-1.6603311,0.20891583,13.719825280166829,2.4130485664775163,left
28/07/2020, 18:09:40,1.0322535,-4.749324,12.83012,-1.4062113,-1.6102402,0.21991141,13.719825280166829,2.1491078841062774,left
28/07/2020, 18:09:40,1.4441968,-4.749324,12.798985,-1.4062113,-1.6102402,0.21991141,13.727919958133068,2.1491078841062774,left
28/07/2020, 18:09:40,1.4441968,-4.749324,12.798985,-1.0140359,-1.561371,0.11484262,13.727919958133068,1.8652981044306982,left
28/07/2020, 18:09:40,2.0094216,-4.533772,12.434942,-1.0140359,-1.561371,0.11484262,13.387331781791454,1.8652981044306982,left
28/07/2020, 18:09:40,2.0094216,-4.533772,12.434942,-0.64263,-1.5112801,-0.03543017,13.387331781791454,1.64261864372529,left
28/07/2020, 18:09:40,2.2129982,-4.054768,12.561878,-0.64263,-1.5112801,-0.03543017,13.38429262485017,1.64261864372529,left
28/07/2020, 18:09:40,2.2129982,-4.054768,12.561878,-0.16982047,-1.4453067,-0.09896013,13.38429262485017,1.4586101049744493,left
28/07/2020, 18:09:40,2.43813,-3.8895118,11.498489,-0.16982047,-1.4453067,-0.09896013,12.38095463460286,1.4586101049744493,left
28/07/2020, 18:09:40,2.43813,-3.8895118,11.498489,-0.15515971,-1.5222756,-0.07819072,12.38095463460286,1.5321590084483068,left
28/07/2020, 18:09:40,1.6573536,-3.8464015,11.709251,-0.15515971,-1.5222756,-0.07819072,12.43576268919917,1.5321590084483068,left
28/07/2020, 18:09:40,1.6573536,-3.8464015,11.709251,-0.14294241,-1.6310096,0.0,12.43576268919917,1.6372613656523467,left
28/07/2020, 18:09:40,1.2717555,-3.3458424,11.836187,-0.14294241,-1.6310096,0.0,12.365571330680277,1.6372613656523467,left
28/07/2020, 18:09:40,1.2717555,-3.3458424,11.836187,-0.074525535,-1.6713266,0.08674283,12.365571330680277,1.6752346411610881,left
28/07/2020, 18:09:40,1.1112891,-2.9985645,11.924803,-0.074525535,-1.6713266,0.08674283,12.34614408863064,1.6752346411610881,left
28/07/2020, 18:09:40,1.1112891,-2.9985645,11.924803,-0.13927722,-1.7886127,0.058643043,12.34614408863064,1.794985410686123,left
28/07/2020, 18:09:40,1.2382251,-2.8788135,11.189531,-0.13927722,-1.7886127,0.058643043,11.620085193489455,1.794985410686123,left
28/07/2020, 18:09:40,1.2382251,-2.8788135,11.189531,-0.27611098,-1.9449942,0.02321287,11.620085193489455,1.9646319224052724,left
28/07/2020, 18:09:40,1.5543678,-2.5914114,10.9069195,-0.27611098,-1.9449942,0.02321287,11.317789736657396,1.9646319224052724,left
28/07/2020, 18:09:40,1.5543678,-2.5914114,10.9069195,-0.34452787,-2.0598369,-0.014660761,11.317789736657396,2.0885024059443675,left
28/07/2020, 18:09:40,2.2273684,-2.3590944,10.451866,-0.34452787,-2.0598369,-0.014660761,10.94385682031071,2.0885024059443675,left
28/07/2020, 18:09:41,-1.3962965,-3.1231055,-16.295713,5.8581953,1.1093309,0.3249802,16.65093715275147,5.971153941171124,left
28/07/2020, 18:09:41,-1.3771362,-2.3064039,-15.7113285,5.8581953,1.1093309,0.3249802,15.939317628798035,5.971153941171124,left
28/07/2020, 18:09:41,-1.3771362,-2.3064039,-15.7113285,6.383539,0.7977897,0.4605922,15.939317628798035,6.449665595517391,left
28/07/2020, 18:09:41,0.028740235,-1.8800904,-13.761783,6.383539,0.7977897,0.4605922,13.889644608412956,6.449665595517391,left
28/07/2020, 18:09:41,0.028740235,-1.8800904,-13.761783,6.03779,0.5436699,0.52045697,13.889644608412956,6.084517920531654,left
28/07/2020, 18:09:41,1.6142433,-2.078877,-12.75348,6.03779,0.5436699,0.52045697,13.022241044664723,6.084517920531654,left
28/07/2020, 18:09:41,1.6142433,-2.078877,-12.75348,4.972441,0.27122405,0.43737936,13.022241044664723,4.999003364974489,left
28/07/2020, 18:09:41,2.5770411,-2.191443,-9.977652,4.972441,0.27122405,0.43737936,10.535515874040287,4.999003364974489,left
28/07/2020, 18:09:41,2.5770411,-2.191443,-9.977652,4.0744696,0.15271625,0.41783166,10.535515874040287,4.098683666176141,left
28/07/2020, 18:09:41,2.3566992,-3.2452517,-7.0174074,4.0744696,0.15271625,0.41783166,8.082678789917555,4.098683666176141,left
28/07/2020, 18:09:41,2.3566992,-3.2452517,-7.0174074,3.4196224,0.07696899,0.60109115,8.082678789917555,3.472902575057652,left
28/07/2020, 18:09:41,2.2225783,-4.521797,-5.022356,3.4196224,0.07696899,0.60109115,7.114110211862163,3.472902575057652,left
28/07/2020, 18:09:41,2.2225783,-4.521797,-5.022356,3.1691678,-0.1624901,0.8173374,7.114110211862163,3.2768991012778543,left
28/07/2020, 18:09:41,1.83219,-6.0570045,-5.0630717,3.1691678,-0.1624901,0.8173374,8.104253116713553,3.2768991012778543,left
28/07/2020, 18:09:41,1.83219,-6.0570045,-5.0630717,2.79654,-0.35552344,0.86498487,8.104253116713553,2.9487678500968624,left
28/07/2020, 18:09:41,2.3878345,-5.372029,-5.6570363,2.79654,-0.35552344,0.86498487,8.158584883947919,2.9487678500968624,left
28/07/2020, 18:09:41,2.3878345,-5.372029,-5.6570363,2.6328282,-0.19181162,0.63652134,8.158584883947919,2.7154623237795907,left
28/07/2020, 18:09:41,1.8106349,-4.6750784,-6.0833497,2.6328282,-0.19181162,0.63652134,7.883013393817777,2.7154623237795907,left
28/07/2020, 18:09:41,1.8106349,-4.6750784,-6.0833497,2.587624,0.1869247,0.2736675,7.883013393817777,2.608760834893893,left
28/07/2020, 18:09:41,0.50774413,-2.2872438,-6.600674,2.587624,0.1869247,0.2736675,7.004155036019581,2.608760834893893,left
28/07/2020, 18:09:41,0.50774413,-2.2872438,-6.600674,2.7317884,0.48258337,0.054977853,7.004155036019581,2.7746309884454874,left
28/07/2020, 18:09:41,0.17244141,-0.117355965,-8.092772,2.7317884,0.48258337,0.054977853,8.0954591902482,2.7746309884454874,left
28/07/2020, 18:09:41,0.17244141,-0.117355965,-8.092772,2.5619678,0.00488692,0.34819305,8.0954591902482,2.585525390460818,left
28/07/2020, 18:09:41,1.1160791,-2.6704469,-10.2315235,2.5619678,0.00488692,0.34819305,10.633014269385157,2.585525390460818,left
28/07/2020, 18:09:41,1.1160791,-2.6704469,-10.2315235,1.5858055,-0.42394033,0.6633994,10.633014269385157,1.7704811101991342,left
28/07/2020, 18:09:41,1.8106349,-1.9208057,-10.013577,1.5858055,-0.42394033,0.6633994,10.355656746272409,1.7704811101991342,left
28/07/2020, 18:09:41,1.8106349,-1.9208057,-10.013577,0.4764747,-0.67317325,0.91141057,10.355656746272409,1.2291702860936098,left
28/07/2020, 18:09:41,1.6334034,-2.1674929,-9.613608,0.4764747,-0.67317325,0.91141057,9.989369237613474,1.2291702860936098,left
28/07/2020, 18:09:41,1.6334034,-2.1674929,-9.613608,-0.3494148,-0.83199817,1.1154395,9.989369237613474,1.434753291601021,left
28/07/2020, 18:09:41,0.12693603,-3.0225148,-8.727451,-0.3494148,-0.83199817,1.1154395,9.236888827692669,1.434753291601021,left
28/07/2020, 18:09:42,-12.576248,7.4580913,4.423601,1.6420052,-1.1020005,-2.8063138,15.275908823154511,3.4330719511095866,left
28/07/2020, 18:09:42,-11.433824,6.7539554,4.8044095,1.6420052,-1.1020005,-2.8063138,14.121989432373299,3.4330719511095866,left
28/07/2020, 18:09:42,-11.433824,6.7539554,4.8044095,1.2620472,-1.0653486,-2.6645932,14.121989432373299,3.1349302676901925,left
28/07/2020, 18:09:42,-9.848321,5.846243,6.1504107,1.2620472,-1.0653486,-2.6645932,12.999828192763845,3.1349302676901925,left
28/07/2020, 18:09:42,-9.848321,5.846243,6.1504107,0.8515458,-0.8588762,-2.4251342,12.999828192763845,2.709995284849117,left
28/07/2020, 18:09:42,-8.717872,4.28948,6.0186844,0.8515458,-0.8588762,-2.4251342,11.42915082599201,2.709995284849117,left
28/07/2020, 18:09:42,-8.717872,4.28948,6.0186844,0.35185826,-0.72204244,-2.222327,11.42915082599201,2.3630249234906797,left
28/07/2020, 18:09:42,-8.159832,3.5901344,6.0258694,0.35185826,-0.72204244,-2.222327,10.760252079813757,2.3630249234906797,left
28/07/2020, 18:09:42,-8.159832,3.5901344,6.0258694,-0.07941245,-0.7990114,-2.276083,10.760252079813757,2.413561550660772,left
28/07/2020, 18:09:42,-7.8580594,3.5997145,6.1528053,-0.07941245,-0.7990114,-2.276083,10.60962090037217,2.413561550660772,left
28/07/2020, 18:09:42,-7.8580594,3.5997145,6.1528053,-0.5167918,-0.9700536,-2.5192072,10.60962090037217,2.748541961114747,left
28/07/2020, 18:09:42,-8.174202,2.339934,7.0988383,-0.5167918,-0.9700536,-2.5192072,11.076388176564416,2.748541961114747,left
28/07/2020, 18:09:42,-8.174202,2.339934,7.0988383,-0.70860344,-1.0262532,-2.565633,11.076388176564416,2.8526807580420193,left
28/07/2020, 18:09:42,-9.2184305,1.1687696,8.076006,-0.70860344,-1.0262532,-2.565633,12.311269450456118,2.8526807580420193,left
28/07/2020, 18:09:42,-9.2184305,1.1687696,8.076006,-0.7696899,-1.0103707,-2.4312427,12.311269450456118,2.7430298342587176,left
28/07/2020, 18:09:42,-9.163345,0.5125342,8.5502205,-0.7696899,-1.0103707,-2.4312427,12.543359178863819,2.7430298342587176,left
28/07/2020, 18:09:42,-9.163345,0.5125342,8.5502205,-0.7489205,-0.8674283,-2.2785265,12.543359178863819,2.550489558984559,left
28/07/2020, 18:09:42,-7.927515,-0.2562671,8.418494,-0.7489205,-0.8674283,-2.2785265,11.56642608522592,2.550489558984559,left
28/07/2020, 18:09:42,-7.927515,-0.2562671,8.418494,-0.7159338,-0.6133085,-2.317622,11.56642608522592,2.5020151867691607,left
28/07/2020, 18:09:42,-7.7718387,-0.34488282,7.7502837,-0.7159338,-0.6133085,-2.317622,10.98122571040838,2.5020151867691607,left
28/07/2020, 18:09:42,-7.7718387,-0.34488282,7.7502837,-0.57054794,-0.42271858,-2.483777,10.98122571040838,2.583285575950362,left
28/07/2020, 18:09:42,-8.377779,-0.19878663,7.0581226,-0.57054794,-0.42271858,-2.483777,10.95644980563023,2.583285575950362,left
28/07/2020, 18:09:42,-8.377779,-0.19878663,7.0581226,-0.5742131,-0.32620192,-2.6438239,10.95644980563023,2.7250565083018468,left
28/07/2020, 18:09:42,-9.235196,-0.22513184,6.605464,-0.5742131,-0.32620192,-2.6438239,11.356570169472604,2.7250565083018468,left
28/07/2020, 18:09:42,-9.235196,-0.22513184,6.605464,-0.70738167,-0.32009327,-2.6914713,11.356570169472604,2.801225890543764,left
28/07/2020, 18:09:42,-10.37283,0.102985844,6.792276,-0.70738167,-0.32009327,-2.6914713,12.39924305677531,2.801225890543764,left
28/07/2020, 18:09:42,-10.37283,0.102985844,6.792276,-0.7305946,-0.36041036,-2.684141,12.39924305677531,2.8050448382948945,left
28/07/2020, 18:09:42,-10.7799835,0.7831714,6.480923,-0.7305946,-0.36041036,-2.684141,12.602530197503297,2.8050448382948945,left
28/07/2020, 18:09:42,-10.7799835,0.7831714,6.480923,-0.5485568,-0.42027512,-2.6865842,12.602530197503297,2.7740368767737866,left
28/07/2020, 18:09:42,-11.0123005,0.53169435,7.8412943,-0.5485568,-0.42027512,-2.6865842,13.529203861166861,2.7740368767737866,left
28/07/2020, 18:09:43,0.011975098,-7.2928348,4.380491,0.4850268,0.05253439,-0.24678947,8.507307546699096,0.5467320257037067,left
28/07/2020, 18:09:43,0.011975098,-7.2928348,4.380491,0.61697364,0.199142,-0.21380275,8.507307546699096,0.6826606935088425,left
28/07/2020, 18:09:43,-0.07903565,-7.094048,4.505032,0.61697364,0.199142,-0.21380275,8.40399178210956,0.6826606935088425,left
28/07/2020, 18:09:43,-0.07903565,-7.094048,4.505032,0.7318163,0.29321522,-0.16004664,8.40399178210956,0.8044533382485525,left
28/07/2020, 18:09:43,-0.3544629,-7.082073,4.6726832,0.7318163,0.29321522,-0.16004664,8.492077105691054,0.8044533382485525,left
28/07/2020, 18:09:43,-0.3544629,-7.082073,4.6726832,0.8747587,0.29077175,-0.09285148,8.492077105691054,0.9264839063854015,left
28/07/2020, 18:09:43,-0.6730005,-7.31918,4.7086086,0.8747587,0.29077175,-0.09285148,8.72893584248293,0.9264839063854015,left
28/07/2020, 18:09:43,-0.6730005,-7.31918,4.7086086,1.022588,0.25411984,-0.021991141,8.72893584248293,1.0539197088148167,left
28/07/2020, 18:09:43,-1.0633887,-7.431746,4.641548,1.022588,0.25411984,-0.021991141,8.826415667056262,1.0539197088148167,left
28/07/2020, 18:09:43,-1.0633887,-7.431746,4.641548,1.2327256,0.22113313,0.03420844,8.826415667056262,1.2528697188465359,left
28/07/2020, 18:09:43,-1.4058765,-7.5203614,4.8499146,1.2327256,0.22113313,0.03420844,9.058366070750104,1.2528697188465359,left
28/07/2020, 18:09:43,-1.4058765,-7.5203614,4.8499146,1.4587456,0.26878062,0.07086034,9.058366070750104,1.4849925693589463,left
28/07/2020, 18:09:43,-1.7220191,-7.668853,4.737349,1.4587456,0.26878062,0.07086034,9.177098066634954,1.4849925693589463,left
28/07/2020, 18:09:43,-1.7220191,-7.668853,4.737349,1.7006482,0.3506365,0.11239916,9.177098066634954,1.7400528142262461,left
28/07/2020, 18:09:43,-2.2129982,-7.654483,4.967271,1.7006482,0.3506365,0.11239916,9.38947538997823,1.7400528142262461,left
28/07/2020, 18:09:43,-2.2129982,-7.654483,4.967271,1.9816461,0.41660994,0.16004664,9.38947538997823,2.0312803551998866,left
28/07/2020, 18:09:43,-2.6249416,-7.534732,5.206773,1.9816461,0.41660994,0.16004664,9.527485798943932,2.0312803551998866,left
28/07/2020, 18:09:43,-2.6249416,-7.534732,5.206773,2.2479832,0.45692703,0.20647237,9.527485798943932,2.303224195613078,left
28/07/2020, 18:09:43,-2.8788135,-7.3455253,5.2666483,2.2479832,0.45692703,0.20647237,9.4858786018918,2.303224195613078,left
28/07/2020, 18:09:43,-2.8788135,-7.3455253,5.2666483,2.5851808,0.3652973,0.24190255,9.4858786018918,2.622044719041374,left
28/07/2020, 18:09:43,-3.3697927,-7.3072047,5.8198977,2.5851808,0.3652973,0.24190255,9.930858592525013,2.622044719041374,left
28/07/2020, 18:09:43,-3.3697927,-7.3072047,5.8198977,2.968804,0.24434601,0.27733272,9.930858592525013,2.991724403106017,left
28/07/2020, 18:09:43,-3.6021094,-8.157437,5.9133034,2.968804,0.24434601,0.27733272,10.699819291600274,2.991724403106017,left
28/07/2020, 18:09:43,-3.6021094,-8.157437,5.9133034,3.2950058,0.23457217,0.30054557,10.699819291600274,3.316988838787108,left
28/07/2020, 18:09:43,-3.3266823,-8.933423,5.9156985,3.2950058,0.23457217,0.30054557,11.219106544173815,3.316988838787108,left
28/07/2020, 18:09:43,-3.3266823,-8.933423,5.9156985,3.56623,0.3738494,0.31642807,11.219106544173815,3.5997065046643866,left
28/07/2020, 18:09:43,-3.3099172,-8.696317,5.7887626,3.56623,0.3738494,0.31642807,10.958615264280567,3.5997065046643866,left
28/07/2020, 18:09:43,-3.3099172,-8.696317,5.7887626,3.8716624,0.5632175,0.3652973,10.958615264280567,3.9294307037625513,left
28/07/2020, 18:09:43,-3.3697927,-7.697593,5.585186,3.8716624,0.5632175,0.3652973,10.089734724239511,3.9294307037625513,left
28/07/2020, 18:09:43,-3.3697927,-7.697593,5.585186,4.0891304,0.70493823,0.44104454,10.089734724239511,4.1728222630677845,left
28/07/2020, 18:09:44,-0.8095166,-1.7579445,10.358459,-0.19058989,-0.90896714,-0.27733272,10.53771173108085,0.9692570361925521,left
28/07/2020, 18:09:44,-0.8095166,-1.7579445,10.358459,-0.02321287,-0.9553929,-0.2553416,10.53771173108085,0.9891985405107693,left
28/07/2020, 18:09:44,-0.4263135,-1.7938697,11.239827,-0.02321287,-0.9553929,-0.2553416,11.390058222485925,0.9891985405107693,left
28/07/2020, 18:09:44,-0.4263135,-1.7938697,11.239827,0.15515971,-0.9761623,-0.16859874,11.390058222485925,1.0026928422139822,left
28/07/2020, 18:09:44,-0.033530276,-1.3627661,11.690091,0.15515971,-0.9761623,-0.16859874,11.769302721508412,1.0026928422139822,left
28/07/2020, 18:09:44,-0.033530276,-1.3627661,11.690091,0.28466308,-0.94684076,-0.018325951,11.769302721508412,0.9888763021286617,left
28/07/2020, 18:09:44,0.6945557,-1.0298585,11.5751295,0.28466308,-0.94684076,-0.018325951,11.641590923829645,0.9888763021286617,left
28/07/2020, 18:09:44,0.6945557,-1.0298585,11.5751295,0.33108884,-0.8588762,0.05253439,11.641590923829645,0.9219805086670101,left
28/07/2020, 18:09:44,1.1352394,-1.2502003,11.290123,0.33108884,-0.8588762,0.05253439,11.415719257461413,0.9219805086670101,left
28/07/2020, 18:09:44,1.1352394,-1.2502003,11.290123,0.3995057,-0.77824205,-0.036651902,11.415719257461413,0.8755620256924637,left
28/07/2020, 18:09:44,0.7951465,-1.9064356,10.981165,0.3995057,-0.77824205,-0.036651902,11.173752189668113,0.8755620256924637,left
28/07/2020, 18:09:44,0.7951465,-1.9064356,10.981165,0.63896483,-0.70493823,-0.23945908,11.173752189668113,0.9810986804093198,left
28/07/2020, 18:09:44,0.3281177,-2.9338992,11.088941,0.63896483,-0.70493823,-0.23945908,11.475191920528792,0.9810986804093198,left
28/07/2020, 18:09:44,0.3281177,-2.9338992,11.088941,1.1191047,-0.5778783,-0.47891816,11.475191920528792,1.347479632488773,left
28/07/2020, 18:09:44,-0.30177248,-4.2439747,11.318863,1.1191047,-0.5778783,-0.47891816,12.092106741542578,1.347479632488773,left
28/07/2020, 18:09:44,-0.30177248,-4.2439747,11.318863,1.7715086,-0.43249243,-0.6267475,12.092106741542578,1.9282387691173988,left
28/07/2020, 18:09:44,-1.0394385,-5.3408937,11.299703,1.7715086,-0.43249243,-0.6267475,12.541485486853798,1.9282387691173988,left
28/07/2020, 18:09:44,-1.0394385,-5.3408937,11.299703,2.5033247,-0.2724458,-0.6658429,12.541485486853798,2.6046512736494463,left
28/07/2020, 18:09:44,-0.37601808,-6.109695,11.711646,2.5033247,-0.2724458,-0.6658429,13.214855881713655,2.6046512736494463,left
28/07/2020, 18:09:44,-0.37601808,-6.109695,11.711646,3.2510235,-0.00977384,-0.46547914,13.214855881713655,3.284192496247223,left
28/07/2020, 18:09:44,-5.4414845,-5.9396486,11.043435,3.2510235,-0.00977384,-0.46547914,13.669185696174107,3.284192496247223,left
28/07/2020, 18:09:44,-5.4414845,-5.9396486,11.043435,3.3670878,-0.19303334,0.77457684,13.669185696174107,3.460420738008528,left
28/07/2020, 18:09:44,-7.0078273,-3.6045046,9.592053,3.3670878,-0.19303334,0.77457684,12.414088174498438,3.460420738008528,left
28/07/2020, 18:09:44,-7.0078273,-3.6045046,9.592053,2.583959,-0.64018655,1.6432269,12.414088174498438,3.1283986287639975,left
28/07/2020, 18:09:44,-3.9398074,-0.009580079,8.813672,2.583959,-0.64018655,1.6432269,9.654169541062354,3.1283986287639975,left
28/07/2020, 18:09:44,-3.9398074,-0.009580079,8.813672,1.6041316,-1.0897832,1.4159851,9.654169541062354,2.401224552876354,left
28/07/2020, 18:09:44,-1.5040723,2.198628,9.651929,1.6041316,-1.0897832,1.4159851,10.012788317413342,2.401224552876354,left
28/07/2020, 18:09:44,-1.5040723,2.198628,9.651929,0.8356633,-1.3634508,0.69027746,10.012788317413342,1.7417847571735579,left
28/07/2020, 18:09:44,-0.09340577,2.1483326,10.638678,0.8356633,-1.3634508,0.69027746,10.853825067399898,1.7417847571735579,left
28/07/2020, 18:09:44,-0.09340577,2.1483326,10.638678,0.22235486,-1.4062113,0.11484262,10.853825067399898,1.4283069035740332,left
28/07/2020, 18:09:45,-1.8848804,-4.670288,-8.382568,3.8777711,-3.3756402,0.5925391,9.779152177786731,5.175244729285299,left
28/07/2020, 18:09:45,-2.189048,-5.630691,-8.3250885,3.8777711,-3.3756402,0.5925391,10.286093118360506,5.175244729285299,left
28/07/2020, 18:09:45,-2.189048,-5.630691,-8.3250885,3.5149174,-3.4061832,0.6780602,10.286093118360506,4.941304891089337,left
28/07/2020, 18:09:45,-2.3471193,-6.3012967,-7.288045,3.5149174,-3.4061832,0.6780602,9.916194244253903,4.941304891089337,left
28/07/2020, 18:09:45,-2.3471193,-6.3012967,-7.288045,3.2644627,-3.348762,0.7611378,9.916194244253903,4.738169971232166,left
28/07/2020, 18:09:45,-2.7111623,-6.253396,-6.344407,3.2644627,-3.348762,0.7611378,9.311652074193686,4.738169971232166,left
28/07/2020, 18:09:45,-2.7111623,-6.253396,-6.344407,3.1801631,-3.2290325,0.8662066,9.311652074193686,4.614152411003413,left
28/07/2020, 18:09:45,-3.1063404,-6.0258694,-6.05461,3.1801631,-3.2290325,0.8662066,9.089485789903524,4.614152411003413,left
28/07/2020, 18:09:45,-3.1063404,-6.0258694,-6.05461,3.1007507,-3.1117463,0.963945,9.089485789903524,4.497422575464003,left
28/07/2020, 18:09:45,-3.6164796,-5.934859,-6.303692,3.1007507,-3.1117463,0.963945,9.382856976015717,4.497422575464003,left
28/07/2020, 18:09:45,-3.6164796,-5.934859,-6.303692,2.8502963,-3.0482163,1.0238098,9.382856976015717,4.296975462378461,left
28/07/2020, 18:09:45,-3.8200562,-5.630691,-7.407796,2.8502963,-3.0482163,1.0238098,10.058476588159968,4.296975462378461,left
28/07/2020, 18:09:45,-3.8200562,-5.630691,-7.407796,2.3640475,-3.0176733,1.05924,10.058476588159968,3.977066999957497,left
28/07/2020, 18:09:45,-3.5134938,-4.84752,-8.945398,2.3640475,-3.0176733,1.05924,10.7639787599805,3.977066999957497,left
28/07/2020, 18:09:45,-3.5134938,-4.84752,-8.945398,1.7360784,-3.0078993,1.0958918,10.7639787599805,3.641758526044875,left
28/07/2020, 18:09:45,-2.8716285,-3.784131,-10.93087,1.7360784,-3.0078993,1.0958918,11.91846543655142,3.641758526044875,left
28/07/2020, 18:09:45,-2.8716285,-3.784131,-10.93087,1.1753043,-3.040886,1.1911868,11.91846543655142,3.470915347814934,left
28/07/2020, 18:09:45,-2.0261867,-3.0943654,-12.499607,1.1753043,-3.040886,1.1911868,13.035363701943165,3.470915347814934,left
28/07/2020, 18:09:45,-2.0261867,-3.0943654,-12.499607,0.6585125,-3.1007507,1.3060294,13.035363701943165,3.428411641212823,left
28/07/2020, 18:09:45,-1.0585986,-3.4943337,-12.973822,0.6585125,-3.1007507,1.3060294,13.477798311935093,3.428411641212823,left
28/07/2020, 18:09:45,-1.0585986,-3.4943337,-12.973822,0.02076941,-3.027447,1.3988808,13.477798311935093,3.335076343885842,left
28/07/2020, 18:09:45,-0.6730005,-3.9829175,-15.313756,0.02076941,-3.027447,1.3988808,15.83754035112299,3.335076343885842,left
