DATE,TIME,ax,ay,az,gx,gy,gz,ma,mg,label
28/07/2020, 18:03:20,0.89573735,0.46463382,9.793235,-0.18203777,-0.01954768,0.03176498,9.845083967612506,0.18581947090619821,left
28/07/2020, 18:03:20,0.89573735,0.46463382,9.793235,-0.20402892,-0.010995571,0.01710422,9.845083967612506,0.20503964696748747,left
28/07/2020, 18:03:20,1.0250684,0.3281177,9.75731,-0.20402892,-0.010995571,0.01710422,9.816492408397337,0.20503964696748747,left
28/07/2020, 18:03:20,1.0250684,0.3281177,9.75731,-0.20891583,0.00122173,0.0122173,9.816492408397337,0.20927632194244114,left
28/07/2020, 18:03:20,1.1064991,0.13651612,10.008787,-0.20891583,0.00122173,0.0122173,10.070690004869688,0.20927632194244114,left
28/07/2020, 18:03:20,1.1064991,0.13651612,10.008787,-0.17226394,0.00855211,-0.014660761,10.070690004869688,0.1730980642928909,left
28/07/2020, 18:03:20,0.8813672,-0.07903565,10.054293,-0.17226394,0.00855211,-0.014660761,10.093158874108177,0.1730980642928909,left
28/07/2020, 18:03:20,0.8813672,-0.07903565,10.054293,-0.11239916,0.010995571,-0.03543017,10.093158874108177,0.11836287814630174,left
28/07/2020, 18:03:20,0.68737066,-0.22513184,9.984837,-0.11239916,0.010995571,-0.03543017,10.011000162984304,0.11836287814630174,left
28/07/2020, 18:03:20,0.68737066,-0.22513184,9.984837,-0.05986477,0.014660761,-0.02687806,10.011000162984304,0.06723956289641644,left
28/07/2020, 18:03:20,0.5963599,-0.17483643,9.898616,-0.05986477,0.014660761,-0.02687806,9.9181050814755,0.06723956289641644,left
28/07/2020, 18:03:20,0.5963599,-0.17483643,9.898616,-0.02687806,0.014660761,-0.00977384,9.9181050814755,0.032138699556363816,left
28/07/2020, 18:03:20,0.69695073,-0.043110352,9.788445,-0.02687806,0.014660761,-0.00977384,9.81332072236312,0.032138699556363816,left
28/07/2020, 18:03:20,0.69695073,-0.043110352,9.788445,-0.00488692,0.00855211,-0.00244346,9.81332072236312,0.010148451481692461,left
28/07/2020, 18:03:20,0.75203615,0.05748047,9.82437,-0.00488692,0.00855211,-0.00244346,9.853279445339618,0.010148451481692461,left
28/07/2020, 18:03:20,0.75203615,0.05748047,9.82437,0.0,0.0036651902,0.0,9.853279445339618,0.003665190190076828,left
28/07/2020, 18:03:20,0.8430469,0.09580079,9.745335,0.0,0.0036651902,0.0,9.782200817326299,0.003665190190076828,left
28/07/2020, 18:03:20,0.8430469,0.09580079,9.745335,-0.00977384,0.00855211,-0.00122173,9.782200817326299,0.013044506846048267,left
28/07/2020, 18:03:20,0.85023195,0.13172609,9.83874,-0.00977384,0.00855211,-0.00122173,9.876287651459009,0.013044506846048267,left
28/07/2020, 18:03:20,0.85023195,0.13172609,9.83874,-0.0244346,0.00488692,-0.00855211,9.876287651459009,0.02634521301615745,left
28/07/2020, 18:03:20,0.8262818,0.21076173,9.821976,-0.0244346,0.00488692,-0.00855211,9.858923313608766,0.02634521301615745,left
28/07/2020, 18:03:20,0.8262818,0.21076173,9.821976,-0.036651902,0.0036651902,-0.01588249,9.858923313608766,0.04011295335816753,left
28/07/2020, 18:03:20,0.93405765,0.119750984,9.939331,-0.036651902,0.0036651902,-0.01588249,9.983842236928748,0.04011295335816753,left
28/07/2020, 18:03:20,0.93405765,0.119750984,9.939331,-0.04642574,0.00855211,-0.010995571,9.983842236928748,0.04847051265856601,left
28/07/2020, 18:03:20,0.89573735,0.05269043,9.841136,-0.04642574,0.00855211,-0.010995571,9.88195724707254,0.04847051265856601,left
28/07/2020, 18:03:20,0.89573735,0.05269043,9.841136,-0.04642574,0.01588249,-0.00855211,9.88195724707254,0.049807042878099436,left
28/07/2020, 18:03:20,0.732876,0.038320314,9.865086,-0.04642574,0.01588249,-0.00855211,9.892345000701892,0.049807042878099436,left
28/07/2020, 18:03:20,0.732876,0.038320314,9.865086,-0.03420844,0.02076941,-0.01343903,9.892345000701892,0.04221603062026516,left
28/07/2020, 18:03:20,0.69216067,0.0047900393,9.764495,-0.03420844,0.02076941,-0.01343903,9.788997390170262,0.04221603062026516,left
28/07/2020, 18:03:20,0.69216067,0.0047900393,9.764495,-0.01954768,0.02321287,-0.01710422,9.788997390170262,0.03483537712032199,left
28/07/2020, 18:03:21,0.852627,0.05508545,9.7621,0.00122173,0.02076941,-0.01588249,9.79941875178062,0.026174692055546758,left
28/07/2020, 18:03:21,0.76161623,0.021555176,9.733359,0.00122173,0.02076941,-0.01588249,9.763135146444135,0.026174692055546758,left
28/07/2020, 18:03:21,0.76161623,0.021555176,9.733359,0.010995571,0.0122173,-0.029321522,9.763135146444135,0.03361423234359656,left
28/07/2020, 18:03:21,0.8143067,0.0047900393,9.79563,0.010995571,0.0122173,-0.029321522,9.82941983633542,0.03361423234359656,left
28/07/2020, 18:03:21,0.8143067,0.0047900393,9.79563,0.010995571,0.01343903,-0.01954768,9.82941983633542,0.02614616451099181,left
28/07/2020, 18:03:21,0.8765772,-0.05269043,9.82437,0.010995571,0.01343903,-0.01954768,9.863539796278777,0.02614616451099181,left
28/07/2020, 18:03:21,0.8765772,-0.05269043,9.82437,0.010995571,0.01588249,-0.021991141,9.863539796278777,0.0292705714987962,left
28/07/2020, 18:03:21,0.7711963,-0.019160157,9.79563,0.010995571,0.01588249,-0.021991141,9.825959844457053,0.0292705714987962,left
28/07/2020, 18:03:21,0.7711963,-0.019160157,9.79563,0.014660761,0.01588249,-0.02687806,9.825959844457053,0.03449089085585356,left
28/07/2020, 18:03:21,0.7783814,0.014370117,9.800421,0.014660761,0.01588249,-0.02687806,9.831293465775815,0.03449089085585356,left
28/07/2020, 18:03:21,0.7783814,0.014370117,9.800421,0.02321287,0.00977384,-0.00977384,9.831293465775815,0.027016536881528056,left
28/07/2020, 18:03:21,0.76401126,-0.050295413,9.685459,0.02321287,0.00977384,-0.00977384,9.71567607187406,0.027016536881528056,left
28/07/2020, 18:03:21,0.76401126,-0.050295413,9.685459,0.029321522,0.00855211,0.01343903,9.71567607187406,0.03336911362969772,left
28/07/2020, 18:03:21,0.6322852,0.102985844,9.656719,0.029321522,0.00855211,0.01343903,9.677944848345042,0.03336911362969772,left
28/07/2020, 18:03:21,0.6322852,0.102985844,9.656719,0.030543251,0.00488692,0.02076941,9.677944848345042,0.037257758284000554,left
28/07/2020, 18:03:21,0.70174074,0.1820215,9.642349,0.030543251,0.00488692,0.02076941,9.669564148488375,0.037257758284000554,left
28/07/2020, 18:03:21,0.70174074,0.1820215,9.642349,0.030543251,0.00244346,0.0073303804,9.669564148488375,0.03150547814148737,left
28/07/2020, 18:03:21,0.7664063,0.086220704,9.671089,0.030543251,0.00244346,0.0073303804,9.701792535543785,0.03150547814148737,left
28/07/2020, 18:03:21,0.7664063,0.086220704,9.671089,0.02687806,0.0036651902,-0.0073303804,9.701792535543785,0.028099790863368824,left
28/07/2020, 18:03:21,0.7065308,0.117355965,9.7142,0.02687806,0.0036651902,-0.0073303804,9.740566730563694,0.028099790863368824,left
28/07/2020, 18:03:21,0.7065308,0.117355965,9.7142,0.02321287,0.0036651902,-0.018325951,9.740566730563694,0.029801198936713236,left
28/07/2020, 18:03:21,0.6658155,0.23471193,9.704619,0.02321287,0.0036651902,-0.018325951,9.730264013947707,0.029801198936713236,left
28/07/2020, 18:03:21,0.6658155,0.23471193,9.704619,-0.018325951,0.00122173,0.0,9.730264013947707,0.01836663013426202,left
28/07/2020, 18:03:21,0.60833496,0.31374758,9.656719,-0.018325951,0.00122173,0.0,9.680947000493813,0.01836663013426202,left
28/07/2020, 18:03:21,0.60833496,0.31374758,9.656719,-0.051312663,-0.00244346,0.014660761,9.680947000493813,0.053421884583491556,left
28/07/2020, 18:03:21,0.6346802,0.2203418,9.685459,-0.051312663,-0.00244346,0.014660761,9.708732573011524,0.053421884583491556,left
28/07/2020, 18:03:21,0.6346802,0.2203418,9.685459,-0.04642574,-0.0073303804,0.0073303804,9.708732573011524,0.04756909076108595,left
28/07/2020, 18:03:21,0.6394702,0.102985844,9.716595,-0.04642574,-0.0073303804,0.0073303804,9.73815900122024,0.04756909076108595,left
28/07/2020, 18:03:21,0.6394702,0.102985844,9.716595,-0.03420844,-0.00122173,0.014660761,9.73815900122024,0.0372377207817194,left
28/07/2020, 18:03:21,0.74006104,0.08861572,9.759705,-0.03420844,-0.00122173,0.014660761,9.78812427267063,0.0372377207817194,left
28/07/2020, 18:03:22,0.51732427,-0.24189699,8.576566,-0.37873632,-0.53511775,1.4770716,8.59555806720587,1.6160237738235983,left
28/07/2020, 18:03:22,-0.06945557,-0.91729254,8.677156,-0.37873632,-0.53511775,1.4770716,8.725783271496281,1.6160237738235983,left
28/07/2020, 18:03:22,-0.06945557,-0.91729254,8.677156,-0.4105013,-0.5424481,1.5882491,8.725783271496281,1.7278010379347544,left
28/07/2020, 18:03:22,0.016765138,-0.8646021,8.931028,-0.4105013,-0.5424481,1.5882491,8.972796972957747,1.7278010379347544,left
28/07/2020, 18:03:22,0.016765138,-0.8646021,8.931028,-0.33597577,-0.5400047,1.6285661,8.972796972957747,1.748345632680919,left
28/07/2020, 18:03:22,0.8765772,-0.49337405,9.354947,-0.33597577,-0.5400047,1.6285661,9.408870314618373,1.748345632680919,left
28/07/2020, 18:03:22,0.8765772,-0.49337405,9.354947,-0.14660761,-0.5265656,1.5650362,9.408870314618373,1.6577404413790446,left
28/07/2020, 18:03:22,1.4418018,-0.6945557,10.36325,-0.14660761,-0.5265656,1.5650362,10.486092980142933,1.6577404413790446,left
28/07/2020, 18:03:22,1.4418018,-0.6945557,10.36325,-0.02321287,-0.24190255,1.6798788,10.486092980142933,1.697365183224438,left
28/07/2020, 18:03:22,0.117355965,-1.2094849,9.17053,-0.02321287,-0.24190255,1.6798788,9.250689302191747,1.697365183224438,left
28/07/2020, 18:03:22,0.117355965,-1.2094849,9.17053,0.010995571,-0.3298671,1.7678434,9.250689302191747,1.7983891037023012,left
28/07/2020, 18:03:22,0.4023633,-0.5125342,8.562195,0.010995571,-0.3298671,1.7678434,8.586953344502874,1.7983891037023012,left
28/07/2020, 18:03:22,0.4023633,-0.5125342,8.562195,0.025656331,-0.46181396,1.8399254,8.586953344502874,1.8971704947357015,left
28/07/2020, 18:03:22,0.9915381,-0.05748047,9.321417,0.025656331,-0.46181396,1.8399254,9.374180711124108,1.8971704947357015,left
28/07/2020, 18:03:22,0.9915381,-0.05748047,9.321417,0.025656331,-0.38362324,2.0109677,9.374180711124108,2.047392550652458,left
28/07/2020, 18:03:22,0.7232959,-0.5676197,9.601634,0.025656331,-0.38362324,2.0109677,9.645554678804345,2.047392550652458,left
28/07/2020, 18:03:22,0.7232959,-0.5676197,9.601634,0.00244346,-0.28710654,2.2956307,9.645554678804345,2.313516029471566,left
28/07/2020, 18:03:22,0.79754156,-0.27303225,9.855506,0.00244346,-0.28710654,2.2956307,9.891492129338692,2.313516029471566,left
28/07/2020, 18:03:22,0.79754156,-0.27303225,9.855506,0.15271625,-0.24678947,2.4568992,9.891492129338692,2.4739807614156213,left
28/07/2020, 18:03:22,1.4202466,0.5221143,10.327325,0.15271625,-0.24678947,2.4568992,10.437592760774283,2.4739807614156213,left
28/07/2020, 18:03:22,1.4202466,0.5221143,10.327325,0.3127629,-0.1710422,2.1868968,10.437592760774283,2.2157602931624814,left
28/07/2020, 18:03:22,1.583108,1.0370435,10.214759,0.3127629,-0.1710422,2.1868968,10.388598978260019,2.2157602931624814,left
28/07/2020, 18:03:22,1.583108,1.0370435,10.214759,0.30421078,-0.10751224,1.4416414,10.388598978260019,1.4773060456392046,left
28/07/2020, 18:03:22,0.7448511,0.44786867,9.383687,0.30421078,-0.10751224,1.4416414,9.423851208859135,1.4773060456392046,left
28/07/2020, 18:03:22,0.7448511,0.44786867,9.383687,0.21991141,-0.12095127,1.0787876,9.423851208859135,1.1075977835362854,left
28/07/2020, 18:03:22,0.021555176,-0.8382569,9.505833,0.21991141,-0.12095127,1.0787876,9.542745623711463,1.1075977835362854,left
28/07/2020, 18:03:22,0.021555176,-0.8382569,9.505833,-0.0036651902,-0.16493355,1.3390161,9.542745623711463,1.349140678694235,left
28/07/2020, 18:03:22,0.27303225,-1.4058765,9.172925,-0.0036651902,-0.16493355,1.3390161,9.284050213241374,1.349140678694235,left
28/07/2020, 18:03:22,0.27303225,-1.4058765,9.172925,-0.16859874,-0.21013756,1.7201959,9.284050213241374,1.741165479859104,left
28/07/2020, 18:03:22,1.1783496,-1.0849439,9.74773,-0.16859874,-0.21013756,1.7201959,9.878454139467259,1.741165479859104,left
28/07/2020, 18:03:23,2.8309133,-4.7876444,7.90117,1.0323619,-0.4764747,-0.22602005,9.66250965097957,1.1592602066641557,left
28/07/2020, 18:03:23,2.8883936,-4.7086086,7.9610453,1.0323619,-0.4764747,-0.22602005,9.689791264128427,1.1592602066641557,left
28/07/2020, 18:03:23,2.8883936,-4.7086086,7.9610453,1.067792,-0.48136163,-0.23212871,9.689791264128427,1.1940572153014617,left
28/07/2020, 18:03:23,2.9219239,-4.567302,8.0017605,1.067792,-0.48136163,-0.23212871,9.665715679290091,1.1940572153014617,left
28/07/2020, 18:03:23,2.9219239,-4.567302,8.0017605,1.1117743,-0.4838051,-0.22479832,9.665715679290091,1.2331438688556735,left
28/07/2020, 18:03:23,2.9770093,-4.4379716,8.076006,1.1117743,-0.4838051,-0.22479832,9.68400991711931,1.2331438688556735,left
28/07/2020, 18:03:23,2.9770093,-4.4379716,8.076006,1.1362089,-0.48747027,-0.2076941,9.68400991711931,1.2536884572369265,left
28/07/2020, 18:03:23,3.051255,-4.253555,8.104747,1.1362089,-0.48747027,-0.2076941,9.648305893166697,1.2536884572369265,left
28/07/2020, 18:03:23,3.051255,-4.253555,8.104747,1.1484262,-0.49480066,-0.18814643,9.648305893166697,1.2645589934803634,left
28/07/2020, 18:03:23,3.056045,-4.064348,8.190968,1.1484262,-0.49480066,-0.18814643,9.641072938559676,1.2645589934803634,left
28/07/2020, 18:03:23,3.056045,-4.064348,8.190968,1.1374307,-0.5094614,-0.16493355,9.641072938559676,1.2571803849551157,left
28/07/2020, 18:03:23,3.0153298,-3.8823268,8.150251,1.1374307,-0.5094614,-0.16493355,9.51794481126992,1.2571803849551157,left
28/07/2020, 18:03:23,3.0153298,-3.8823268,8.150251,1.117883,-0.5290091,-0.13927722,9.51794481126992,1.2445525716989403,left
28/07/2020, 18:03:23,3.04407,-3.68354,8.164622,1.117883,-0.5290091,-0.13927722,9.460226599936417,1.2445525716989403,left
28/07/2020, 18:03:23,3.04407,-3.68354,8.164622,1.0922266,-0.56810445,-0.11117743,9.460226599936417,1.2361480823814943,left
28/07/2020, 18:03:23,2.8907888,-3.6021094,7.800579,1.0922266,-0.56810445,-0.11117743,9.065367397646384,1.2361480823814943,left
28/07/2020, 18:03:23,2.8907888,-3.6021094,7.800579,1.0189228,-0.62308234,-0.07941245,9.065367397646384,1.196971855954973,left
28/07/2020, 18:03:23,2.8716285,-3.544629,7.793394,1.0189228,-0.62308234,-0.07941245,9.030373039418494,1.196971855954973,left
28/07/2020, 18:03:23,2.8716285,-3.544629,7.793394,0.9370669,-0.65362555,-0.05009093,9.030373039418494,1.1436038899193357,left
28/07/2020, 18:03:23,2.8716285,-3.544629,7.793394,0.86376315,-0.65362555,-0.02076941,9.030373039418494,1.0833949006109838,left
28/07/2020, 18:03:23,2.9650342,-3.4895437,7.838899,0.86376315,-0.65362555,-0.02076941,9.078363443367719,1.0833949006109838,left
28/07/2020, 18:03:23,3.056045,-3.5254688,7.9083548,0.86376315,-0.65362555,-0.02076941,9.182070399608122,1.0833949006109838,left
28/07/2020, 18:03:23,3.056045,-3.5254688,7.9083548,0.8136722,-0.65362555,0.0073303804,9.182070399608122,1.0437157256060894,left
28/07/2020, 18:03:23,3.1207106,-3.5015187,7.8891945,0.8136722,-0.65362555,0.0073303804,9.178172900338197,1.0437157256060894,left
28/07/2020, 18:03:23,3.1207106,-3.5015187,7.8891945,0.77213335,-0.70615995,0.03543017,9.178172900338197,1.0469513273045534,left
28/07/2020, 18:03:23,3.1566358,-3.558999,7.8365045,0.77213335,-0.70615995,0.03543017,9.167421981753147,1.0469513273045534,left
28/07/2020, 18:03:23,3.1566358,-3.558999,7.8365045,0.7635813,-0.77091163,0.054977853,9.167421981753147,1.0864546362632672,left
28/07/2020, 18:03:23,3.319497,-3.7122805,7.9826,0.7635813,-0.77091163,0.054977853,9.408612745668247,1.0864546362632672,left
28/07/2020, 18:03:23,3.319497,-3.7122805,7.9826,0.7770203,-0.7855724,0.07086034,9.408612745668247,1.1072062623593075,left
28/07/2020, 18:03:23,3.4631984,-3.7577858,8.121511,0.7770203,-0.7855724,0.07086034,9.59550133141223,1.1072062623593075,left
28/07/2020, 18:03:24,1.710044,-3.8583767,12.509188,0.49113548,0.97982746,0.45814875,13.201935408253448,1.1879293713223065,left
28/07/2020, 18:03:24,0.36164796,-4.0595584,12.214601,0.49113548,0.97982746,0.45814875,12.876617199363368,1.1879293713223065,left
28/07/2020, 18:03:24,0.36164796,-4.0595584,12.214601,0.5302308,0.90896714,0.5253439,12.876617199363368,1.176159932745532,left
28/07/2020, 18:03:24,-0.3065625,-3.755391,11.855348,0.5302308,0.90896714,0.5253439,12.43970292099487,1.176159932745532,left
28/07/2020, 18:03:24,-0.3065625,-3.755391,11.855348,0.38117978,0.8197808,0.57054794,12.43970292099487,1.0690479774384927,left
28/07/2020, 18:03:24,-0.5604346,-3.1901662,10.820699,0.38117978,0.8197808,0.57054794,11.295077189010831,1.0690479774384927,left
28/07/2020, 18:03:24,-0.5604346,-3.1901662,10.820699,0.16737701,0.75747263,0.60719985,11.295077189010831,0.985125124161417,left
28/07/2020, 18:03:24,-0.6466553,-2.703977,10.835069,0.16737701,0.75747263,0.60719985,11.186079254909293,0.985125124161417,left
28/07/2020, 18:03:24,-0.6466553,-2.703977,10.835069,-0.102625325,0.72448593,0.64140826,11.186079254909293,0.9730449052269717,left
28/07/2020, 18:03:24,-0.62031007,-2.6249416,10.0063925,-0.102625325,0.72448593,0.64140826,10.363541545281862,0.9730449052269717,left
28/07/2020, 18:03:24,-0.62031007,-2.6249416,10.0063925,-0.33108884,0.6023129,0.6499604,10.363541545281862,0.9459646912212605,left
28/07/2020, 18:03:24,-0.5628296,-2.787803,9.623189,-0.33108884,0.6023129,0.6499604,10.034659355274322,0.9459646912212605,left
28/07/2020, 18:03:24,-0.5628296,-2.787803,9.623189,-0.74647707,0.41660994,0.6756167,10.034659355274322,1.0896099105720884,left
28/07/2020, 18:03:24,-0.55803955,-3.159031,9.017249,-0.74647707,0.41660994,0.6756167,9.570875922122237,1.0896099105720884,left
28/07/2020, 18:03:24,-0.55803955,-3.159031,9.017249,-1.0885614,0.29810214,0.7281511,9.570875922122237,1.3431436414176472,left
28/07/2020, 18:03:24,-0.05508545,-3.6979103,9.393267,-1.0885614,0.29810214,0.7281511,10.095099501262222,1.3431436414176472,left
28/07/2020, 18:03:24,-0.05508545,-3.6979103,9.393267,-1.3316858,0.27122405,0.7819072,10.095099501262222,1.5679057297888888,left
28/07/2020, 18:03:24,0.19878663,-4.4619217,9.189691,-1.3316858,0.27122405,0.7819072,10.217566953415961,1.5679057297888888,left
28/07/2020, 18:03:24,0.19878663,-4.4619217,9.189691,-1.4355328,0.26145023,0.7843507,10.217566953415961,1.6565979225539003,left
28/07/2020, 18:03:24,0.23950197,-5.3863993,8.727451,-1.4355328,0.26145023,0.7843507,10.258609306322256,1.6565979225539003,left
28/07/2020, 18:03:24,0.23950197,-5.3863993,8.727451,-1.5357146,0.21380275,0.7733551,10.258609306322256,1.7326884263949158,left
28/07/2020, 18:03:24,0.023950197,-6.2031007,8.885523,-1.5357146,0.21380275,0.7733551,10.836583772447533,1.7326884263949158,left
28/07/2020, 18:03:24,0.023950197,-6.2031007,8.885523,-1.5479319,0.1624901,0.7635813,10.836583772447533,1.7336529624160655,left
28/07/2020, 18:03:24,0.122146,-6.5192432,9.08431,-1.5479319,0.1624901,0.7635813,11.182134527041619,1.7336529624160655,left
28/07/2020, 18:03:24,0.122146,-6.5192432,9.08431,-1.4672978,0.16737701,0.70249474,11.182134527041619,1.6353827489511084,left
28/07/2020, 18:03:24,0.1460962,-7.0509377,9.201666,-1.4672978,0.16737701,0.70249474,11.593434383997621,1.6353827489511084,left
28/07/2020, 18:03:24,0.1460962,-7.0509377,9.201666,-1.3658942,0.27000234,0.6304127,11.593434383997621,1.5283940564793264,left
28/07/2020, 18:03:24,0.55324954,-7.580237,8.969349,-1.3658942,0.27000234,0.6304127,11.756500181337906,1.5283940564793264,left
28/07/2020, 18:03:24,0.55324954,-7.580237,8.969349,-1.3365726,0.34452787,0.6658429,11.756500181337906,1.5324727239347151,left
28/07/2020, 18:03:24,0.09580079,-7.5131764,8.459209,-1.3365726,0.34452787,0.6658429,11.314381220963439,1.5324727239347151,left
28/07/2020, 18:03:25,-0.15088624,1.4322218,8.792117,-0.9566146,-2.0610585,0.15027279,8.909284443057459,2.277203472974128,left
28/07/2020, 18:03:25,0.847837,0.22273682,10.35367,-0.9566146,-2.0610585,0.15027279,10.390713362414099,2.277203472974128,left
28/07/2020, 18:03:25,0.847837,0.22273682,10.35367,-0.9896013,-2.0219631,0.09651667,10.390713362414099,2.253211282770924,left
28/07/2020, 18:03:25,0.36883304,-1.2861255,11.060201,-0.9896013,-2.0219631,0.09651667,11.140834620643867,2.253211282770924,left
28/07/2020, 18:03:25,0.36883304,-1.2861255,11.060201,-1.1068875,-1.9327769,0.11239916,11.140834620643867,2.2301255734001457,left
28/07/2020, 18:03:25,-0.14370118,-1.7914747,11.258987,-1.1068875,-1.9327769,0.11239916,11.40152750757132,2.2301255734001457,left
28/07/2020, 18:03:25,-0.14370118,-1.7914747,11.258987,-1.0494661,-1.914451,0.07208207,11.40152750757132,2.184421578567165,left
28/07/2020, 18:03:25,-0.23950197,-2.059717,10.710527,-1.0494661,-1.914451,0.07208207,10.909408447794974,2.184421578567165,left
28/07/2020, 18:03:25,-0.23950197,-2.059717,10.710527,-0.81245047,-2.1282537,-0.10018186,10.909408447794974,2.2802578744483695,left
28/07/2020, 18:03:25,0.17244141,-2.3854396,11.376344,-0.81245047,-2.1282537,-0.10018186,11.625027091822288,2.2802578744483695,left
28/07/2020, 18:03:25,0.17244141,-2.3854396,11.376344,-0.7281511,-2.204001,-0.26145023,11.625027091822288,2.3358468293050922,left
28/07/2020, 18:03:25,0.73527104,-2.692002,11.333233,-0.7281511,-2.204001,-0.26145023,11.67174648807349,2.3358468293050922,left
28/07/2020, 18:03:25,0.73527104,-2.692002,11.333233,-0.37018418,-2.068389,-0.33597577,11.67174648807349,2.1279447472793858,left
28/07/2020, 18:03:25,1.0849439,-2.6009912,10.693763,-0.37018418,-2.068389,-0.33597577,11.058879739922686,2.1279447472793858,left
28/07/2020, 18:03:25,1.0849439,-2.6009912,10.693763,-0.02809979,-2.0830498,-0.3176498,11.058879739922686,2.1073175751721633,left
28/07/2020, 18:03:25,1.5376027,-2.3303542,9.721385,-0.02809979,-2.0830498,-0.3176498,10.114351144315924,2.1073175751721633,left
28/07/2020, 18:03:25,1.5376027,-2.3303542,9.721385,0.04276055,-2.2076662,-0.30421078,10.114351144315924,2.2289375345217244,left
28/07/2020, 18:03:25,2.1603076,-1.8154249,9.168135,0.04276055,-2.2076662,-0.30421078,9.592569543307986,2.2289375345217244,left
28/07/2020, 18:03:25,2.1603076,-1.8154249,9.168135,-0.014660761,-2.2577572,-0.25411984,9.592569543307986,2.272060595052114,left
28/07/2020, 18:03:25,2.5938063,-1.1280543,10.708133,-0.014660761,-2.2577572,-0.25411984,11.075398152005231,2.272060595052114,left
28/07/2020, 18:03:25,2.5938063,-1.1280543,10.708133,0.24068081,-2.0806062,-0.26755887,11.075398152005231,2.1115011854477466,left
28/07/2020, 18:03:25,3.2596216,-1.3004956,9.524993,0.24068081,-2.0806062,-0.26755887,10.150956237555565,2.1115011854477466,left
28/07/2020, 18:03:25,3.2596216,-1.3004956,9.524993,0.43004897,-1.9303335,-0.3457496,10.150956237555565,2.0076534307198783,left
28/07/2020, 18:03:25,3.5613942,-1.219065,8.863968,0.43004897,-1.9303335,-0.3457496,9.630138885769602,2.0076534307198783,left
28/07/2020, 18:03:25,3.5613942,-1.219065,8.863968,0.43004897,-2.036624,-0.38728842,9.630138885769602,2.1172556702331997,left
28/07/2020, 18:03:25,3.6979103,-1.0538087,9.912986,0.43004897,-2.036624,-0.38728842,10.632607437035887,2.1172556702331997,left
28/07/2020, 18:03:25,3.6979103,-1.0538087,9.912986,0.37629285,-2.1710143,-0.35185826,10.632607437035887,2.231300893168999,left
28/07/2020, 18:03:25,4.0835085,-0.95561284,9.539363,0.37629285,-2.1710143,-0.35185826,10.420541357156585,2.231300893168999,left
28/07/2020, 18:03:25,4.0835085,-0.95561284,9.539363,0.2968804,-2.185675,-0.2736675,10.420541357156585,2.2226575693552104,left
28/07/2020, 18:03:25,4.629573,-0.6490503,8.875943,0.2968804,-2.185675,-0.2736675,10.031778438195081,2.2226575693552104,left
28/07/2020, 18:03:26,-0.4167334,4.8906302,-9.5633135,-2.3774867,0.00488692,0.16615528,10.7493672246587,2.3832906861696395,left
28/07/2020, 18:03:26,-0.4167334,4.8906302,-9.5633135,-2.307848,-0.87842387,0.35307997,10.7493672246587,2.4944851666600796,left
28/07/2020, 18:03:26,-2.9602442,3.5877395,-14.350958,-2.307848,-0.87842387,0.35307997,15.085917668006381,2.4944851666600796,left
28/07/2020, 18:03:26,-2.9602442,3.5877395,-14.350958,-2.7916532,-1.7837259,0.3176498,15.085917668006381,3.328048479705827,left
28/07/2020, 18:03:26,2.7662477,2.047742,-12.022999,-2.7916532,-1.7837259,0.3176498,12.505913554768247,3.328048479705827,left
28/07/2020, 18:03:26,2.7662477,2.047742,-12.022999,-3.1374028,-1.7348566,0.17837258,12.505913554768247,3.5895459848480145,left
28/07/2020, 18:03:26,3.1374757,2.5578809,-10.504556,-3.1374028,-1.7348566,0.17837258,11.257539653012412,3.5895459848480145,left
28/07/2020, 18:03:26,3.1374757,2.5578809,-10.504556,-3.0396643,-1.3390161,0.08185591,11.257539653012412,3.322532666065955,left
28/07/2020, 18:03:26,4.1314087,0.9412427,-9.259146,-3.0396643,-1.3390161,0.08185591,10.182644811609084,3.322532666065955,left
28/07/2020, 18:03:26,4.1314087,0.9412427,-9.259146,-2.6169457,-1.0897832,0.1588249,10.182644811609084,2.8392354217814804,left
28/07/2020, 18:03:26,3.2572267,0.21076173,-10.193204,-2.6169457,-1.0897832,0.1588249,10.703053423918089,2.8392354217814804,left
28/07/2020, 18:03:26,3.2572267,0.21076173,-10.193204,-2.2284355,-1.0409139,0.34697133,10.703053423918089,2.483911388496195,left
28/07/2020, 18:03:26,2.1195924,-0.8861573,-10.015972,-2.2284355,-1.0409139,0.34697133,10.276071459201313,2.483911388496195,left
28/07/2020, 18:03:26,2.1195924,-0.8861573,-10.015972,-1.7629564,-0.9969317,0.49113548,10.276071459201313,2.0840110406034964,left
28/07/2020, 18:03:26,1.9950514,-1.5040723,-9.639954,-1.7629564,-0.9969317,0.49113548,9.958472232236296,2.0840110406034964,left
28/07/2020, 18:03:26,1.9950514,-1.5040723,-9.639954,-1.1447611,-0.96516675,0.53756124,9.958472232236296,1.5909107070830704,left
28/07/2020, 18:03:26,0.7209009,-2.5578809,-9.366921,-1.1447611,-0.96516675,0.53756124,9.736614897682554,1.5909107070830704,left
28/07/2020, 18:03:26,0.7209009,-2.5578809,-9.366921,-0.547335,-0.86865,0.5619958,9.736614897682554,1.1704562244908772,left
28/07/2020, 18:03:26,-0.26584718,-3.3985329,-9.127419,-0.547335,-0.86865,0.5619958,9.743227729314276,1.1704562244908772,left
28/07/2020, 18:03:26,-0.26584718,-3.3985329,-9.127419,0.18936816,-0.7293728,0.56932616,9.743227729314276,0.9444454770424119,left
28/07/2020, 18:03:26,-0.38559815,-2.8500733,-9.108259,0.18936816,-0.7293728,0.56932616,9.551543835341553,0.9444454770424119,left
28/07/2020, 18:03:26,-0.38559815,-2.8500733,-9.108259,0.89674985,-0.7110469,0.47158778,9.551543835341553,1.2377976369832964,left
28/07/2020, 18:03:26,0.23950197,-1.9136207,-9.283096,0.89674985,-0.7110469,0.47158778,9.481307008062693,1.2377976369832964,left
28/07/2020, 18:03:26,0.23950197,-1.9136207,-9.283096,1.4929541,-0.81000704,0.41660994,9.481307008062693,1.7488817259916487,left
28/07/2020, 18:03:26,0.9268726,-1.2933106,-9.936936,1.4929541,-0.81000704,0.41660994,10.0635207479482,1.7488817259916487,left
28/07/2020, 18:03:26,0.9268726,-1.2933106,-9.936936,1.9523246,-0.9199627,0.4276055,10.0635207479482,2.2001702900904454,left
28/07/2020, 18:03:26,1.695674,-0.21794678,-11.045831,1.9523246,-0.9199627,0.4276055,11.177351536066606,2.2001702900904454,left
28/07/2020, 18:03:26,1.695674,-0.21794678,-11.045831,2.2430964,-0.94561905,0.398284,11.177351536066606,2.4666387573806507,left
28/07/2020, 18:03:26,2.3543043,0.32093263,-12.145144,2.2430964,-0.94561905,0.398284,12.375390117862251,2.4666387573806507,left
28/07/2020, 18:03:26,2.3543043,0.32093263,-12.145144,2.2577572,-0.8820891,0.34819305,12.375390117862251,2.4488338156973573,left
28/07/2020, 18:03:27,-6.959927,0.8286768,7.28565,3.4599395,0.77946377,-1.9401072,10.109796383929114,4.04261808974391,left
28/07/2020, 18:03:27,-7.046148,0.6825806,7.4269557,3.4599395,0.77946377,-1.9401072,10.260301476030719,4.04261808974391,left
28/07/2020, 18:03:27,-7.046148,0.6825806,7.4269557,3.3841922,0.7134903,-2.045176,10.260301476030719,4.018030667789184,left
28/07/2020, 18:03:27,-7.568262,0.4742139,7.7646537,3.3841922,0.7134903,-2.045176,10.853262958725988,4.018030667789184,left
28/07/2020, 18:03:27,-7.568262,0.4742139,7.7646537,3.4184005,0.65362555,-2.0818279,10.853262958725988,4.055452604939151,left
28/07/2020, 18:03:27,-7.92512,0.9987232,7.903565,3.4184005,0.65362555,-2.0818279,11.237050845874025,4.055452604939151,left
28/07/2020, 18:03:27,-7.92512,0.9987232,7.903565,3.6102123,0.6475169,-2.1734576,11.237050845874025,4.263429279345646,left
28/07/2020, 18:03:27,-8.485555,1.4944923,7.92512,3.6102123,0.6475169,-2.1734576,11.706650706274377,4.263429279345646,left
28/07/2020, 18:03:27,-8.485555,1.4944923,7.92512,3.7861414,0.6511821,-2.2638657,11.706650706274377,4.459147089298985,left
28/07/2020, 18:03:27,-9.062755,1.9663111,7.709568,3.7861414,0.6511821,-2.2638657,12.059740459272424,4.459147089298985,left
28/07/2020, 18:03:27,-9.062755,1.9663111,7.709568,3.692068,0.6340779,-2.2284355,12.059740459272424,4.358823980968906,left
28/07/2020, 18:03:27,-8.978929,3.027305,7.2640944,3.692068,0.6340779,-2.2284355,11.93954772349982,4.358823980968906,left
28/07/2020, 18:03:27,-8.978929,3.027305,7.2640944,3.3231056,0.5607741,-2.1575751,11.93954772349982,4.001578272995422,left
28/07/2020, 18:03:27,-8.844808,3.9613624,6.5144534,3.3231056,0.5607741,-2.1575751,11.677376286126195,4.001578272995422,left
28/07/2020, 18:03:27,-8.844808,3.9613624,6.5144534,2.7122407,0.4031709,-2.1416926,11.677376286126195,3.479316561569082,left
28/07/2020, 18:03:27,-8.765772,4.3541455,5.836663,2.7122407,0.4031709,-2.1416926,11.395787465378367,3.479316561569082,left
28/07/2020, 18:03:27,-8.765772,4.3541455,5.836663,2.0378456,0.23212871,-2.1465797,11.395787465378367,2.9689228796015814,left
28/07/2020, 18:03:27,-8.655601,4.3493557,5.9133034,2.0378456,0.23212871,-2.1465797,11.349161759139216,2.9689228796015814,left
28/07/2020, 18:03:27,-8.655601,4.3493557,5.9133034,1.4587456,0.14905107,-2.1331406,11.349161759139216,2.5885215102760926,left
28/07/2020, 18:03:27,-8.253238,3.9685476,5.870193,1.4587456,0.14905107,-2.1331406,10.877705123820826,2.5885215102760926,left
28/07/2020, 18:03:27,-8.253238,3.9685476,5.870193,0.9859361,0.12461646,-2.1025975,10.877705123820826,2.325621509960158,left
28/07/2020, 18:03:27,-8.313113,3.5206788,6.337222,0.9859361,0.12461646,-2.1025975,11.030113967796476,2.325621509960158,left
28/07/2020, 18:03:27,-8.313113,3.5206788,6.337222,0.7489205,0.12461646,-2.1282537,11.030113967796476,2.259618326649491,left
28/07/2020, 18:03:27,-8.255632,3.0081446,7.3622904,0.7489205,0.12461646,-2.1282537,11.463320637765872,2.259618326649491,left
28/07/2020, 18:03:27,-8.255632,3.0081446,7.3622904,0.6316344,0.17837258,-2.1416926,11.463320637765872,2.240005840779782,left
28/07/2020, 18:03:27,-8.610096,2.2465284,7.417376,0.6316344,0.17837258,-2.1416926,11.584390785892303,2.240005840779782,left
28/07/2020, 18:03:27,-8.610096,2.2465284,7.417376,0.47280952,0.21502449,-2.0818279,11.584390785892303,2.1456448197699114,left
28/07/2020, 18:03:27,-9.110655,2.5099807,8.0017605,0.47280952,0.21502449,-2.0818279,12.38273819795287,2.1456448197699114,left
28/07/2020, 18:03:27,-9.110655,2.5099807,8.0017605,0.31031942,0.20647237,-2.0195198,12.38273819795287,2.0536283085116294,left
28/07/2020, 18:03:27,-9.072334,2.7207422,8.243657,0.31031942,0.20647237,-2.0195198,12.556574783833769,2.0536283085116294,left
28/07/2020, 18:03:28,-0.859812,-5.855823,4.6271777,0.50213104,-0.03420844,-0.8466589,7.51270349453333,0.9849553654334091,left
28/07/2020, 18:03:28,-0.28500733,-6.016289,4.9864306,0.50213104,-0.03420844,-0.8466589,7.819300218259208,0.9849553654334091,left
28/07/2020, 18:03:28,-0.28500733,-6.016289,4.9864306,0.5962043,0.025656331,-0.86131966,7.819300218259208,1.0478498702162418,left
28/07/2020, 18:03:28,-0.038320314,-6.023474,5.2762284,0.5962043,0.025656331,-0.86131966,8.007639883641803,1.0478498702162418,left
28/07/2020, 18:03:28,-0.038320314,-6.023474,5.2762284,0.70615995,0.10506878,-0.85765445,8.007639883641803,1.1159177757443073,left
28/07/2020, 18:03:28,-0.42152345,-6.0091043,5.5396805,0.70615995,0.10506878,-0.85765445,8.183830140054157,1.1159177757443073,left
28/07/2020, 18:03:28,-0.42152345,-6.0091043,5.5396805,0.82588947,0.17226394,-0.84055024,8.183830140054157,1.1909210676990982,left
28/07/2020, 18:03:28,-1.1088941,-5.9204884,5.9468336,0.82588947,0.17226394,-0.84055024,8.464434920878245,1.1909210676990982,left
28/07/2020, 18:03:28,-1.1088941,-5.9204884,5.9468336,0.9309583,0.1954768,-0.8344416,8.464434920878245,1.2653802864526051,left
28/07/2020, 18:03:28,-2.0046315,-5.8749833,5.999524,0.9309583,0.1954768,-0.8344416,8.63297550407143,1.2653802864526051,left
28/07/2020, 18:03:28,-2.0046315,-5.8749833,5.999524,0.94195384,0.15515971,-0.82711124,8.63297550407143,1.2631170092843111,left
28/07/2020, 18:03:28,-2.7830129,-5.8893533,6.217471,0.94195384,0.15515971,-0.82711124,9.00480925845434,1.2631170092843111,left
28/07/2020, 18:03:28,-2.7830129,-5.8893533,6.217471,0.87720215,0.06352996,-0.79534626,9.00480925845434,1.1857889133055226,left
28/07/2020, 18:03:28,-3.432063,-5.9252787,6.686895,0.87720215,0.06352996,-0.79534626,9.57092198805686,1.1857889133055226,left
28/07/2020, 18:03:28,-3.432063,-5.9252787,6.686895,0.7855724,-0.04520401,-0.764803,9.57092198805686,1.0973108175796333,left
28/07/2020, 18:03:28,-3.8631666,-5.973179,7.084468,0.7855724,-0.04520401,-0.764803,10.039552128593117,1.0973108175796333,left
28/07/2020, 18:03:28,-3.8631666,-5.973179,7.084468,0.6988296,-0.13194685,-0.75625086,10.039552128593117,1.0381175890631078,left
28/07/2020, 18:03:28,-4.272715,-6.191126,7.2497244,0.6988296,-0.13194685,-0.75625086,10.447231092194965,1.0381175890631078,left
28/07/2020, 18:03:28,-4.272715,-6.191126,7.2497244,0.5815435,-0.19181162,-0.77213335,10.447231092194965,0.9854818401224558,left
28/07/2020, 18:03:28,-4.6032276,-6.5479836,7.1251836,0.5815435,-0.19181162,-0.77213335,10.716064361218146,0.9854818401224558,left
28/07/2020, 18:03:28,-4.6032276,-6.5479836,7.1251836,0.43860108,-0.22968525,-0.796568,10.716064361218146,0.9378948545579477,left
28/07/2020, 18:03:28,-5.015171,-6.9958525,7.1706886,0.43860108,-0.22968525,-0.796568,11.203243631861396,0.9378948545579477,left
28/07/2020, 18:03:28,-5.015171,-6.9958525,7.1706886,0.3127629,-0.2724458,-0.8051201,11.203243631861396,0.905685225778086,left
28/07/2020, 18:03:28,-5.381609,-7.3958206,7.151529,0.3127629,-0.2724458,-0.8051201,11.610522913361653,0.905685225778086,left
28/07/2020, 18:03:28,-5.381609,-7.3958206,7.151529,0.22968525,-0.3176498,-0.7892376,11.610522913361653,0.8812222953289135,left
28/07/2020, 18:03:28,-5.585186,-7.5203614,7.2185893,0.22968525,-0.3176498,-0.7892376,11.826164645111977,0.8812222953289135,left
28/07/2020, 18:03:28,-5.585186,-7.5203614,7.2185893,0.23212871,-0.3579669,-0.7660247,11.826164645111977,0.8768226123998017,left
28/07/2020, 18:03:28,-5.5372853,-7.585027,7.168294,0.23212871,-0.3579669,-0.7660247,11.814338952909665,0.8768226123998017,left
28/07/2020, 18:03:28,-5.5372853,-7.585027,7.168294,0.2883283,-0.38362324,-0.74159014,11.814338952909665,0.8833209688337013,left
28/07/2020, 18:03:28,-5.4319043,-7.6185575,7.185059,0.2883283,-0.38362324,-0.74159014,11.797163896991432,0.8833209688337013,left
28/07/2020, 18:03:29,0.91010743,-5.0750465,11.098521,1.7751738,-1.091005,-0.9859361,12.23771083445603,2.30512555061219,left
28/07/2020, 18:03:29,0.4167334,-5.2115626,10.799144,1.7751738,-1.091005,-0.9859361,11.998148125620027,2.30512555061219,left
28/07/2020, 18:03:29,0.4167334,-5.2115626,10.799144,1.850921,-1.0873398,-1.0531312,11.998148125620027,2.391087995163916,left
28/07/2020, 18:03:29,0.5125342,-5.101392,10.720108,1.850921,-1.0873398,-1.0531312,11.88308065059187,2.391087995163916,left
28/07/2020, 18:03:29,0.5125342,-5.101392,10.720108,2.0512848,-1.0763441,-1.091005,11.88308065059187,2.560581539566956,left
28/07/2020, 18:03:29,0.48139894,-4.7469287,10.324929,2.0512848,-1.0763441,-1.091005,11.374059992006705,2.560581539566956,left
28/07/2020, 18:03:29,0.48139894,-4.7469287,10.324929,2.235766,-1.0421357,-1.0714573,11.374059992006705,2.6893710855283013,left
28/07/2020, 18:03:29,0.7496411,-4.0691385,10.023157,2.235766,-1.0421357,-1.0714573,10.843593906445232,2.6893710855283013,left
28/07/2020, 18:03:29,0.7496411,-4.0691385,10.023157,2.3628259,-0.9896013,-1.0470226,10.843593906445232,2.767401875497832,left
28/07/2020, 18:03:29,0.62989014,-3.2356715,9.690249,2.3628259,-0.9896013,-1.0470226,10.235588212155,2.767401875497832,left
28/07/2020, 18:03:29,0.62989014,-3.2356715,9.690249,2.334726,-0.94928426,-0.9175193,10.235588212155,2.68214991204762,left
28/07/2020, 18:03:29,0.85023195,-2.2776637,9.357342,2.334726,-0.94928426,-0.9175193,9.66801382183101,2.68214991204762,left
28/07/2020, 18:03:29,0.85023195,-2.2776637,9.357342,2.2687526,-0.9358452,-0.7977897,9.66801382183101,2.5806031991787117,left
28/07/2020, 18:03:29,1.094524,-1.0106983,10.001602,2.2687526,-0.9358452,-0.7977897,10.11195035382789,2.5806031991787117,left
28/07/2020, 18:03:29,1.094524,-1.0106983,10.001602,2.1783447,-0.9248496,-0.67683846,10.11195035382789,2.461431063916512,left
28/07/2020, 18:03:29,1.3771362,-0.059875492,9.984837,2.1783447,-0.9248496,-0.67683846,10.07953623777161,2.461431063916512,left
28/07/2020, 18:03:29,1.3771362,-0.059875492,9.984837,2.0036373,-0.87598044,-0.5400047,10.07953623777161,2.2524451725567323,left
28/07/2020, 18:03:29,1.4825171,1.0753639,10.104588,2.0036373,-0.87598044,-0.5400047,10.269223638540922,2.2524451725567323,left
28/07/2020, 18:03:29,1.4825171,1.0753639,10.104588,1.7153089,-0.88086736,-0.41416648,10.269223638540922,1.9722438544071696,left
28/07/2020, 18:03:29,1.1160791,1.8226099,10.135723,1.7153089,-0.88086736,-0.41416648,10.358591720711471,1.9722438544071696,left
28/07/2020, 18:03:29,1.1160791,1.8226099,10.135723,1.4306458,-1.0213664,-0.31154117,10.358591720711471,1.785215563908417,left
28/07/2020, 18:03:29,0.6227051,1.6836988,9.630374,1.4306458,-1.0213664,-0.31154117,9.796259781788141,1.785215563908417,left
28/07/2020, 18:03:29,0.6227051,1.6836988,9.630374,0.93218,-1.2095127,-0.3127629,9.796259781788141,1.5587498673736535,left
28/07/2020, 18:03:29,0.57719976,1.8944606,9.340576,0.93218,-1.2095127,-0.3127629,9.54821991741859,1.5587498673736535,left
28/07/2020, 18:03:29,0.57719976,1.8944606,9.340576,0.5119049,-1.3793331,-0.30054557,9.54821991741859,1.50164382271526,left
28/07/2020, 18:03:29,-0.31135255,1.5974782,9.745335,0.5119049,-1.3793331,-0.30054557,9.880304844129837,1.50164382271526,left
28/07/2020, 18:03:29,-0.31135255,1.5974782,9.745335,0.5485568,-1.4563022,-0.16493355,9.880304844129837,1.564906911493124,left
28/07/2020, 18:03:29,-0.27303225,1.1472144,11.788286,0.5485568,-1.4563022,-0.16493355,11.847123670534971,1.564906911493124,left
28/07/2020, 18:03:29,-0.27303225,1.1472144,11.788286,0.6023129,-1.3915505,-0.01588249,11.847123670534971,1.5163924353625529,left
28/07/2020, 18:03:29,0.083825685,0.38320315,9.711804,0.6023129,-1.3915505,-0.01588249,9.719723036562533,1.5163924353625529,left
28/07/2020, 18:03:30,3.6068995,-3.0368848,-19.502645,1.470963,-1.5955794,0.99570996,20.064535240221453,2.387685918032113,left
28/07/2020, 18:03:30,4.6942387,-3.8056862,-17.536333,1.470963,-1.5955794,0.99570996,18.548371960412698,2.387685918032113,left
28/07/2020, 18:03:30,4.6942387,-3.8056862,-17.536333,1.5589275,-0.7733551,0.886976,18.548371960412698,1.9532177669367825,left
28/07/2020, 18:03:30,11.084151,-3.04407,-16.769928,1.5589275,-0.7733551,0.886976,20.331140054962606,1.9532177669367825,left
28/07/2020, 18:03:30,11.084151,-3.04407,-16.769928,1.439198,0.20647237,0.6914992,20.331140054962606,1.6099977881923198,left
28/07/2020, 18:03:30,10.9644,-4.799619,-37.52756,1.439198,0.20647237,0.6914992,39.390002118497016,1.6099977881923198,left
28/07/2020, 18:03:30,10.9644,-4.799619,-37.52756,0.96516675,0.23090698,-0.21380275,39.390002118497016,1.0151731385399794,left
28/07/2020, 18:03:30,-1.83219,-3.295547,-13.251643,0.96516675,0.23090698,-0.21380275,13.777648471661418,1.0151731385399794,left
28/07/2020, 18:03:30,-1.83219,-3.295547,-13.251643,0.9517277,-0.48869202,-0.13561203,13.777648471661418,1.0784229690537541,left
28/07/2020, 18:03:30,-12.082874,-3.3578174,-7.726333,0.9517277,-0.48869202,-0.13561203,14.729800164387902,1.0784229690537541,left
28/07/2020, 18:03:30,-12.082874,-3.3578174,-7.726333,1.1691957,-0.74036837,1.5051714,14.729800164387902,2.0446771844332026,left
28/07/2020, 18:03:30,-5.977969,-4.8451247,-21.514462,1.1691957,-0.74036837,1.5051714,22.849144477220275,2.0446771844332026,left
28/07/2020, 18:03:30,-5.977969,-4.8451247,-21.514462,1.3316858,-1.2424995,2.221105,22.849144477220275,2.8723683285555315,left
28/07/2020, 18:03:30,-0.028740235,-4.1936793,-14.020445,1.3316858,-1.2424995,2.221105,14.634228599398556,2.8723683285555315,left
28/07/2020, 18:03:30,-0.028740235,-4.1936793,-14.020445,1.9071206,-1.7385218,1.2302822,14.634228599398556,2.8588741292961797,left
28/07/2020, 18:03:30,6.8904715,-2.2824538,-15.28262,1.9071206,-1.7385218,1.2302822,16.918826181612076,2.8588741292961797,left
28/07/2020, 18:03:30,6.8904715,-2.2824538,-15.28262,1.7959431,-1.7214175,0.1954768,16.918826181612076,2.495375986435265,left
28/07/2020, 18:03:30,8.349038,-2.2920337,-15.24909,1.7959431,-1.7214175,0.1954768,17.535524164355177,2.495375986435265,left
28/07/2020, 18:03:30,8.349038,-2.2920337,-15.24909,1.1362089,-1.4379762,-0.13072512,17.535524164355177,1.837344652425199,left
28/07/2020, 18:03:30,8.308323,-3.3673975,-15.30657,1.1362089,-1.4379762,-0.13072512,17.73862121324629,1.837344652425199,left
28/07/2020, 18:03:30,8.308323,-3.3673975,-15.30657,0.4960224,-1.0042621,0.26633716,17.73862121324629,1.1513105793865472,left
28/07/2020, 18:03:30,7.582632,-3.408113,-15.407162,0.4960224,-1.0042621,0.26633716,17.50691792720136,1.1513105793865472,left
28/07/2020, 18:03:30,7.582632,-3.408113,-15.407162,0.15027279,-0.61697364,0.8515458,17.50691792720136,1.0622469810567052,left
28/07/2020, 18:03:30,5.9156985,-2.9985645,-15.402371,0.15027279,-0.61697364,0.8515458,16.769613083616527,1.0622469810567052,left
28/07/2020, 18:03:30,5.9156985,-2.9985645,-15.402371,-0.10506878,-0.32742363,0.9932665,16.769613083616527,1.0511061169081444,left
28/07/2020, 18:03:30,4.8571,-3.2859669,-15.052698,-0.10506878,-0.32742363,0.9932665,16.154650103071333,1.0511061169081444,left
28/07/2020, 18:03:30,4.8571,-3.2859669,-15.052698,-0.5412264,-0.07941245,0.74159014,16.154650103071333,0.9215141229331817,left
28/07/2020, 18:03:30,3.7601807,-3.6739602,-14.427598,-0.5412264,-0.07941245,0.74159014,15.355537328234131,0.9215141229331817,left
28/07/2020, 18:03:30,3.7601807,-3.6739602,-14.427598,-0.97738403,0.08429937,0.5424481,15.355537328234131,1.120997712978836,left
28/07/2020, 18:03:30,2.8213332,-4.0763235,-13.220509,-0.97738403,0.08429937,0.5424481,14.119425668236127,1.120997712978836,left
28/07/2020, 18:03:31,-8.828042,2.2704787,4.5457473,2.98713,0.62430406,-1.846034,10.185932361189305,3.566586949330969,left
28/07/2020, 18:03:31,-9.077125,1.9136207,3.8224514,2.98713,0.62430406,-1.846034,10.033308003574358,3.566586949330969,left
28/07/2020, 18:03:31,-9.077125,1.9136207,3.8224514,2.50699,0.5619958,-1.9853113,10.033308003574358,3.2468906296474582,left
28/07/2020, 18:03:31,-9.5633135,1.6286134,3.8056862,2.50699,0.5619958,-1.9853113,10.420777033037913,3.2468906296474582,left
28/07/2020, 18:03:31,-9.5633135,1.6286134,3.8056862,2.212553,0.5607741,-2.1025975,10.420777033037913,3.103348933823726,left
28/07/2020, 18:03:31,-9.4435625,1.8441651,3.9637575,2.212553,0.5607741,-2.1025975,10.406401459679927,3.103348933823726,left
28/07/2020, 18:03:31,-9.4435625,1.8441651,3.9637575,2.0378456,0.6059781,-2.1649055,10.406401459679927,3.0342775403954976,left
28/07/2020, 18:03:31,-10.442286,2.2345533,4.1625443,2.0378456,0.6059781,-2.1649055,11.461297069043962,3.0342775403954976,left
28/07/2020, 18:03:31,-10.442286,2.2345533,4.1625443,1.9376638,0.6133085,-2.053728,11.461297069043962,2.8893749157274056,left
28/07/2020, 18:03:31,-10.657837,3.3314724,4.3182206,1.9376638,0.6133085,-2.053728,11.972269012216675,2.8893749157274056,left
28/07/2020, 18:03:31,-10.657837,3.3314724,4.3182206,1.7617347,0.5424481,-1.9523246,11.972269012216675,2.6850569154402937,left
28/07/2020, 18:03:31,-10.111773,4.605623,5.223538,1.7617347,0.5424481,-1.9523246,12.277827713040972,2.6850569154402937,left
28/07/2020, 18:03:31,-10.111773,4.605623,5.223538,1.7189741,0.4605922,-1.9840896,12.277827713040972,2.665263360195759,left
28/07/2020, 18:03:31,-9.982442,5.7863674,5.992339,1.7189741,0.4605922,-1.9840896,13.001512316143776,2.665263360195759,left
28/07/2020, 18:03:31,-9.982442,5.7863674,5.992339,1.5882491,0.37751457,-2.108706,13.001512316143776,2.6667758433078697,left
28/07/2020, 18:03:31,-10.224339,6.3132715,5.6833816,1.5882491,0.37751457,-2.108706,13.292679250302077,2.6667758433078697,left
28/07/2020, 18:03:31,-10.224339,6.3132715,5.6833816,1.3426813,0.30176732,-2.2088878,13.292679250302077,2.6025068567661966,left
28/07/2020, 18:03:31,-10.4566555,5.989944,5.733677,1.3426813,0.30176732,-2.2088878,13.34526598103636,2.6025068567661966,left
28/07/2020, 18:03:31,-10.4566555,5.989944,5.733677,0.94684076,0.21013756,-2.2052226,13.34526598103636,2.40908114643324,left
28/07/2020, 18:03:31,-10.533297,5.1971927,4.0356083,0.94684076,0.21013756,-2.2052226,12.419632960381051,2.40908114643324,left
28/07/2020, 18:03:31,-10.533297,5.1971927,4.0356083,0.51801354,-0.018325951,-2.2259922,12.419632960381051,2.285544826001883,left
28/07/2020, 18:03:31,-10.253079,3.8152664,4.394861,0.51801354,-0.018325951,-2.2259922,11.789686175292749,2.285544826001883,left
28/07/2020, 18:03:31,-10.253079,3.8152664,4.394861,0.17715086,-0.25289813,-2.3225088,11.789686175292749,2.342944103366259,left
28/07/2020, 18:03:31,-9.565708,2.0333717,3.9948928,0.17715086,-0.25289813,-2.3225088,10.563926438367782,2.342944103366259,left
28/07/2020, 18:03:31,-9.565708,2.0333717,3.9948928,-0.22113313,-0.35185826,-2.3591607,10.563926438367782,2.3954839013885554,left
28/07/2020, 18:03:31,-9.287886,1.8585353,5.2019825,-0.22113313,-0.35185826,-2.3591607,10.806460821067489,2.3954839013885554,left
28/07/2020, 18:03:31,-9.287886,1.8585353,5.2019825,-0.18570296,-0.29321522,-2.2797482,10.806460821067489,2.3060166120746057,left
28/07/2020, 18:03:31,-8.830438,2.6009912,6.5384035,-0.18570296,-0.29321522,-2.2797482,11.29125791141422,2.3060166120746057,left
28/07/2020, 18:03:31,-8.830438,2.6009912,6.5384035,-0.02687806,-0.1588249,-2.1832316,11.29125791141422,2.189166043479571,left
28/07/2020, 18:03:31,-8.231683,3.6284547,6.334827,-0.02687806,-0.1588249,-2.1832316,11.002559574457976,2.189166043479571,left
28/07/2020, 18:03:32,-2.5578809,-5.870193,7.2353544,2.1465797,-0.22235486,-0.91018885,9.661898060612936,2.3421549956104855,left
28/07/2020, 18:03:32,-2.315984,-5.376819,7.31918,2.1465797,-0.22235486,-0.91018885,9.372532314126392,2.3421549956104855,left
28/07/2020, 18:03:32,-2.315984,-5.376819,7.31918,2.199114,-0.2553416,-0.8845325,9.372532314126392,2.38405114170251,left
28/07/2020, 18:03:32,-2.083667,-4.981641,7.6185575,2.199114,-0.2553416,-0.8845325,9.338138530621222,2.38405114170251,left
28/07/2020, 18:03:32,-2.083667,-4.981641,7.6185575,2.294409,-0.25167638,-0.8747587,9.338138530621222,2.468371253859516,left
28/07/2020, 18:03:32,-1.9591261,-4.8044095,7.7622585,2.294409,-0.25167638,-0.8747587,9.336658036830631,2.468371253859516,left
28/07/2020, 18:03:32,-1.9591261,-4.8044095,7.7622585,2.3371696,-0.199142,-0.82466775,9.336658036830631,2.4863821899567116,left
28/07/2020, 18:03:32,-1.6669337,-4.591253,7.8508744,2.3371696,-0.199142,-0.82466775,9.246323558159402,2.4863821899567116,left
28/07/2020, 18:03:32,-1.6669337,-4.591253,7.8508744,2.3933692,-0.13316858,-0.7672465,9.246323558159402,2.5168665351528885,left
28/07/2020, 18:03:32,-1.7172291,-4.392466,7.6233473,2.3933692,-0.13316858,-0.7672465,8.964265604429622,2.5168665351528885,left
28/07/2020, 18:03:32,-1.7172291,-4.392466,7.6233473,2.357939,-0.14294241,-0.6841688,8.964265604429622,2.4593486643230533,left
28/07/2020, 18:03:32,-1.6884888,-4.2008643,7.561077,2.357939,-0.14294241,-0.6841688,8.812953122695195,2.4593486643230533,left
28/07/2020, 18:03:32,-1.6884888,-4.2008643,7.561077,2.2259922,-0.16982047,-0.5937608,8.812953122695195,2.3100718935881814,left
28/07/2020, 18:03:32,-1.5687379,-4.071533,7.2497244,2.2259922,-0.16982047,-0.5937608,8.461490696998167,2.3100718935881814,left
28/07/2020, 18:03:32,-1.5687379,-4.071533,7.2497244,2.0109677,-0.17348567,-0.5106832,8.461490696998167,2.0820388571627997,left
28/07/2020, 18:03:32,-1.4801221,-3.6380348,7.7215433,2.0109677,-0.17348567,-0.5106832,8.663041606461693,2.0820388571627997,left
28/07/2020, 18:03:32,-1.4801221,-3.6380348,7.7215433,1.8387036,-0.1710422,-0.49968758,8.663041606461693,1.9130536226174693,left
28/07/2020, 18:03:32,-1.343606,-3.3697927,7.656878,1.8387036,-0.1710422,-0.49968758,8.472813023620189,1.9130536226174693,left
28/07/2020, 18:03:32,-1.343606,-3.3697927,7.656878,1.6468921,-0.16859874,-0.50213104,8.472813023620189,1.7299753219478031,left
28/07/2020, 18:03:32,-1.5232325,-3.6045046,7.8700347,1.6468921,-0.16859874,-0.50213104,8.78920568241546,1.7299753219478031,left
28/07/2020, 18:03:32,-1.5232325,-3.6045046,7.8700347,1.3646724,-0.19669853,-0.4679226,8.78920568241546,1.4560125997449602,left
28/07/2020, 18:03:32,-2.0573218,-3.894302,7.8724294,1.3646724,-0.19669853,-0.4679226,9.020715290655255,1.4560125997449602,left
28/07/2020, 18:03:32,-2.0573218,-3.894302,7.8724294,1.0177011,-0.26145023,-0.4190534,9.020715290655255,1.1312283627363144,left
28/07/2020, 18:03:32,-2.7207422,-4.0571632,8.188572,1.0177011,-0.26145023,-0.4190534,9.534973626294132,1.1312283627363144,left
28/07/2020, 18:03:32,-2.7207422,-4.0571632,8.188572,0.74159014,-0.31642807,-0.3750711,9.534973626294132,0.8892474323293085,left
28/07/2020, 18:03:32,-3.159031,-4.1314087,8.243657,0.74159014,-0.31642807,-0.3750711,9.747096833170628,0.8892474323293085,left
28/07/2020, 18:03:32,-3.159031,-4.1314087,8.243657,0.44470972,-0.3506365,-0.30421078,9.747096833170628,0.642850602378467,left
28/07/2020, 18:03:32,-3.7170706,-4.387676,8.308323,0.44470972,-0.3506365,-0.30421078,10.104283339542945,0.642850602378467,left
28/07/2020, 18:03:32,-3.7170706,-4.387676,8.308323,0.23457217,-0.4153882,-0.21991141,10.104283339542945,0.5252927629269594,left
28/07/2020, 18:03:32,-3.9014869,-4.543352,8.509504,0.23457217,-0.4153882,-0.21991141,10.405542374993221,0.5252927629269594,left
28/07/2020, 18:03:33,0.36164796,0.39278322,11.5823145,-0.7208207,-1.4966192,0.43371415,11.594614132680883,1.7168458247422511,left
28/07/2020, 18:03:33,0.58198977,-0.1820215,11.388318,-0.7208207,-1.4966192,0.43371415,11.404632049746848,1.7168458247422511,left
28/07/2020, 18:03:33,0.58198977,-0.1820215,11.388318,-0.6340779,-1.5711448,0.4923572,11.404632049746848,1.764360065756503,left
28/07/2020, 18:03:33,0.47900394,-0.62749517,11.64219,-0.6340779,-1.5711448,0.4923572,11.668923792650466,1.764360065756503,left
28/07/2020, 18:03:33,0.47900394,-0.62749517,11.64219,-0.4263838,-1.6273444,0.5167918,11.668923792650466,1.7598655128176264,left
28/07/2020, 18:03:33,0.09340577,-0.79754156,11.543995,-0.4263838,-1.6273444,0.5167918,11.571889020768849,1.7598655128176264,left
28/07/2020, 18:03:33,0.09340577,-0.79754156,11.543995,-0.1710422,-1.6139053,0.5595524,11.571889020768849,1.7166958506537442,left
28/07/2020, 18:03:33,-0.2945874,-0.5843848,11.649376,-0.1710422,-1.6139053,0.5595524,11.66774385015788,1.7166958506537442,left
28/07/2020, 18:03:33,-0.2945874,-0.5843848,11.649376,0.23335044,-1.5809187,0.49113548,11.66774385015788,1.6718164750435676,left
28/07/2020, 18:03:33,-0.5748047,-0.77359134,10.832674,0.23335044,-1.5809187,0.49113548,10.875461856617676,1.6718164750435676,left
28/07/2020, 18:03:33,-0.5748047,-0.77359134,10.832674,0.60475636,-1.6395617,0.33964095,10.875461856617676,1.7802383647562827,left
28/07/2020, 18:03:33,-0.2562671,-0.6514453,10.310559,0.60475636,-1.6395617,0.33964095,10.33429660697726,1.7802383647562827,left
28/07/2020, 18:03:33,-0.2562671,-0.6514453,10.310559,0.79412454,-1.6762136,0.2968804,10.33429660697726,1.8784205775643816,left
28/07/2020, 18:03:33,-0.24668702,-0.18441652,10.636282,0.79412454,-1.6762136,0.2968804,10.64074048293578,1.8784205775643816,left
28/07/2020, 18:03:33,-0.24668702,-0.18441652,10.636282,0.8820891,-1.7006482,0.37262765,10.64074048293578,1.9517009929802094,left
28/07/2020, 18:03:33,0.059875492,0.5891748,11.249407,0.8820891,-1.7006482,0.37262765,11.264984052702507,1.9517009929802094,left
28/07/2020, 18:03:33,0.059875492,0.5891748,11.249407,0.94195384,-1.7861693,0.35552344,11.264984052702507,2.0503840327120915,left
28/07/2020, 18:03:33,0.28979737,1.0777588,10.744058,0.94195384,-1.7861693,0.35552344,10.801866571185712,2.0503840327120915,left
28/07/2020, 18:03:33,0.28979737,1.0777588,10.744058,0.8747587,-1.9217813,0.31154117,10.801866571185712,2.134362689477242,left
28/07/2020, 18:03:33,0.42870852,1.6621436,11.184742,0.8747587,-1.9217813,0.31154117,11.315695530001058,2.134362689477242,left
28/07/2020, 18:03:33,0.42870852,1.6621436,11.184742,0.72692937,-2.0207415,0.26878062,11.315695530001058,2.16427017357208,left
28/07/2020, 18:03:33,0.05269043,2.1100123,11.797867,0.72692937,-2.0207415,0.26878062,11.985182088331861,2.16427017357208,left
28/07/2020, 18:03:33,0.05269043,2.1100123,11.797867,0.5962043,-2.0292935,0.22724178,11.985182088331861,2.1272354436998473,left
28/07/2020, 18:03:33,-0.38320315,2.2896388,11.771522,0.5962043,-2.0292935,0.22724178,11.99825030273095,2.1272354436998473,left
28/07/2020, 18:03:33,-0.38320315,2.2896388,11.771522,0.398284,-2.036624,0.20158546,11.99825030273095,2.0849709745715637,left
28/07/2020, 18:03:33,-0.70174074,2.5530908,11.850557,0.398284,-2.036624,0.20158546,12.142751818413968,2.0849709745715637,left
28/07/2020, 18:03:33,-0.70174074,2.5530908,11.850557,0.13316858,-2.0781627,0.21991141,12.142751818413968,2.0940045326160592,left
28/07/2020, 18:03:33,-0.51492923,2.7159522,11.59429,0.13316858,-2.0781627,0.21991141,11.919274463500011,2.0940045326160592,left
28/07/2020, 18:03:33,-0.51492923,2.7159522,11.59429,-0.23823735,-2.135584,0.24923292,11.919274463500011,2.1632368338576553,left
28/07/2020, 18:03:33,0.0047900393,2.675237,11.182346,-0.23823735,-2.135584,0.24923292,11.497903521455987,2.1632368338576553,left
28/07/2020, 18:03:34,4.1218286,-0.016765138,-16.113691,-4.5594964,-1.3732245,-0.17959431,16.632522358094572,4.765186993271543,left
28/07/2020, 18:03:34,4.361331,0.038320314,-14.731766,-4.5594964,-1.3732245,-0.17959431,15.36384061498536,4.765186993271543,left
28/07/2020, 18:03:34,4.361331,0.038320314,-14.731766,-4.1929774,-1.0458009,0.23212871,15.36384061498536,4.327660225392558,left
28/07/2020, 18:03:34,4.8211746,-1.1759547,-14.398858,-4.1929774,-1.0458009,0.23212871,15.230026523872576,4.327660225392558,left
28/07/2020, 18:03:34,4.8211746,-1.1759547,-14.398858,-3.7030637,-0.8820891,0.28344136,15.230026523872576,3.8172111693623765,left
28/07/2020, 18:03:34,4.4331813,-2.1363575,-13.778548,-3.7030637,-0.8820891,0.28344136,14.630977803866836,3.8172111693623765,left
28/07/2020, 18:03:34,4.4331813,-2.1363575,-13.778548,-3.221702,-0.8393285,0.2724458,14.630977803866836,3.340368767592621,left
28/07/2020, 18:03:34,3.9326222,-3.5853443,-12.779825,-3.221702,-0.8393285,0.2724458,13.84355964301934,3.340368767592621,left
28/07/2020, 18:03:34,3.9326222,-3.5853443,-12.779825,-2.7000234,-0.7635813,0.44104454,13.84355964301934,2.840370236375553,left
28/07/2020, 18:03:34,3.4512234,-4.038003,-12.034974,-2.7000234,-0.7635813,0.44104454,13.15511354135386,2.840370236375553,left
28/07/2020, 18:03:34,3.4512234,-4.038003,-12.034974,-2.1685708,-0.6585125,0.597426,13.15511354135386,2.3437695337149456,left
28/07/2020, 18:03:34,3.2428565,-4.061953,-11.987073,-2.1685708,-0.6585125,0.597426,13.065431443355052,2.3437695337149456,left
28/07/2020, 18:03:34,3.2428565,-4.061953,-11.987073,-1.5149453,-0.5668827,0.565661,13.065431443355052,1.7135890924484534,left
28/07/2020, 18:03:34,3.1135256,-3.788921,-12.001443,-1.5149453,-0.5668827,0.565661,12.964744385573304,1.7135890924484534,left
28/07/2020, 18:03:34,3.1135256,-3.788921,-12.001443,-0.7892376,-0.48258337,0.34452787,12.964744385573304,0.9871586420218503,left
28/07/2020, 18:03:34,3.2308815,-3.4368532,-12.19544,-0.7892376,-0.48258337,0.34452787,13.07590603361125,0.9871586420218503,left
28/07/2020, 18:03:34,3.2308815,-3.4368532,-12.19544,-0.10018186,-0.4153882,0.14538588,13.07590603361125,0.45135442016962024,left
28/07/2020, 18:03:34,3.1087356,-2.9219239,-12.3415365,-0.10018186,-0.4153882,0.14538588,13.058154526893574,0.45135442016962024,left
28/07/2020, 18:03:34,3.1087356,-2.9219239,-12.3415365,0.48624855,-0.32009327,0.16859874,13.058154526893574,0.6060716911385483,left
28/07/2020, 18:03:34,3.1446607,-2.3016138,-11.987073,0.48624855,-0.32009327,0.16859874,12.604611651652073,0.6060716911385483,left
28/07/2020, 18:03:34,3.1446607,-2.3016138,-11.987073,0.963945,-0.20036373,0.36896247,12.604611651652073,1.0514127793164774,left
28/07/2020, 18:03:34,3.0799952,-1.7507594,-11.213482,0.963945,-0.20036373,0.36896247,11.759834390638483,1.0514127793164774,left
28/07/2020, 18:03:34,3.0799952,-1.7507594,-11.213482,1.3158033,-0.04520401,0.5595524,11.759834390638483,1.4305525349990393,left
28/07/2020, 18:03:34,2.9578493,-1.590293,-10.255474,1.3158033,-0.04520401,0.5595524,10.791323045677162,1.4305525349990393,left
28/07/2020, 18:03:34,2.9578493,-1.590293,-10.255474,1.502728,0.0036651902,0.61941713,10.791323045677162,1.6253868505006333,left
28/07/2020, 18:03:34,2.5985963,-1.5926881,-8.830438,1.502728,0.0036651902,0.61941713,9.341626598844318,1.6253868505006333,left
28/07/2020, 18:03:34,2.5985963,-1.5926881,-8.830438,1.6371182,-0.28710654,0.5571089,9.341626598844318,1.7529850364379211,left
28/07/2020, 18:03:34,1.0657837,-2.1698878,-6.9551373,1.6371182,-0.28710654,0.5571089,7.3633037535236445,1.7529850364379211,left
28/07/2020, 18:03:34,1.0657837,-2.1698878,-6.9551373,1.7360784,-0.49480066,0.65240383,7.3633037535236445,1.9194860240122786,left
28/07/2020, 18:03:34,-0.9148975,-2.5770411,-8.940608,1.7360784,-0.49480066,0.65240383,9.349473267090644,1.9194860240122786,left
28/07/2020, 18:03:35,-12.736714,3.4248781,4.5744877,0.4850268,-0.52290046,-2.851518,13.959929100740537,2.939358828067052,left
28/07/2020, 18:03:35,-13.105548,2.5938063,4.351751,0.4850268,-0.52290046,-2.851518,14.050656650327829,2.939358828067052,left
28/07/2020, 18:03:35,-13.105548,2.5938063,4.351751,0.27122405,-0.5290091,-2.828305,14.050656650327829,2.890107666718253,left
28/07/2020, 18:03:35,-12.909156,2.3519094,4.9337406,0.27122405,-0.5290091,-2.828305,14.018544108885527,2.890107666718253,left
28/07/2020, 18:03:35,-12.909156,2.3519094,4.9337406,0.22846352,-0.4679226,-2.828305,14.018544108885527,2.875840110807902,left
28/07/2020, 18:03:35,-12.300821,2.555486,4.8283596,0.22846352,-0.4679226,-2.828305,13.459337641077688,2.875840110807902,left
28/07/2020, 18:03:35,-12.300821,2.555486,4.8283596,0.10629051,-0.41294473,-2.8356354,13.459337641077688,2.8675162217903822,left
28/07/2020, 18:03:35,-12.039763,3.173401,4.5768824,0.10629051,-0.41294473,-2.8356354,13.26552791099245,2.8675162217903822,left
28/07/2020, 18:03:35,-12.039763,3.173401,4.5768824,0.11850781,-0.2480112,-2.7989836,13.26552791099245,2.8124478135928346,left
28/07/2020, 18:03:35,-11.541599,3.9613624,3.9541774,0.11850781,-0.2480112,-2.7989836,12.827175227071406,2.8124478135928346,left
28/07/2020, 18:03:35,-11.541599,3.9613624,3.9541774,0.087964565,-0.067195155,-2.7452273,12.827175227071406,2.7474581133495,left
28/07/2020, 18:03:35,-11.093731,3.7985013,2.2465284,0.087964565,-0.067195155,-2.7452273,11.939278346441684,2.7474581133495,left
28/07/2020, 18:03:35,-11.093731,3.7985013,2.2465284,-0.321315,-0.029321522,-2.819753,11.939278346441684,2.8381525099957545,left
28/07/2020, 18:03:35,-11.081756,3.4560134,2.2585034,-0.321315,-0.029321522,-2.819753,11.825826597035766,2.8381525099957545,left
28/07/2020, 18:03:35,-11.081756,3.4560134,2.2585034,-0.58520865,-0.010995571,-2.9248216,11.825826597035766,2.9828126915068096,left
28/07/2020, 18:03:35,-10.97877,3.3434474,3.0129347,-0.58520865,-0.010995571,-2.9248216,11.865488299232412,2.9828126915068096,left
28/07/2020, 18:03:35,-10.97877,3.3434474,3.0129347,-0.6841688,-0.0036651902,-2.8845046,11.865488299232412,2.964534860521073,left
28/07/2020, 18:03:35,-10.8925495,2.3902297,4.0763235,-0.6841688,-0.0036651902,-2.8845046,11.873383945271035,2.964534860521073,left
28/07/2020, 18:03:35,-10.8925495,2.3902297,4.0763235,-0.5253439,0.047647472,-2.7659967,11.873383945271035,2.815846978077208,left
28/07/2020, 18:03:35,-10.698553,1.2454102,4.8427296,-0.5253439,0.047647472,-2.7659967,11.809407875463942,2.815846978077208,left
28/07/2020, 18:03:35,-10.698553,1.2454102,4.8427296,-0.23701562,0.12095127,-2.6535976,11.809407875463942,2.6669056604241526,left
28/07/2020, 18:03:35,-10.540482,0.23231691,5.012776,-0.23701562,0.12095127,-2.6535976,11.67405863540793,2.6669056604241526,left
28/07/2020, 18:03:35,-10.540482,0.23231691,5.012776,0.010995571,0.16493355,-2.5961764,11.67405863540793,2.6014334133744703,left
28/07/2020, 18:03:35,-10.650652,-0.24189699,5.0822315,0.010995571,0.16493355,-2.5961764,11.803557851896672,2.6014334133744703,left
28/07/2020, 18:03:35,-10.650652,-0.24189699,5.0822315,0.16004664,0.27122405,-2.5595243,11.803557851896672,2.578825710057065,left
28/07/2020, 18:03:35,-10.609937,-0.0023950196,4.7397437,0.16004664,0.27122405,-2.5595243,11.620496256495038,2.578825710057065,left
28/07/2020, 18:03:35,-10.609937,-0.0023950196,4.7397437,0.12583819,0.38117978,-2.493551,11.620496256495038,2.5256543594308773,left
28/07/2020, 18:03:35,-10.93087,0.65384036,4.2224197,0.12583819,0.38117978,-2.493551,11.736279472437593,2.5256543594308773,left
28/07/2020, 18:03:35,-10.93087,0.65384036,4.2224197,0.036651902,0.42027512,-2.412917,11.736279472437593,2.4495188303395943,left
28/07/2020, 18:03:35,-11.127261,1.1591895,4.3230104,0.036651902,0.42027512,-2.412917,11.993668349500844,2.4495188303395943,left
28/07/2020, 18:03:36,1.8441651,-8.976534,1.3962965,-0.09040802,-0.19792026,-0.25900677,9.269776127853513,0.3382758439097601,left
28/07/2020, 18:03:36,1.6429834,-9.14179,1.4920973,-0.09040802,-0.19792026,-0.25900677,9.407341831616446,0.3382758439097601,left
28/07/2020, 18:03:36,1.6429834,-9.14179,1.4920973,0.05253439,-0.073303804,-0.33719748,9.407341831616446,0.3490493547795658,left
28/07/2020, 18:03:36,0.82388675,-9.211246,1.7555494,0.05253439,-0.073303804,-0.33719748,9.413170960084392,0.3490493547795658,left
28/07/2020, 18:03:36,0.82388675,-9.211246,1.7555494,-0.0244346,-0.061086502,-0.31642807,9.413170960084392,0.3231954995130239,left
28/07/2020, 18:03:36,-0.9580079,-9.342972,0.80712163,-0.0244346,-0.061086502,-0.31642807,9.42657660576241,0.3231954995130239,left
28/07/2020, 18:03:36,-0.9580079,-9.342972,0.80712163,-0.199142,-0.10751224,-0.28955,9.42657660576241,0.36749914617109325,left
28/07/2020, 18:03:36,-0.9627979,-8.528665,2.2848487,-0.199142,-0.10751224,-0.28955,8.881758438780501,0.36749914617109325,left
28/07/2020, 18:03:36,-0.9627979,-8.528665,2.2848487,-0.2968804,-0.06841688,-0.33841923,8.881758438780501,0.4553530631976757,left
28/07/2020, 18:03:36,-1.3555812,-8.677156,2.323169,-0.2968804,-0.06841688,-0.33841923,9.084478988504305,0.4553530631976757,left
28/07/2020, 18:03:36,-1.3555812,-8.677156,2.323169,-0.33475402,-0.06597342,-0.42516205,9.084478988504305,0.5451380676697138,left
28/07/2020, 18:03:36,-1.9639161,-8.835227,2.5914114,-0.33475402,-0.06597342,-0.42516205,9.414542764499807,0.5451380676697138,left
28/07/2020, 18:03:36,-1.9639161,-8.835227,2.5914114,-0.37995803,-0.11117743,-0.4850268,9.414542764499807,0.6260826872104778,left
28/07/2020, 18:03:36,-2.6297317,-8.952583,2.9722195,-0.37995803,-0.11117743,-0.4850268,9.792769021830551,0.6260826872104778,left
28/07/2020, 18:03:36,-2.6297317,-8.952583,2.9722195,-0.40072745,-0.101403594,-0.4520401,9.792769021830551,0.61254015070642,left
28/07/2020, 18:03:36,-3.1015503,-9.081915,2.9602442,-0.40072745,-0.101403594,-0.4520401,10.043099043416925,0.61254015070642,left
28/07/2020, 18:03:36,-3.1015503,-9.081915,2.9602442,-0.35552344,-0.10506878,-0.32009327,10.043099043416925,0.48979186110924366,left
28/07/2020, 18:03:36,-3.159031,-9.323812,2.1004322,-0.35552344,-0.10506878,-0.32009327,10.066019721455465,0.48979186110924366,left
28/07/2020, 18:03:36,-3.159031,-9.323812,2.1004322,-0.31154117,-0.14538588,-0.18814643,10.066019721455465,0.39191074449947544,left
28/07/2020, 18:03:36,-3.0344899,-9.560919,1.8130299,-0.31154117,-0.14538588,-0.18814643,10.193447630187679,0.39191074449947544,left
28/07/2020, 18:03:36,-3.0344899,-9.560919,1.8130299,-0.3139846,-0.17348567,-0.16737701,10.193447630187679,0.395851829204206,left
28/07/2020, 18:03:36,-2.699187,-9.934542,1.8465601,-0.3139846,-0.17348567,-0.16737701,10.458992006486937,0.395851829204206,left
28/07/2020, 18:03:36,-2.699187,-9.934542,1.8465601,-0.21991141,-0.19181162,-0.18814643,10.458992006486937,0.3472057098969451,left
28/07/2020, 18:03:36,-2.42376,-10.224339,2.3423293,-0.21991141,-0.19181162,-0.18814643,10.7656034210682,0.3472057098969451,left
28/07/2020, 18:03:36,-2.42376,-10.224339,2.3423293,0.095294945,-0.20647237,-0.17592913,10.7656034210682,0.2875117795156059,left
28/07/2020, 18:03:36,-2.0333717,-10.459051,2.555486,0.095294945,-0.20647237,-0.17592913,10.957046112640848,0.2875117795156059,left
28/07/2020, 18:03:36,-2.0333717,-10.459051,2.555486,0.6499604,-0.24434601,-0.067195155,10.957046112640848,0.6976164276623945,left
28/07/2020, 18:03:36,-1.2382251,-10.636282,2.4333398,0.6499604,-0.24434601,-0.067195155,10.981112795980293,0.6976164276623945,left
28/07/2020, 18:03:36,-1.2382251,-10.636282,2.4333398,1.1129961,-0.17348567,-0.0244346,10.981112795980293,1.1267007800874849,left
28/07/2020, 18:03:36,-0.38559815,-9.798025,2.5459058,1.1129961,-0.17348567,-0.0244346,10.130726474202,1.1267007800874849,left
28/07/2020, 18:03:37,2.5147705,-5.0894165,7.4197707,1.2424995,-1.2754861,-2.4947727,9.34233528403154,3.065054721195461,left
28/07/2020, 18:03:37,1.8920655,-4.9457154,7.2425394,1.2424995,-1.2754861,-2.4947727,8.971866588665154,3.065054721195461,left
28/07/2020, 18:03:37,1.8920655,-4.9457154,7.2425394,1.3585638,-1.3341292,-2.452012,8.971866588665154,3.1045063149273138,left
28/07/2020, 18:03:37,1.5519727,-4.519402,7.1467385,1.3585638,-1.3341292,-2.452012,8.597062620140553,3.1045063149273138,left
28/07/2020, 18:03:37,1.5519727,-4.519402,7.1467385,1.3817767,-1.4062113,-2.3994777,8.597062620140553,3.1055161006907217,left
28/07/2020, 18:03:37,1.4034815,-3.9853127,7.082073,1.3817767,-1.4062113,-2.3994777,8.24671077271493,3.1055161006907217,left
28/07/2020, 18:03:37,1.4034815,-3.9853127,7.082073,1.3133597,-1.497841,-2.3530521,8.24671077271493,3.083065979336741,left
28/07/2020, 18:03:37,1.4513819,-3.2692018,6.5192432,1.3133597,-1.497841,-2.3530521,7.436042094292356,3.083065979336741,left
28/07/2020, 18:03:37,1.4513819,-3.2692018,6.5192432,1.1716391,-1.5980228,-2.3054047,7.436042094292356,3.0399516006513023,left
28/07/2020, 18:03:37,1.7555494,-2.44292,5.927674,1.1716391,-1.5980228,-2.3054047,6.647339968647683,3.0399516006513023,left
28/07/2020, 18:03:37,1.7555494,-2.44292,5.927674,1.0018187,-1.6749918,-2.2406528,6.647339968647683,2.9714917590646794,left
28/07/2020, 18:03:37,2.299219,-1.7387843,5.654641,1.0018187,-1.6749918,-2.2406528,6.347026465788988,2.9714917590646794,left
28/07/2020, 18:03:37,2.299219,-1.7387843,5.654641,0.84055024,-1.7446305,-2.163684,6.347026465788988,2.9037541427951727,left
28/07/2020, 18:03:37,3.0895753,-1.4944923,5.728887,0.84055024,-1.7446305,-2.163684,6.678257997214525,2.9037541427951727,left
28/07/2020, 18:03:37,3.0895753,-1.4944923,5.728887,0.6780602,-1.8240429,-2.1025975,6.678257997214525,2.864928324084258,left
28/07/2020, 18:03:37,3.8847218,-1.7268091,5.7696023,0.6780602,-1.8240429,-2.1025975,7.16667591194504,2.864928324084258,left
28/07/2020, 18:03:37,3.8847218,-1.7268091,5.7696023,0.6023129,-1.8985685,-2.0659454,7.16667591194504,2.8697514856128947,left
28/07/2020, 18:03:37,4.296665,-2.0118165,5.942044,0.6023129,-1.8985685,-2.0659454,7.603724199625783,2.8697514856128947,left
28/07/2020, 18:03:37,4.296665,-2.0118165,5.942044,0.70249474,-1.946216,-2.0244067,7.603724199625783,2.894732785763838,left
28/07/2020, 18:03:37,4.296665,-2.0118165,5.942044,0.9248496,-1.9694288,-1.9706506,7.603724199625783,2.935551081522602,left
28/07/2020, 18:03:37,4.3397756,-2.4812403,6.085745,0.9248496,-1.9694288,-1.9706506,7.875690172619609,2.935551081522602,left
28/07/2020, 18:03:37,4.040398,-2.806963,6.08814,0.9248496,-1.9694288,-1.9706506,7.827471294382415,2.935551081522602,left
28/07/2020, 18:03:37,4.040398,-2.806963,6.08814,1.1789695,-2.004859,-1.92789,7.827471294382415,3.0209581613559737,left
28/07/2020, 18:03:37,3.7434156,-2.550696,5.633086,1.1789695,-2.004859,-1.92789,7.2284763299357,3.0209581613559737,left
28/07/2020, 18:03:37,3.7434156,-2.550696,5.633086,1.4233155,-2.0671673,-1.8973467,7.2284763299357,3.146256869501145,left
28/07/2020, 18:03:37,3.4440382,-1.9687061,5.206773,1.4233155,-2.0671673,-1.8973467,6.545814362061061,3.146256869501145,left
28/07/2020, 18:03:37,3.4440382,-1.9687061,5.206773,1.5259408,-2.1392493,-1.8570297,6.545814362061061,3.2176765133069147,left
28/07/2020, 18:03:37,3.178191,-1.5256275,4.5960426,1.5259408,-2.1392493,-1.8570297,5.792412694880025,3.2176765133069147,left
28/07/2020, 18:03:37,3.178191,-1.5256275,4.5960426,1.4501935,-2.2015574,-1.8167125,5.792412694880025,3.201618424624852,left
28/07/2020, 18:03:37,2.8883936,-0.9029224,4.148174,1.4501935,-2.2015574,-1.8167125,5.1347280958650465,3.201618424624852,left
28/07/2020, 18:03:38,1.4082716,-3.551814,-7.573052,2.7488925,0.2968804,0.94684076,8.482318523967436,2.922508447709019,left
28/07/2020, 18:03:38,1.2358302,-4.133804,-8.533455,2.7488925,0.2968804,0.94684076,9.56218923274424,2.922508447709019,left
28/07/2020, 18:03:38,1.2358302,-4.133804,-8.533455,2.5631895,0.3335323,1.0079273,9.56218923274424,2.7743650954892662,left
28/07/2020, 18:03:38,0.39278322,-3.403323,-8.188572,2.5631895,0.3335323,1.0079273,8.876350371283536,2.7743650954892662,left
28/07/2020, 18:03:38,0.39278322,-3.403323,-8.188572,2.44346,0.38728842,1.09467,8.876350371283536,2.7053265176104446,left
28/07/2020, 18:03:38,0.60354495,-2.311194,-8.068821,2.44346,0.38728842,1.09467,8.414972104948088,2.7053265176104446,left
28/07/2020, 18:03:38,0.60354495,-2.311194,-8.068821,2.150245,0.46425742,1.2412777,8.414972104948088,2.525838200861526,left
28/07/2020, 18:03:38,0.17483643,-2.4812403,-7.7526784,2.150245,0.46425742,1.2412777,8.14193732178657,2.525838200861526,left
28/07/2020, 18:03:38,0.17483643,-2.4812403,-7.7526784,1.5882491,0.48136163,1.4294242,8.14193732178657,2.1903190699550055,left
28/07/2020, 18:03:38,-0.18920656,-3.2021413,-8.169412,1.5882491,0.48136163,1.4294242,8.776604969321056,2.1903190699550055,left
28/07/2020, 18:03:38,-0.18920656,-3.2021413,-8.169412,0.9346235,0.443488,1.5491537,8.776604969321056,1.8628150198959141,left
28/07/2020, 18:03:38,-0.7759864,-3.642825,-8.178992,0.9346235,0.443488,1.5491537,8.987115365569009,1.8628150198959141,left
28/07/2020, 18:03:38,-0.7759864,-3.642825,-8.178992,0.39339706,0.3909536,1.6395617,8.987115365569009,1.7308288134010386,left
28/07/2020, 18:03:38,-1.5064673,-4.1960745,-8.140672,0.39339706,0.3909536,1.6395617,9.28154196026438,1.7308288134010386,left
28/07/2020, 18:03:38,-1.5064673,-4.1960745,-8.140672,-0.02076941,0.35918862,1.7495174,9.28154196026438,1.7861296442576762,left
28/07/2020, 18:03:38,-1.6477735,-4.663103,-7.800579,-0.02076941,0.35918862,1.7495174,9.236272079151394,1.7861296442576762,left
28/07/2020, 18:03:38,-1.6477735,-4.663103,-7.800579,-0.27000234,0.36407554,1.869247,9.236272079151394,1.9234179102017974,left
28/07/2020, 18:03:38,-2.1507277,-4.766089,-7.9538603,-0.27000234,0.36407554,1.869247,9.51867255706448,1.9234179102017974,left
28/07/2020, 18:03:38,-2.1507277,-4.766089,-7.9538603,-0.41172302,0.32620192,1.9840896,9.51867255706448,2.0524461321530336,left
28/07/2020, 18:03:38,-2.0405567,-4.8594947,-7.9945755,-0.41172302,0.32620192,1.9840896,9.575583405613548,2.0524461321530336,left
28/07/2020, 18:03:38,-2.0405567,-4.8594947,-7.9945755,-0.5277874,0.24190255,2.1135929,9.575583405613548,2.191883016601496,left
28/07/2020, 18:03:38,-1.9136207,-4.7133985,-8.765772,-0.5277874,0.24190255,2.1135929,10.13493096363426,2.191883016601496,left
28/07/2020, 18:03:38,-1.9136207,-4.7133985,-8.765772,-0.62186056,0.13439031,2.1966705,10.13493096363426,2.2869483472918963,left
28/07/2020, 18:03:38,-1.707649,-4.7062135,-9.060359,-0.62186056,0.13439031,2.1966705,10.35155136088537,2.2869483472918963,left
28/07/2020, 18:03:38,-1.707649,-4.7062135,-9.060359,-0.7037165,0.06963861,2.222327,10.35155136088537,2.3321242976262715,left
28/07/2020, 18:03:38,-1.6238233,-4.514612,-9.17053,-0.7037165,0.06963861,2.222327,10.349741624508003,2.3321242976262715,left
28/07/2020, 18:03:38,-1.6238233,-4.514612,-9.17053,-0.82466775,-0.030543251,2.307848,10.349741624508003,2.4509532991281855,left
28/07/2020, 18:03:38,-1.5160475,-4.8091993,-8.964559,-0.82466775,-0.030543251,2.307848,10.285431886830859,2.4509532991281855,left
28/07/2020, 18:03:38,-1.5160475,-4.8091993,-8.964559,-0.91018885,-0.11239916,2.4630077,10.285431886830859,2.6282093133075275,left
28/07/2020, 18:03:38,-1.1352394,-5.0726514,-8.758587,-0.91018885,-0.11239916,2.4630077,10.184959729611208,2.6282093133075275,left
28/07/2020, 18:03:39,-6.74198,1.1064991,4.8666797,-0.99815345,0.047647472,-2.7611098,8.388277924758606,2.936376691624412,left
28/07/2020, 18:03:39,-7.3622904,-1.7004639,6.444998,-0.99815345,0.047647472,-2.7611098,9.931409446791644,2.936376691624412,left
28/07/2020, 18:03:39,-7.3622904,-1.7004639,6.444998,-1.1753043,-0.09896013,-2.4874423,9.931409446791644,2.752907964734517,left
28/07/2020, 18:03:39,-7.9538603,-2.7375073,7.9706254,-1.1753043,-0.09896013,-2.4874423,11.588300528128576,2.752907964734517,left
28/07/2020, 18:03:39,-7.9538603,-2.7375073,7.9706254,-1.0433575,0.07208207,-2.267531,11.588300528128576,2.4970957420304516,left
28/07/2020, 18:03:39,-6.806646,-1.4250367,8.011341,-1.0433575,0.07208207,-2.267531,10.608616481415305,2.4970957420304516,left
28/07/2020, 18:03:39,-6.806646,-1.4250367,8.011341,-1.0433575,0.28221965,-2.331061,10.608616481415305,2.5694527901872646,left
28/07/2020, 18:03:39,-6.8689165,0.016765138,7.676038,-1.0433575,0.28221965,-2.331061,10.300672368399647,2.5694527901872646,left
28/07/2020, 18:03:39,-6.8689165,0.016765138,7.676038,-1.2596036,0.37873632,-2.4678946,10.300672368399647,2.7965239149213112,left
28/07/2020, 18:03:39,-7.189849,0.56522465,7.7718387,-1.2596036,0.37873632,-2.4678946,10.602588473558587,2.7965239149213112,left
28/07/2020, 18:03:39,-7.189849,0.56522465,7.7718387,-1.8997902,0.2968804,-2.4178038,10.602588473558587,3.0891933725564753,left
28/07/2020, 18:03:39,-8.174202,-0.37601808,7.8436894,-1.8997902,0.2968804,-2.4178038,11.335009105506133,3.0891933725564753,left
28/07/2020, 18:03:39,-8.174202,-0.37601808,7.8436894,-2.588846,0.123394735,-2.4043646,11.335009105506133,3.5352961360807447,left
28/07/2020, 18:03:39,-8.353828,-0.8143067,7.7790236,-2.588846,0.123394735,-2.4043646,11.443895914827493,3.5352961360807447,left
28/07/2020, 18:03:39,-8.353828,-0.8143067,7.7790236,-2.9443693,-0.117286086,-2.411695,11.443895914827493,3.8077998221464897,left
28/07/2020, 18:03:39,-9.096285,-2.5291407,8.389753,-2.9443693,-0.117286086,-2.411695,12.63039636111249,3.8077998221464897,left
28/07/2020, 18:03:39,-9.096285,-2.5291407,8.389753,-2.7525578,-0.24434601,-2.2931871,12.63039636111249,3.5909589845886116,left
28/07/2020, 18:03:39,-9.158555,-3.6859353,9.635164,-2.7525578,-0.24434601,-2.2931871,13.794986020978472,3.5909589845886116,left
28/07/2020, 18:03:39,-9.158555,-3.6859353,9.635164,-2.1135929,-0.14782934,-2.1478014,13.794986020978472,3.016981795579052,left
28/07/2020, 18:03:39,-8.344249,-4.5696974,9.980047,-2.1135929,-0.14782934,-2.1478014,13.788037001005282,3.016981795579052,left
28/07/2020, 18:03:39,-8.344249,-4.5696974,9.980047,-1.3353509,0.08674283,-2.1563535,13.788037001005282,2.537823195459403,left
28/07/2020, 18:03:39,-7.2616997,-5.407954,9.422008,-1.3353509,0.08674283,-2.1563535,13.067229142734156,2.537823195459403,left
28/07/2020, 18:03:39,-7.2616997,-5.407954,9.422008,-0.82711124,0.30787596,-2.2870786,13.067229142734156,2.4514545125677367,left
28/07/2020, 18:03:39,-6.68929,-4.018843,8.964559,-0.82711124,0.30787596,-2.2870786,11.885327622888143,2.4514545125677367,left
28/07/2020, 18:03:39,-6.68929,-4.018843,8.964559,-0.21258102,0.45570529,-2.5045466,11.885327622888143,2.5545277218891433,left
28/07/2020, 18:03:39,-6.8808913,-3.2572267,8.753797,-0.21258102,0.45570529,-2.5045466,11.601083817082088,2.5545277218891433,left
28/07/2020, 18:03:39,-6.8808913,-3.2572267,8.753797,0.07086034,0.5644393,-2.5509722,11.601083817082088,2.6136319923803035,left
28/07/2020, 18:03:39,-7.3311553,-3.4464333,8.040081,0.07086034,0.5644393,-2.5509722,11.413441349606614,2.6136319923803035,left
28/07/2020, 18:03:39,-7.3311553,-3.4464333,8.040081,0.24190255,0.597426,-2.4691164,11.413441349606614,2.551856325109774,left
28/07/2020, 18:03:39,-8.442444,-3.6404297,7.32397,0.24190255,0.597426,-2.4691164,11.754493651772767,2.551856325109774,left
28/07/2020, 18:03:40,-1.0538087,-4.140989,10.217154,0.02809979,-0.31520635,-0.30665424,11.074679582920506,0.44066026183822143,left
28/07/2020, 18:03:40,-1.5950831,-4.6678934,10.322535,0.02809979,-0.31520635,-0.30665424,11.440639789913966,0.44066026183822143,left
28/07/2020, 18:03:40,-1.5950831,-4.6678934,10.322535,0.12583819,-0.28221965,-0.40927956,11.440639789913966,0.5128283672651132,left
28/07/2020, 18:03:40,-2.323169,-4.4595265,10.391991,0.12583819,-0.28221965,-0.40927956,11.544607443821402,0.5128283672651132,left
28/07/2020, 18:03:40,-2.323169,-4.4595265,10.391991,0.42516205,-0.21135929,-0.49113548,11.544607443821402,0.683117540788456,left
28/07/2020, 18:03:40,-3.0081446,-3.8655617,9.673484,0.42516205,-0.21135929,-0.49113548,10.84286822043206,0.683117540788456,left
28/07/2020, 18:03:40,-3.0081446,-3.8655617,9.673484,0.73914665,-0.14294241,-0.5045745,10.84286822043206,0.9062922856978382,left
28/07/2020, 18:03:40,-3.5733693,-2.914739,8.837623,0.73914665,-0.14294241,-0.5045745,9.96836218694281,0.9062922856978382,left
28/07/2020, 18:03:40,-3.5733693,-2.914739,8.837623,0.91018885,-0.13072512,-0.44470972,9.96836218694281,1.021420353621371,left
28/07/2020, 18:03:40,-3.6500099,-1.8657203,8.504715,0.91018885,-0.13072512,-0.44470972,9.441062484614735,1.021420353621371,left
28/07/2020, 18:03:40,-3.6500099,-1.8657203,8.504715,0.8991933,-0.16859874,-0.36774075,9.441062484614735,0.9860057617501935,left
28/07/2020, 18:03:40,-3.178191,-0.7664063,8.382568,0.8991933,-0.16859874,-0.36774075,8.997540141929944,0.9860057617501935,left
28/07/2020, 18:03:40,-3.178191,-0.7664063,8.382568,0.7660247,-0.19303334,-0.29443693,8.997540141929944,0.8430592093860004,left
28/07/2020, 18:03:40,-2.792593,0.05269043,8.286768,0.7660247,-0.19303334,-0.29443693,8.744819905197462,0.8430592093860004,left
28/07/2020, 18:03:40,-2.792593,0.05269043,8.286768,0.5827652,-0.199142,-0.20036373,8.744819905197462,0.6476252464109454,left
28/07/2020, 18:03:40,-2.3303542,0.60354495,8.243657,0.5827652,-0.199142,-0.20036373,8.587939208614971,0.6476252464109454,left
28/07/2020, 18:03:40,-2.3303542,0.60354495,8.243657,0.3054325,-0.20891583,-0.11362089,8.587939208614971,0.3870975873487735,left
28/07/2020, 18:03:40,-1.7962648,1.0825489,8.140672,0.3054325,-0.20891583,-0.11362089,8.40648650501533,0.3870975873487735,left
28/07/2020, 18:03:40,-1.7962648,1.0825489,8.140672,-0.1747074,-0.21380275,-0.06963861,8.40648650501533,0.28475222357913443,left
28/07/2020, 18:03:40,-1.1735597,1.1735597,7.577842,-0.1747074,-0.21380275,-0.06963861,7.75745947620335,0.28475222357913443,left
28/07/2020, 18:03:40,-1.1735597,1.1735597,7.577842,-0.8051201,-0.22357659,-0.058643043,7.75745947620335,0.837641862988556,left
28/07/2020, 18:03:40,-0.82388675,0.8885523,7.5012016,-0.8051201,-0.22357659,-0.058643043,7.59844329274265,0.837641862988556,left
28/07/2020, 18:03:40,-0.82388675,0.8885523,7.5012016,-1.3768897,-0.2724458,-0.04520401,7.59844329274265,1.4043131334779795,left
28/07/2020, 18:03:40,-0.79993653,0.2945874,6.8425713,-1.3768897,-0.2724458,-0.04520401,6.895466744417949,1.4043131334779795,left
28/07/2020, 18:03:40,-0.79993653,0.2945874,6.8425713,-1.8313733,-0.39584053,-0.029321522,6.895466744417949,1.873893743408757,left
28/07/2020, 18:03:40,-1.1280543,-0.47181886,7.1060233,-1.8313733,-0.39584053,-0.029321522,7.210456765156877,1.873893743408757,left
28/07/2020, 18:03:40,-1.1280543,-0.47181886,7.1060233,-2.0305152,-0.51801354,-0.02076941,7.210456765156877,2.0956529640295187,left
28/07/2020, 18:03:40,-1.2717555,-1.4322218,7.1419487,-2.0305152,-0.51801354,-0.02076941,7.394325687595461,2.0956529640295187,left
28/07/2020, 18:03:40,-1.2717555,-1.4322218,7.1419487,-2.0512848,-0.55344373,-0.01710422,7.394325687595461,2.124702757167685,left
28/07/2020, 18:03:40,-1.219065,-2.3638844,7.5131764,-2.0512848,-0.55344373,-0.01710422,7.97006206245333,2.124702757167685,left
28/07/2020, 18:03:41,0.33530274,-9.912986,2.914739,0.6340779,-0.62186056,-0.5632175,10.338056792727148,1.0516555177632352,left
28/07/2020, 18:03:41,0.33530274,-9.912986,2.914739,0.9199627,-0.44104454,-0.17959431,10.338056792727148,1.0359081900296707,left
28/07/2020, 18:03:41,1.0490186,-9.627979,3.6021094,0.9199627,-0.44104454,-0.17959431,10.33313202365555,1.0359081900296707,left
28/07/2020, 18:03:41,1.0490186,-9.627979,3.6021094,1.3842201,-0.22113313,0.24068081,10.33313202365555,1.4222842416565362,left
28/07/2020, 18:03:41,1.954336,-9.529783,3.8152664,1.3842201,-0.22113313,0.24068081,10.449519397382488,1.4222842416565362,left
28/07/2020, 18:03:41,1.954336,-9.529783,3.8152664,1.8338168,-0.040317092,0.3909536,10.449519397382488,1.8754610418663098,left
28/07/2020, 18:03:41,2.3902297,-9.685459,3.7338357,1.8338168,-0.040317092,0.3909536,10.651893997574915,1.8754610418663098,left
28/07/2020, 18:03:41,2.3902297,-9.685459,3.7338357,2.0842714,0.00244346,0.23212871,10.651893997574915,2.0971592944388093,left
28/07/2020, 18:03:41,2.1219873,-9.690249,3.4871485,2.0842714,0.00244346,0.23212871,10.514940293483807,2.0971592944388093,left
28/07/2020, 18:03:41,2.1219873,-9.690249,3.4871485,2.063502,-0.03787363,-0.02321287,10.514940293483807,2.0639801490407943,left
28/07/2020, 18:03:41,2.0285816,-9.280701,4.543352,2.063502,-0.03787363,-0.02321287,10.530365478703322,2.0639801490407943,left
28/07/2020, 18:03:41,2.0285816,-9.280701,4.543352,1.8264863,0.010995571,-0.0977384,10.530365478703322,1.8291326034206923,left
28/07/2020, 18:03:41,1.9160157,-8.904683,5.0487013,1.8264863,0.010995571,-0.0977384,10.414119374925619,1.8291326034206923,left
28/07/2020, 18:03:41,1.9160157,-8.904683,5.0487013,1.3487899,0.12095127,0.08185591,10.414119374925619,1.356673828231238,left
28/07/2020, 18:03:41,1.6094532,-8.3179035,5.1708474,1.3487899,0.12095127,0.08185591,9.925498554326587,1.356673828231238,left
28/07/2020, 18:03:41,1.6094532,-8.3179035,5.1708474,0.77091163,0.16371182,0.31031942,9.925498554326587,0.8469973145292835,left
28/07/2020, 18:03:41,1.587898,-8.047266,5.108577,0.77091163,0.16371182,0.31031942,9.66320169250219,0.8469973145292835,left
28/07/2020, 18:03:41,1.587898,-8.047266,5.108577,0.23212871,0.0488692,0.43249243,9.66320169250219,0.49327643652088704,left
28/07/2020, 18:03:41,1.3268409,-8.394544,4.768484,0.23212871,0.0488692,0.43249243,9.745117266060882,0.49327643652088704,left
28/07/2020, 18:03:41,1.3268409,-8.394544,4.768484,-0.2736675,-0.15638144,0.43860108,9.745117266060882,0.5401110705707552,left
28/07/2020, 18:03:41,1.2046949,-9.189691,4.5744877,-0.2736675,-0.15638144,0.43860108,10.335745761767164,0.5401110705707552,left
28/07/2020, 18:03:41,1.2046949,-9.189691,4.5744877,-0.6462952,-0.36896247,0.40805784,10.335745761767164,0.8487296236054773,left
28/07/2020, 18:03:41,1.1711646,-9.862691,4.5625124,-0.6462952,-0.36896247,0.40805784,10.929813276928694,0.8487296236054773,left
28/07/2020, 18:03:41,1.1711646,-9.862691,4.5625124,-0.8332199,-0.5131266,0.3750711,10.929813276928694,1.0479659508271035,left
28/07/2020, 18:03:41,1.3100758,-10.291399,4.646338,-0.8332199,-0.5131266,0.3750711,11.367394098764935,1.0479659508271035,left
28/07/2020, 18:03:41,1.3100758,-10.291399,4.646338,-0.86376315,-0.5668827,0.35552344,11.367394098764935,1.0926297309326207,left
28/07/2020, 18:03:41,1.5615528,-10.475816,4.7014236,-0.86376315,-0.5668827,0.35552344,11.588120962070855,1.0926297309326207,left
28/07/2020, 18:03:41,1.5615528,-10.475816,4.7014236,-0.7318163,-0.565661,0.36774075,11.588120962070855,0.995369642981428,left
28/07/2020, 18:03:41,1.8465601,-10.27224,4.5385623,-0.7318163,-0.565661,0.36774075,11.381003477612213,0.995369642981428,left
28/07/2020, 18:03:41,1.8465601,-10.27224,4.5385623,-0.49846584,-0.5583306,0.41172302,11.381003477612213,0.8542347961005522,left
28/07/2020, 18:03:42,3.9014869,-9.101074,5.6738014,4.5423923,0.6181954,-1.9694288,11.41241316891036,4.989403037342693,left
28/07/2020, 18:03:42,3.04407,-7.553892,5.637876,4.5423923,0.6181954,-1.9694288,9.905215533584638,4.989403037342693,left
28/07/2020, 18:03:42,3.04407,-7.553892,5.637876,5.2571044,0.6646211,-1.8533645,9.905215533584638,5.613717815766167,left
28/07/2020, 18:03:42,2.5938063,-5.695357,5.702542,5.2571044,0.6646211,-1.8533645,8.466634741921386,5.613717815766167,left
28/07/2020, 18:03:42,2.5938063,-5.695357,5.702542,5.7323575,0.5937608,-1.7678434,8.466634741921386,6.028079675151835,left
28/07/2020, 18:03:42,2.186653,-4.3565407,5.398374,5.7323575,0.5937608,-1.7678434,7.273468244957067,6.028079675151835,left
28/07/2020, 18:03:42,2.186653,-4.3565407,5.398374,5.714031,0.53145254,-1.6835439,7.273468244957067,5.980544683234953,left
28/07/2020, 18:03:42,2.0549269,-2.8931837,5.319339,5.714031,0.53145254,-1.6835439,6.394419572808945,5.980544683234953,left
28/07/2020, 18:03:42,2.0549269,-2.8931837,5.319339,5.27543,0.43249243,-1.4795151,6.394419572808945,5.496014773157948,left
28/07/2020, 18:03:42,1.8106349,-1.1136842,6.183941,5.27543,0.43249243,-1.4795151,6.539099013762105,5.496014773157948,left
28/07/2020, 18:03:42,1.8106349,-1.1136842,6.183941,4.5558314,0.23823735,-1.1508697,6.539099013762105,4.704982274594893,left
28/07/2020, 18:03:42,2.3519094,0.7424561,7.350315,4.5558314,0.23823735,-1.1508697,7.75305429045877,4.704982274594893,left
28/07/2020, 18:03:42,2.3519094,0.7424561,7.350315,3.5686734,0.014660761,-0.9248496,7.75305429045877,3.6865961825037026,left
28/07/2020, 18:03:42,3.544629,2.42376,8.143066,3.5686734,0.014660761,-0.9248496,9.205896923460717,3.6865961825037026,left
28/07/2020, 18:03:42,3.544629,2.42376,8.143066,2.149023,-0.11972954,-0.9700536,9.205896923460717,2.360855622618785,left
28/07/2020, 18:03:42,3.9302273,3.2500417,7.5946074,2.149023,-0.11972954,-0.9700536,9.148088244115307,2.360855622618785,left
28/07/2020, 18:03:42,3.9302273,3.2500417,7.5946074,0.49846584,-0.23701562,-1.1643087,9.148088244115307,1.288510483561809,left
28/07/2020, 18:03:42,3.1566358,2.5938063,7.2616997,0.49846584,-0.23701562,-1.1643087,8.332134328655648,1.288510483561809,left
28/07/2020, 18:03:42,3.1566358,2.5938063,7.2616997,-0.82588947,-0.37140593,-1.2119561,8.332134328655648,1.5129023337565708,left
28/07/2020, 18:03:42,2.1603076,1.0753639,7.793394,-0.82588947,-0.37140593,-1.2119561,8.158451324204872,1.5129023337565708,left
28/07/2020, 18:03:42,2.1603076,1.0753639,7.793394,-1.5943577,-0.39339706,-1.0079273,8.158451324204872,1.926825175316316,left
28/07/2020, 18:03:42,2.0142114,-0.3065625,8.2197075,-1.5943577,-0.39339706,-1.0079273,8.468448465257572,1.926825175316316,left
28/07/2020, 18:03:42,2.0142114,-0.3065625,8.2197075,-1.8949033,-0.3335323,-0.7892376,8.468448465257572,2.079614950070677,left
28/07/2020, 18:03:42,2.548301,-2.2920337,8.162227,-1.8949033,-0.3335323,-0.7892376,8.852638057285363,2.079614950070677,left
28/07/2020, 18:03:42,2.548301,-2.2920337,8.162227,-2.0793846,-0.30421078,-0.74159014,8.852638057285363,2.2285287320625957,left
28/07/2020, 18:03:42,3.3506324,-4.126619,8.842413,-2.0793846,-0.30421078,-0.74159014,10.317169556728103,2.2285287320625957,left
28/07/2020, 18:03:42,3.3506324,-4.126619,8.842413,-2.1612403,-0.2638937,-0.83199817,10.317169556728103,2.3308411871288794,left
28/07/2020, 18:03:42,4.129014,-5.345684,9.831555,-2.1612403,-0.2638937,-0.83199817,11.928309840089621,2.3308411871288794,left
28/07/2020, 18:03:42,4.129014,-5.345684,9.831555,-2.0525064,-0.14172068,-0.9016368,11.928309840089621,2.246289462186379,left
28/07/2020, 18:03:42,4.598438,-5.997129,10.3512745,-2.0525064,-0.14172068,-0.9016368,12.81639845868775,2.246289462186379,left
28/07/2020, 18:03:43,1.4322218,3.1039455,-3.786526,0.010995571,-2.453234,-1.1533132,5.1013248973927,2.7108317905530313,left
28/07/2020, 18:03:43,0.63707525,2.8955786,-3.6859353,0.010995571,-2.453234,-1.1533132,4.730365647784943,2.7108317905530313,left
28/07/2020, 18:03:43,0.63707525,2.8955786,-3.6859353,-0.11972954,-2.484999,-1.2742645,4.730365647784943,2.795228935666069,left
28/07/2020, 18:03:43,-0.19878663,2.1507277,-3.66438,-0.11972954,-2.484999,-1.2742645,4.253566421008193,2.795228935666069,left
28/07/2020, 18:03:43,-0.19878663,2.1507277,-3.66438,-0.08185591,-2.4886642,-1.3927722,4.253566421008193,2.8530622210375443,left
28/07/2020, 18:03:43,-0.6706055,1.7363893,-4.239185,-0.08185591,-2.4886642,-1.3927722,4.62984316009279,2.8530622210375443,left
28/07/2020, 18:03:43,-0.6706055,1.7363893,-4.239185,0.24434601,-2.466673,-1.5320494,4.62984316009279,2.9139930630659303,left
28/07/2020, 18:03:43,-0.7065308,2.0980372,-4.1721244,0.24434601,-2.466673,-1.5320494,4.723088814330558,2.9139930630659303,left
28/07/2020, 18:03:43,-0.7065308,2.0980372,-4.1721244,0.83199817,-2.4483469,-1.6566659,4.723088814330558,3.0710202282424266,left
28/07/2020, 18:03:43,-0.41194338,2.4213648,-4.2248144,0.83199817,-2.4483469,-1.6566659,4.886896930000725,3.0710202282424266,left
28/07/2020, 18:03:43,-0.41194338,2.4213648,-4.2248144,1.4611892,-2.461786,-1.733635,4.886896930000725,3.3467826842942516,left
28/07/2020, 18:03:43,0.27303225,2.672842,-4.5529323,1.4611892,-2.461786,-1.733635,5.286570087429251,3.3467826842942516,left
28/07/2020, 18:03:43,0.27303225,2.672842,-4.5529323,1.8924598,-2.4654512,-1.7507391,5.286570087429251,3.567203542463023,left
28/07/2020, 18:03:43,0.91729254,2.7494826,-5.017566,1.8924598,-2.4654512,-1.7507391,5.794570816677506,3.567203542463023,left
28/07/2020, 18:03:43,0.91729254,2.7494826,-5.017566,1.973094,-2.4006996,-1.742187,5.794570816677506,3.562537599386493,left
28/07/2020, 18:03:43,1.2046949,3.0081446,-6.023474,1.973094,-2.4006996,-1.742187,6.839770858482278,3.562537599386493,left
28/07/2020, 18:03:43,1.2046949,3.0081446,-6.023474,1.7776172,-2.2699745,-1.769065,6.839770858482278,3.3826466140899174,left
28/07/2020, 18:03:43,0.8047266,3.300337,-6.3875175,1.7776172,-2.2699745,-1.769065,7.234651955755351,3.3826466140899174,left
28/07/2020, 18:03:43,0.8047266,3.300337,-6.3875175,1.4941758,-2.117258,-1.8606949,7.234651955755351,3.1902238942833425,left
28/07/2020, 18:03:43,-0.32332766,3.3626075,-6.6916847,1.4941758,-2.117258,-1.8606949,7.496019894934297,3.1902238942833425,left
28/07/2020, 18:03:43,-0.32332766,3.3626075,-6.6916847,1.3292422,-2.023185,-1.9950851,7.496019894934297,3.1369614510284984,left
28/07/2020, 18:03:43,-1.9447559,2.8285182,-6.8904715,1.3292422,-2.023185,-1.9950851,7.698128825476256,3.1369614510284984,left
28/07/2020, 18:03:43,-1.9447559,2.8285182,-6.8904715,1.4404197,-1.9596549,-2.108706,7.698128825476256,3.2189590327741255,left
28/07/2020, 18:03:43,-3.5829494,2.454895,-7.7622585,1.4404197,-1.9596549,-2.108706,8.894756513858896,3.2189590327741255,left
28/07/2020, 18:03:43,-3.5829494,2.454895,-7.7622585,1.9449942,-1.8533645,-2.0720541,8.894756513858896,3.392841098919019,left
28/07/2020, 18:03:43,-4.720584,2.4501052,-8.6627865,1.9449942,-1.8533645,-2.0720541,10.165175729518033,3.392841098919019,left
28/07/2020, 18:03:43,-4.720584,2.4501052,-8.6627865,2.787988,-1.7324132,-1.8875729,10.165175729518033,3.7864315114299196,left
28/07/2020, 18:03:43,-5.2355127,2.9746144,-9.568104,2.787988,-1.7324132,-1.8875729,11.3051994429201,3.7864315114299196,left
28/07/2020, 18:03:43,-5.2355127,2.9746144,-9.568104,3.9266403,-1.6725484,-1.5980228,11.3051994429201,4.557367546095614,left
28/07/2020, 18:03:43,-5.127737,3.8224514,-11.2302475,3.9266403,-1.6725484,-1.5980228,12.923748697984319,4.557367546095614,left
28/07/2020, 18:03:44,-8.193362,2.802173,7.36708,4.3908978,0.44837493,-2.498438,11.369134906961294,5.0718058895450255,left
28/07/2020, 18:03:44,-8.006551,4.2511597,6.715635,4.3908978,0.44837493,-2.498438,11.281709317797723,5.0718058895450255,left
28/07/2020, 18:03:44,-8.006551,4.2511597,6.715635,4.520401,0.43982282,-2.5692983,11.281709317797723,5.218118713844675,left
28/07/2020, 18:03:44,-7.814949,6.0617948,5.9204884,4.520401,0.43982282,-2.5692983,11.526966925767935,5.218118713844675,left
28/07/2020, 18:03:44,-7.814949,6.0617948,5.9204884,4.4507623,0.33475402,-2.66948,11.526966925767935,5.2007181216532725,left
28/07/2020, 18:03:44,-7.9778104,6.7539554,5.5588408,4.4507623,0.33475402,-2.66948,11.839006802462546,5.2007181216532725,left
28/07/2020, 18:03:44,-7.9778104,6.7539554,5.5588408,4.0427046,0.24190255,-2.63405,11.839006802462546,4.831169218332879,left
28/07/2020, 18:03:44,-7.7502837,7.1443434,5.158872,4.0427046,0.24190255,-2.63405,11.735523065287737,4.831169218332879,left
28/07/2020, 18:03:44,-7.7502837,7.1443434,5.158872,3.4074051,0.15638144,-2.5265377,11.735523065287737,4.2447918042565345,left
28/07/2020, 18:03:44,-7.549102,8.178992,5.709727,3.4074051,0.15638144,-2.5265377,12.509429773520063,4.2447918042565345,left
28/07/2020, 18:03:44,-7.549102,8.178992,5.709727,2.8002052,0.09407321,-2.502103,12.509429773520063,3.756397074066562,left
28/07/2020, 18:03:44,-7.6113725,8.1143265,5.278623,2.8002052,0.09407321,-2.502103,12.314184785902716,3.756397074066562,left
28/07/2020, 18:03:44,-7.6113725,8.1143265,5.278623,2.1600187,0.10018186,-2.4422383,12.314184785902716,3.2619388680519137,left
28/07/2020, 18:03:44,-7.8197393,7.606582,4.7157936,2.1600187,0.10018186,-2.4422383,11.88474336999028,3.2619388680519137,left
28/07/2020, 18:03:44,-7.8197393,7.606582,4.7157936,1.439198,0.11117743,-2.3603823,11.88474336999028,2.76677719428181,left
28/07/2020, 18:03:44,-8.028106,6.9862723,4.3445654,1.439198,0.11117743,-2.3603823,11.494943726949518,2.76677719428181,left
28/07/2020, 18:03:44,-8.028106,6.9862723,4.3445654,0.6841688,0.19669853,-2.3139567,11.494943726949518,2.4209859693234437,left
28/07/2020, 18:03:44,-8.195757,6.821016,4.4547367,0.6841688,0.19669853,-2.3139567,11.556010017947656,2.4209859693234437,left
28/07/2020, 18:03:44,-8.195757,6.821016,4.4547367,0.15027279,0.35918862,-2.2724178,11.556010017947656,2.3055326838509242,left
28/07/2020, 18:03:44,-8.50711,6.5192432,4.493057,0.15027279,0.35918862,-2.2724178,11.62148897792674,2.3055326838509242,left
28/07/2020, 18:03:44,-8.50711,6.5192432,4.493057,-0.33108884,0.533896,-2.2235487,11.62148897792674,2.310591567672891,left
28/07/2020, 18:03:44,-9.026829,5.489385,3.4560134,-0.33108884,0.533896,-2.2235487,11.115800266153993,2.310591567672891,left
28/07/2020, 18:03:44,-9.026829,5.489385,3.4560134,-0.80878526,0.5766566,-2.1759012,11.115800266153993,2.39190558529346,left
28/07/2020, 18:03:44,-9.836346,4.7469287,2.411785,-0.80878526,0.5766566,-2.1759012,11.184978075049589,2.39190558529346,left
28/07/2020, 18:03:44,-9.836346,4.7469287,2.411785,-1.1765261,0.3824015,-2.25287,11.184978075049589,2.5701883407726793,left
28/07/2020, 18:03:44,-10.688972,2.8788135,2.8644435,-1.1765261,0.3824015,-2.25287,11.434453923399118,2.5701883407726793,left
28/07/2020, 18:03:44,-10.688972,2.8788135,2.8644435,-1.3084729,0.07086034,-2.3628259,11.434453923399118,2.701863900811591,left
28/07/2020, 18:03:44,-11.373948,0.57719976,4.047583,-1.3084729,0.07086034,-2.3628259,12.086471108441962,2.701863900811591,left
28/07/2020, 18:03:44,-11.373948,0.57719976,4.047583,-1.2119561,-0.18448123,-2.3359478,12.086471108441962,2.638090771562791,left
28/07/2020, 18:03:44,-11.730806,-1.4465919,4.4834766,-1.2119561,-0.18448123,-2.3359478,12.641440123686767,2.638090771562791,left
28/07/2020, 18:03:45,-3.8895118,-9.869876,0.39517823,1.0030403,0.11850781,-0.39706227,10.61597468422107,1.085261452221771,left
28/07/2020, 18:03:45,-4.2032595,-10.229129,0.6227051,1.0030403,0.11850781,-0.39706227,11.076562128021957,1.085261452221771,left
28/07/2020, 18:03:45,-4.2032595,-10.229129,0.6227051,1.2828165,0.054977853,-0.37018418,11.076562128021957,1.33629231140325,left
28/07/2020, 18:03:45,-4.267925,-10.492581,0.73048097,1.2828165,0.054977853,-0.37018418,11.350905169858226,1.33629231140325,left
28/07/2020, 18:03:45,-4.267925,-10.492581,0.73048097,1.6151271,0.0244346,-0.30176732,11.350905169858226,1.64325776150828,left
28/07/2020, 18:03:45,-4.272715,-10.511742,0.55324954,1.6151271,0.0244346,-0.30176732,11.360408952764212,1.64325776150828,left
28/07/2020, 18:03:45,-4.272715,-10.511742,0.55324954,1.8875729,0.04520401,-0.23823735,11.360408952764212,1.903084820108947,left
28/07/2020, 18:03:45,-4.25595,-10.43031,0.39278322,1.8875729,0.04520401,-0.23823735,11.272034454368248,1.903084820108947,left
28/07/2020, 18:03:45,-4.25595,-10.43031,0.39278322,2.1282537,0.09040802,-0.21868968,11.272034454368248,2.141369326096779,left
28/07/2020, 18:03:45,-4.351751,-10.102193,0.7664063,2.1282537,0.09040802,-0.21868968,11.026305593371976,2.141369326096779,left
28/07/2020, 18:03:45,-4.351751,-10.102193,0.7664063,2.3774867,0.11972954,-0.2480112,11.026305593371976,2.393384163759732,left
28/07/2020, 18:03:45,-4.5792775,-9.872271,0.9436377,2.3774867,0.11972954,-0.2480112,10.923459214551722,2.393384163759732,left
28/07/2020, 18:03:45,-4.5792775,-9.872271,0.9436377,2.552194,0.12950338,-0.2883283,10.923459214551722,2.5716918843124414,left
28/07/2020, 18:03:45,-4.9409256,-9.654325,1.1663746,2.552194,0.12950338,-0.2883283,10.907756760715406,2.5716918843124414,left
28/07/2020, 18:03:45,-4.9409256,-9.654325,1.1663746,2.5900676,0.15271625,-0.3176498,10.907756760715406,2.61393839977884,left
28/07/2020, 18:03:45,-5.125342,-9.266331,1.1520045,2.5900676,0.15271625,-0.3176498,10.651813405656506,2.61393839977884,left
28/07/2020, 18:03:45,-5.125342,-9.266331,1.1520045,2.4911075,0.17715086,-0.36285383,10.651813405656506,2.5236207563969586,left
28/07/2020, 18:03:45,-5.369634,-8.722662,1.3867164,2.4911075,0.17715086,-0.36285383,10.336381624064808,2.5236207563969586,left
28/07/2020, 18:03:45,-5.369634,-8.722662,1.3867164,2.3115132,0.18814643,-0.4068361,10.336381624064808,2.3545717001143247,left
28/07/2020, 18:03:45,-5.616321,-8.229287,1.6860938,2.3115132,0.18814643,-0.4068361,10.104807857356333,2.3545717001143247,left
28/07/2020, 18:03:45,-5.616321,-8.229287,1.6860938,2.1038191,0.16371182,-0.44104454,10.104807857356333,2.155777535794135,left
28/07/2020, 18:03:45,-5.9228835,-8.01613,1.9926564,2.1038191,0.16371182,-0.44104454,10.164131825162775,2.155777535794135,left
28/07/2020, 18:03:45,-5.9228835,-8.01613,1.9926564,1.8619165,0.11239916,-0.44959664,10.164131825162775,1.9187245562439392,left
28/07/2020, 18:03:45,-6.006709,-7.8844047,2.3878345,1.8619165,0.11239916,-0.44959664,10.195398219888038,1.9187245562439392,left
28/07/2020, 18:03:45,-6.006709,-7.8844047,2.3878345,1.6481138,0.10018186,-0.42882723,10.195398219888038,1.7059333068612115,left
28/07/2020, 18:03:45,-5.975574,-7.7335186,2.6081765,1.6481138,0.10018186,-0.42882723,10.115205349812376,1.7059333068612115,left
28/07/2020, 18:03:45,-5.975574,-7.7335186,2.6081765,1.4282024,0.122173004,-0.37262765,10.115205349812376,1.4810603208347182,left
28/07/2020, 18:03:45,-5.8175025,-7.580237,2.936294,1.4282024,0.122173004,-0.37262765,9.996256793295085,1.4810603208347182,left
28/07/2020, 18:03:45,-5.8175025,-7.580237,2.936294,1.2693775,0.10629051,-0.3054325,9.996256793295085,1.3099258930923765,left
28/07/2020, 18:03:45,-5.484595,-7.5467067,3.1470559,1.2693775,0.10629051,-0.3054325,9.845685483238622,1.3099258930923765,left
28/07/2020, 18:03:46,-2.8788135,-7.565867,4.7301636,1.6175705,0.19058989,-0.701273,9.375732360662388,1.7733140572996253,left
28/07/2020, 18:03:46,-3.432063,-7.913145,5.225933,1.6175705,0.19058989,-0.701273,10.08500364251485,1.7733140572996253,left
28/07/2020, 18:03:46,-3.432063,-7.913145,5.225933,1.2547168,0.06230823,-0.84177196,10.08500364251485,1.512209139374789,left
28/07/2020, 18:03:46,-3.7027004,-8.356223,5.6187162,1.2547168,0.06230823,-0.84177196,10.728766325478736,1.512209139374789,left
28/07/2020, 18:03:46,-3.7027004,-8.356223,5.6187162,1.0262532,-0.05009093,-0.9236279,10.728766325478736,1.3815908589925576,left
28/07/2020, 18:03:46,-3.8607717,-8.792117,6.452183,1.0262532,-0.05009093,-0.9236279,11.56881773155579,1.3815908589925576,left
28/07/2020, 18:03:46,-3.8607717,-8.792117,6.452183,0.97860575,-0.14294241,-0.94684076,11.56881773155579,1.3691636764029629,left
28/07/2020, 18:03:46,-3.6907253,-9.010064,6.69408,0.97860575,-0.14294241,-0.94684076,11.81581204823466,1.3691636764029629,left
28/07/2020, 18:03:46,-3.6907253,-9.010064,6.69408,0.97982746,-0.17226394,-0.963945,11.81581204823466,1.3852532728889237,left
28/07/2020, 18:03:46,-3.283572,-8.854387,6.840176,0.97982746,-0.17226394,-0.963945,11.660618685313253,1.3852532728889237,left
28/07/2020, 18:03:46,-3.283572,-8.854387,6.840176,0.9834927,-0.16982047,-1.0164794,11.660618685313253,1.4245445396172949,left
28/07/2020, 18:03:46,-2.9338992,-8.566985,7.1084185,0.9834927,-0.16982047,-1.0164794,11.512194039251359,1.4245445396172949,left
28/07/2020, 18:03:46,-2.9338992,-8.566985,7.1084185,1.0286967,-0.16493355,-1.099557,11.512194039251359,1.5147427420071133,left
28/07/2020, 18:03:46,-2.8668385,-8.298743,7.1467385,1.0286967,-0.16493355,-1.099557,11.320944034356545,1.5147427420071133,left
28/07/2020, 18:03:46,-2.8668385,-8.298743,7.1467385,1.1447611,-0.19792026,-1.1972954,11.320944034356545,1.6682825640813685,left
28/07/2020, 18:03:46,-3.0009596,-8.428074,7.2521195,1.1447611,-0.19792026,-1.1972954,11.516571796643284,1.6682825640813685,left
28/07/2020, 18:03:46,-3.0009596,-8.428074,7.2521195,1.2571602,-0.28588483,-1.2437211,11.516571796643284,1.791374922435804,left
28/07/2020, 18:03:46,-3.283572,-9.201666,7.6257424,1.2571602,-0.28588483,-1.2437211,12.39372613198394,1.791374922435804,left
28/07/2020, 18:03:46,-3.283572,-9.201666,7.6257424,1.325577,-0.3824015,-1.226617,12.39372613198394,1.846070029613715,left
28/07/2020, 18:03:46,-3.027305,-9.798025,8.270002,1.325577,-0.3824015,-1.226617,13.174172098261701,1.846070029613715,left
28/07/2020, 18:03:46,-3.027305,-9.798025,8.270002,1.3512334,-0.42882723,-1.2131779,13.174172098261701,1.8658845236728239,left
28/07/2020, 18:03:46,-2.548301,-9.5633135,8.600515,1.3512334,-0.42882723,-1.2131779,13.111814033278625,1.8658845236728239,left
28/07/2020, 18:03:46,-2.548301,-9.5633135,8.600515,1.3451247,-0.43249243,-1.28526,13.111814033278625,1.910053243474581,left
28/07/2020, 18:03:46,-1.7220191,-8.8879175,8.751402,1.3451247,-0.43249243,-1.28526,12.591563157691626,1.910053243474581,left
28/07/2020, 18:03:46,-1.7220191,-8.8879175,8.751402,1.3158033,-0.42516205,-1.4147633,12.591563157691626,1.9782963242845342,left
28/07/2020, 18:03:46,-1.5711329,-8.226892,8.768167,1.3158033,-0.42516205,-1.4147633,12.12563247125497,1.9782963242845342,left
28/07/2020, 18:03:46,-1.5711329,-8.226892,8.768167,1.1862998,-0.37751457,-1.5418233,12.12563247125497,1.981676930880143,left
28/07/2020, 18:03:46,-1.6836988,-7.2521195,8.650811,1.1862998,-0.37751457,-1.5418233,11.413352431993372,1.981676930880143,left
28/07/2020, 18:03:46,-1.6836988,-7.2521195,8.650811,0.9969317,-0.33108884,-1.5894707,11.413352431993372,1.905232223612788,left
28/07/2020, 18:03:47,-2.4333398,-6.5048733,8.174202,0.9969317,-0.33108884,-1.5894707,10.726234047999442,1.905232223612788,left
28/07/2020, 18:03:47,-2.4333398,-6.5048733,8.174202,0.81122875,-0.31642807,-1.5577058,10.726234047999442,1.7845632640917586,left
28/07/2020, 18:03:47,-2.818938,-5.7815776,8.3322735,0.81122875,-0.31642807,-1.5577058,10.526149929540418,1.7845632640917586,left
28/07/2020, 18:03:47,-2.818938,-5.7815776,8.3322735,0.71837723,-0.38606668,-1.5393798,10.526149929540418,1.7420687709556348,left
28/07/2020, 18:03:47,-3.1422658,-5.695357,8.267608,0.71837723,-0.38606668,-1.5393798,10.51970821059809,1.7420687709556348,left
28/07/2020, 18:03:47,-3.1422658,-5.695357,8.267608,0.5277874,-0.58398694,-1.5210539,10.51970821059809,1.712660289703013,left
28/07/2020, 18:03:47,-3.0129347,-5.6498513,7.661668,0.5277874,-0.58398694,-1.5210539,9.984976175203641,1.712660289703013,left
28/07/2020, 18:03:47,-3.0129347,-5.6498513,7.661668,0.1869247,-0.8051201,-1.4953976,9.984976175203641,1.708617312315183,left
28/07/2020, 18:03:47,-2.3830445,-5.4295096,8.703502,0.1869247,-0.8051201,-1.4953976,10.531354034181241,1.708617312315183,left
28/07/2020, 18:03:47,-2.3830445,-5.4295096,8.703502,0.10629051,-0.9602798,-1.466076,10.531354034181241,1.755794377496235,left
28/07/2020, 18:03:47,-1.1687696,-5.326524,9.24717,0.10629051,-0.9602798,-1.466076,10.735363955677919,1.755794377496235,left
28/07/2020, 18:03:47,-1.1687696,-5.326524,9.24717,0.01588249,-1.0299184,-1.4379762,10.735363955677919,1.7688300937500507,left
28/07/2020, 18:03:47,-0.014370117,-5.8677983,8.562195,0.01588249,-1.0299184,-1.4379762,10.379905776591638,1.7688300937500507,left
28/07/2020, 18:03:47,-0.014370117,-5.8677983,8.562195,-0.19303334,-1.0262532,-1.4453067,10.379905776591638,1.7830784856008701,left
28/07/2020, 18:03:47,0.50774413,-6.1073003,8.181387,-0.19303334,-1.0262532,-1.4453067,10.22213349651957,1.7830784856008701,left
28/07/2020, 18:03:47,0.50774413,-6.1073003,8.181387,-0.32375845,-1.0030403,-1.5674796,10.22213349651957,1.8888890216414052,left
28/07/2020, 18:03:47,0.7376661,-6.631809,7.702383,-0.32375845,-1.0030403,-1.5674796,10.190767854880024,1.8888890216414052,left
28/07/2020, 18:03:47,0.7376661,-6.631809,7.702383,-0.67195153,-0.94317555,-1.7519609,10.190767854880024,2.100110923419943,left
28/07/2020, 18:03:47,0.14130616,-7.1706886,8.265213,-0.67195153,-0.94317555,-1.7519609,10.94314803851433,2.100110923419943,left
28/07/2020, 18:03:47,0.14130616,-7.1706886,8.265213,-0.6780602,-0.9028585,-1.9535463,10.94314803851433,2.2563825369216253,left
28/07/2020, 18:03:47,-0.16525635,-7.1539235,9.271121,-0.6780602,-0.9028585,-1.9535463,11.711516397626314,2.2563825369216253,left
28/07/2020, 18:03:47,-0.16525635,-7.1539235,9.271121,-0.49113548,-0.9211844,-1.9926417,11.711516397626314,2.2495367720569748,left
28/07/2020, 18:03:47,-0.5460645,-7.5323367,8.372989,-0.49113548,-0.9211844,-1.9926417,11.275691666583732,2.2495367720569748,left
28/07/2020, 18:03:47,-0.5460645,-7.5323367,8.372989,-0.6352996,-1.0323619,-1.8423688,11.275691666583732,2.2053796902835145,left
28/07/2020, 18:03:47,0.12693603,-6.7300053,7.4820414,-0.6352996,-1.0323619,-1.8423688,10.064294635534,2.2053796902835145,left
28/07/2020, 18:03:47,0.12693603,-6.7300053,7.4820414,-0.7476988,-1.0506878,-1.6725484,10.064294635534,2.111969814661751,left
28/07/2020, 18:03:47,1.1687696,-5.005591,8.447234,-0.7476988,-1.0506878,-1.6725484,9.888262114072553,2.111969814661751,left
28/07/2020, 18:03:47,1.1687696,-5.005591,8.447234,-0.70738167,-1.0299184,-1.606575,9.888262114072553,2.035240543003405,left
28/07/2020, 18:03:47,1.1687696,-5.005591,8.447234,-0.8820891,-0.9896013,-1.5137235,9.888262114072553,2.0121507685063627,left
28/07/2020, 18:03:47,1.1687696,-5.005591,8.447234,-1.086118,-1.0580182,-1.5735883,9.888262114072553,2.185231060380999,left
28/07/2020, 18:03:48,-2.8596535,-9.333391,-3.899092,13.788445,1.7629564,-0.44470972,10.511552082706281,13.907803941972388,left
28/07/2020, 18:03:48,-2.9219239,-6.7803006,-3.051255,13.788445,1.7629564,-0.44470972,7.988759139937438,13.907803941972388,left
28/07/2020, 18:03:48,-2.9219239,-6.7803006,-3.051255,12.157435,1.8435906,-0.58643043,7.988759139937438,12.310400600153326,left
28/07/2020, 18:03:48,-3.3051271,-4.040398,-2.076482,12.157435,1.8435906,-0.58643043,5.617869716156376,12.310400600153326,left
28/07/2020, 18:03:48,-3.3051271,-4.040398,-2.076482,10.443348,1.6542225,-0.7305946,5.617869716156376,10.598761082350867,left
28/07/2020, 18:03:48,-4.287085,-0.57001466,-1.5352076,10.443348,1.6542225,-0.7305946,4.589213162661553,10.598761082350867,left
28/07/2020, 18:03:48,-4.287085,-0.57001466,-1.5352076,9.0884495,1.4269806,-0.62063885,4.589213162661553,9.220703886924102,left
28/07/2020, 18:03:48,-4.744534,2.44292,0.13172609,9.0884495,1.4269806,-0.62063885,5.338146941135164,9.220703886924102,left
28/07/2020, 18:03:48,-4.744534,2.44292,0.13172609,8.291882,1.2510515,-0.43737936,5.338146941135164,8.397126323904903,left
28/07/2020, 18:03:48,-4.4834766,4.018843,2.8692336,8.291882,1.2510515,-0.43737936,6.669719988601464,8.397126323904903,left
28/07/2020, 18:03:48,-4.4834766,4.018843,2.8692336,7.638256,1.0494661,-0.53878295,6.669719988601464,7.7288176374531075,left
28/07/2020, 18:03:48,-4.3493557,3.2476466,4.160149,7.638256,1.0494661,-0.53878295,6.838928552225413,7.7288176374531075,left
28/07/2020, 18:03:48,-4.3493557,3.2476466,4.160149,6.8905573,0.87598044,-0.8307764,6.838928552225413,6.99552077376705,left
28/07/2020, 18:03:48,-4.1242237,1.4705421,4.84752,6.8905573,0.87598044,-0.8307764,6.5322403604224055,6.99552077376705,left
28/07/2020, 18:03:48,-4.1242237,1.4705421,4.84752,6.1074286,0.82833296,-1.1142178,6.5322403604224055,6.263249971733436,left
28/07/2020, 18:03:48,-4.2128396,-0.68976563,5.4534597,6.1074286,0.82833296,-1.1142178,6.925605914563933,6.263249971733436,left
28/07/2020, 18:03:48,-4.2128396,-0.68976563,5.4534597,5.5417676,0.86131966,-1.2815948,6.925605914563933,5.752872740781211,left
28/07/2020, 18:03:48,-4.1936793,-2.0333717,5.7001467,5.5417676,0.86131966,-1.2815948,7.3629626429033195,5.752872740781211,left
28/07/2020, 18:03:48,-4.1936793,-2.0333717,5.7001467,5.475794,0.8747587,-1.5442667,7.3629626429033195,5.756238409213626,left
28/07/2020, 18:03:48,-4.1170387,-2.5099807,6.8521514,5.475794,0.8747587,-1.5442667,8.378662757836466,5.756238409213626,left
28/07/2020, 18:03:48,-4.1170387,-2.5099807,6.8521514,5.7213616,1.0311401,-1.9058988,8.378662757836466,6.117979988335198,left
28/07/2020, 18:03:48,-4.2367897,-2.5243506,7.2664895,5.7213616,1.0311401,-1.9058988,8.782061426431762,6.117979988335198,left
28/07/2020, 18:03:48,-4.2367897,-2.5243506,7.2664895,6.17218,1.2559384,-2.2272139,8.782061426431762,6.680843583720139,left
28/07/2020, 18:03:48,-5.0989966,-1.6357985,6.5551686,6.17218,1.2559384,-2.2272139,8.464386514138889,6.680843583720139,left
28/07/2020, 18:03:48,-5.0989966,-1.6357985,6.5551686,6.5057125,1.434311,-2.483777,8.464386514138889,7.109900970083279,left
28/07/2020, 18:03:48,-6.4162574,0.15328126,5.894143,6.5057125,1.434311,-2.483777,8.713941522952572,7.109900970083279,left
28/07/2020, 18:03:48,-6.4162574,0.15328126,5.894143,6.4287434,1.5259408,-2.6560411,8.713941522952572,7.121221175969085,left
28/07/2020, 18:03:48,-8.028106,2.5962012,4.6654983,6.4287434,1.5259408,-2.6560411,9.641453016134223,7.121221175969085,left
28/07/2020, 18:03:48,-8.028106,2.5962012,4.6654983,6.1049848,1.3744463,-2.588846,9.641453016134223,6.772153640280348,left
28/07/2020, 18:03:48,-9.091495,3.9493873,4.782854,6.1049848,1.3744463,-2.588846,11.00584511207879,6.772153640280348,left
28/07/2020, 18:03:49,0.10777588,-6.320457,6.0114994,-0.26878062,-0.12461646,-0.855211,8.72341201554286,0.9050735720690237,left
28/07/2020, 18:03:49,-0.30895755,-6.476133,5.51094,-0.26878062,-0.12461646,-0.855211,8.509183992690321,0.9050735720690237,left
28/07/2020, 18:03:49,-0.30895755,-6.476133,5.51094,-0.35552344,0.05742131,-0.85765445,8.509183992690321,0.9301963669434626,left
28/07/2020, 18:03:49,-0.85023195,-6.332432,4.9505057,-0.35552344,0.05742131,-0.85765445,8.082703371656315,0.9301963669434626,left
28/07/2020, 18:03:49,-0.85023195,-6.332432,4.9505057,-0.398284,0.25167638,-0.8295547,8.082703371656315,0.9540084370716708,left
28/07/2020, 18:03:49,-1.3292359,-5.980364,4.033213,-0.398284,0.25167638,-0.8295547,7.334741171830394,0.9540084370716708,left
28/07/2020, 18:03:49,-1.3292359,-5.980364,4.033213,-0.5167918,0.40561438,-0.8136722,7.334741171830394,1.0457816370483959,left
28/07/2020, 18:03:49,-1.951941,-5.704937,3.4679885,-0.5167918,0.40561438,-0.8136722,6.955812235327646,1.0457816370483959,left
28/07/2020, 18:03:49,-1.951941,-5.704937,3.4679885,-0.6304127,0.44593146,-0.84421545,6.955812235327646,1.1441043532117163,left
28/07/2020, 18:03:49,-2.6033864,-5.4534597,3.6404297,-0.6304127,0.44593146,-0.84421545,7.054826188360111,1.1441043532117163,left
28/07/2020, 18:03:49,-2.6033864,-5.4534597,3.6404297,-0.6340779,0.37873632,-0.8979716,7.054826188360111,1.1626903848380388,left
28/07/2020, 18:03:49,-3.0967603,-5.489385,3.5901344,-0.6340779,0.37873632,-0.8979716,7.253436299757859,1.1626903848380388,left
28/07/2020, 18:03:49,-3.0967603,-5.489385,3.5901344,-0.5607741,0.2809979,-0.9065237,7.253436299757859,1.102366828943423,left
28/07/2020, 18:03:49,-3.4488282,-5.47741,3.8679566,-0.5607741,0.2809979,-0.9065237,7.54039277497722,1.102366828943423,left
28/07/2020, 18:03:49,-3.4488282,-5.47741,3.8679566,-0.47158778,0.2638937,-0.8466589,7.54039277497722,1.0044233079101763,left
28/07/2020, 18:03:49,-3.5853443,-5.2882032,3.7937112,-0.47158778,0.2638937,-0.8466589,7.430479924899799,1.0044233079101763,left
28/07/2020, 18:03:49,-3.5853443,-5.2882032,3.7937112,-0.47036606,0.30176732,-0.75991607,7.430479924899799,0.9432815991235358,left
28/07/2020, 18:03:49,-3.6955154,-5.087022,3.530259,-0.47036606,0.30176732,-0.75991607,7.210919009582158,0.9432815991235358,left
28/07/2020, 18:03:49,-3.6955154,-5.087022,3.530259,-0.5326743,0.33719748,-0.6792819,7.210919009582158,0.9267512892745807,left
28/07/2020, 18:03:49,-3.66438,-5.0678616,3.4799635,-0.5326743,0.33719748,-0.6792819,7.156888173731859,0.9267512892745807,left
28/07/2020, 18:03:49,-3.66438,-5.0678616,3.4799635,-0.60842156,0.3298671,-0.63896483,7.156888173731859,0.9419475336668733,left
28/07/2020, 18:03:49,-3.6068995,-5.415139,3.1494508,-0.60842156,0.3298671,-0.63896483,7.22858884903748,0.9419475336668733,left
28/07/2020, 18:03:49,-3.6068995,-5.415139,3.1494508,-0.83199817,0.23945908,-0.64018655,7.22858884903748,1.076754578650367,left
28/07/2020, 18:03:49,-3.1973512,-6.1240654,2.6776319,-0.83199817,0.23945908,-0.64018655,7.4092472067583985,1.076754578650367,left
28/07/2020, 18:03:49,-3.1973512,-6.1240654,2.6776319,-1.1239916,0.10018186,-0.6621777,7.4092472067583985,1.3083855793689823,left
28/07/2020, 18:03:49,-2.6057813,-7.0245924,3.0704153,-1.1239916,0.10018186,-0.6621777,8.097063943819473,1.3083855793689823,left
28/07/2020, 18:03:49,-2.6057813,-7.0245924,3.0704153,-1.290147,0.00488692,-0.6805036,8.097063943819473,1.4586254438560768,left
28/07/2020, 18:03:49,-2.0405567,-7.917935,3.4057178,-1.290147,0.00488692,-0.6805036,8.857566177390865,1.4586254438560768,left
28/07/2020, 18:03:49,-2.0405567,-7.917935,3.4057178,-1.293812,0.0073303804,-0.65362555,8.857566177390865,1.4495618914537207,left
28/07/2020, 18:03:49,-1.8034497,-8.619676,3.9757326,-1.293812,0.0073303804,-0.65362555,9.662178248369983,1.4495618914537207,left
28/07/2020, 18:03:50,0.2921924,-8.871153,6.375542,-0.14294241,-0.6316344,-2.0305152,10.92841560624301,2.1312875262726974,left
28/07/2020, 18:03:50,0.66342044,-8.909473,6.950347,-0.14294241,-0.6316344,-2.0305152,11.3192829262964,2.1312875262726974,left
28/07/2020, 18:03:50,0.66342044,-8.909473,6.950347,-0.25045466,-0.65729076,-2.0085242,11.3192829262964,2.1281278291378776,left
28/07/2020, 18:03:50,0.7041358,-9.024434,7.719148,-0.25045466,-0.65729076,-2.0085242,11.89627950789963,2.1281278291378776,left
28/07/2020, 18:03:50,0.7041358,-9.024434,7.719148,-0.27000234,-0.74159014,-2.0329587,11.89627950789963,2.1807747391502894,left
28/07/2020, 18:03:50,0.46942386,-8.751402,6.564749,-0.27000234,-0.74159014,-2.0329587,10.950037458049447,2.1807747391502894,left
28/07/2020, 18:03:50,0.46942386,-8.751402,6.564749,-0.3054325,-0.77213335,-1.92789,10.950037458049447,2.099104226727188,left
28/07/2020, 18:03:50,-0.62510014,-8.6627865,5.3289185,-0.3054325,-0.77213335,-1.92789,10.189798416296812,2.099104226727188,left
28/07/2020, 18:03:50,-0.62510014,-8.6627865,5.3289185,-0.34819305,-0.7892376,-1.9291117,10.189798416296812,2.113198155150906,left
28/07/2020, 18:03:50,-1.4058765,-8.768167,5.985154,-0.34819305,-0.7892376,-1.9291117,10.70884230499585,2.113198155150906,left
28/07/2020, 18:03:50,-1.4058765,-8.768167,5.985154,-0.24190255,-0.8222243,-2.013411,10.70884230499585,2.188239865388409,left
28/07/2020, 18:03:50,-1.5735279,-9.498648,5.249883,-0.24190255,-0.8222243,-2.013411,10.966383699227324,2.188239865388409,left
28/07/2020, 18:03:50,-1.5735279,-9.498648,5.249883,-0.21624622,-0.8491024,-2.1038191,10.966383699227324,2.2789892966538026,left
28/07/2020, 18:03:50,-1.3986914,-9.848321,6.559959,-0.21624622,-0.8491024,-2.1038191,11.915486756884514,2.2789892966538026,left
28/07/2020, 18:03:50,-1.3986914,-9.848321,6.559959,0.087964565,-0.86498487,-2.1514666,11.915486756884514,2.3205053663838795,left
28/07/2020, 18:03:50,-0.9436377,-10.32014,6.725215,0.087964565,-0.86498487,-2.1514666,12.354118974730401,2.3205053663838795,left
28/07/2020, 18:03:50,-0.9436377,-10.32014,6.725215,0.49480066,-0.79534626,-2.131919,12.354118974730401,2.3286222515340835,left
28/07/2020, 18:03:50,-0.65384036,-10.595567,7.326365,0.49480066,-0.79534626,-2.131919,12.89841718936866,2.3286222515340835,left
28/07/2020, 18:03:50,-0.65384036,-10.595567,7.326365,0.73792493,-0.74159014,-2.1392493,12.89841718936866,2.3813602877591933,left
28/07/2020, 18:03:50,-0.45026368,-10.111773,7.31918,0.73792493,-0.74159014,-2.1392493,12.490839734371324,2.3813602877591933,left
28/07/2020, 18:03:50,-0.45026368,-10.111773,7.31918,0.9871579,-0.7489205,-2.199114,12.490839734371324,2.524176173287091,left
28/07/2020, 18:03:50,-0.32332766,-9.433982,7.6329274,0.9871579,-0.7489205,-2.199114,12.13944546280509,2.524176173287091,left
28/07/2020, 18:03:50,-0.32332766,-9.433982,7.6329274,1.1056657,-0.7867941,-2.2369876,12.13944546280509,2.6164202801390783,left
28/07/2020, 18:03:50,-0.16765137,-8.698711,7.5395217,1.1056657,-0.7867941,-2.2369876,11.512605017851978,2.6164202801390783,left
28/07/2020, 18:03:50,-0.16765137,-8.698711,7.5395217,0.99082303,-0.7977897,-2.2492049,11.512605017851978,2.5840126232617906,left
28/07/2020, 18:03:50,0.08861572,-7.5035963,7.350315,0.99082303,-0.7977897,-2.2492049,10.504234491312351,2.5840126232617906,left
28/07/2020, 18:03:51,0.08861572,-7.5035963,7.350315,0.8368851,-0.8197808,-2.302961,10.504234491312351,2.5838047806170303,left
28/07/2020, 18:03:51,0.25147706,-6.720425,6.8425713,0.8368851,-0.8197808,-2.302961,9.594171983812627,2.5838047806170303,left
28/07/2020, 18:03:51,0.25147706,-6.720425,6.8425713,0.6255258,-0.8723152,-2.3677127,9.594171983812627,2.5996692001017205,left
28/07/2020, 18:03:51,0.5963599,-6.339617,6.964717,0.6255258,-0.8723152,-2.3677127,9.436825083453353,2.5996692001017205,left
28/07/2020, 18:03:51,0.5963599,-6.339617,6.964717,0.4105013,-0.9517277,-2.411695,9.436825083453353,2.6249894668385134,left
28/07/2020, 18:03:51,0.9412427,-6.5192432,7.472461,0.4105013,-0.9517277,-2.411695,9.961131811987558,2.6249894668385134,left
28/07/2020, 18:03:51,0.9412427,-6.5192432,7.472461,0.2651154,-1.0189228,-2.4312427,9.961131811987558,2.6494208711480325,left
28/07/2020, 18:03:51,1.334026,-6.6030693,7.951465,0.2651154,-1.0189228,-2.4312427,10.421417719110716,2.6494208711480325,left
28/07/2020, 18:03:51,1.334026,-6.6030693,7.951465,0.33108884,-1.0775659,-2.4715598,10.421417719110716,2.716500647796876,left
28/07/2020, 18:03:51,1.3699512,-6.7371902,8.224498,0.33108884,-1.0775659,-2.4715598,10.71955515973897,2.716500647796876,left
28/07/2020, 18:03:51,1.3699512,-6.7371902,8.224498,0.53511775,-1.1276568,-2.484999,10.71955515973897,2.780859694090627,left
28/07/2020, 18:03:51,1.1639795,-6.8808913,8.049661,0.53511775,-1.1276568,-2.484999,10.653569864297273,2.780859694090627,left
28/07/2020, 18:03:51,1.1639795,-6.8808913,8.049661,0.70982516,-1.163087,-2.4495687,10.653569864297273,2.8030358903023513,left
28/07/2020, 18:03:51,1.219065,-6.605464,7.5155716,0.70982516,-1.163087,-2.4495687,10.07978621575524,2.8030358903023513,left
28/07/2020, 18:03:51,1.219065,-6.605464,7.5155716,0.74281186,-1.1960737,-2.398256,10.07978621575524,2.7810058940342133,left
28/07/2020, 18:03:51,1.7507594,-5.961204,6.7755103,0.74281186,-1.1960737,-2.398256,9.19285875411822,2.7810058940342133,left
28/07/2020, 18:03:51,1.7507594,-5.961204,6.7755103,0.66095597,-1.2632688,-2.3774867,9.19285875411822,2.7722110232272783,left
28/07/2020, 18:03:51,2.692002,-5.503755,6.0019193,0.66095597,-1.2632688,-2.3774867,8.576784369349628,2.7722110232272783,left
28/07/2020, 18:03:51,2.692002,-5.503755,6.0019193,0.45570529,-1.3548986,-2.3725996,8.576784369349628,2.769954208532588,left
28/07/2020, 18:03:51,3.9206471,-5.257068,5.4989653,0.45570529,-1.3548986,-2.3725996,8.55843786022684,2.769954208532588,left
28/07/2020, 18:03:51,3.9206471,-5.257068,5.4989653,0.28710654,-1.452637,-2.3652694,8.55843786022684,2.7905346688356447,left
28/07/2020, 18:03:51,5.2283278,-5.3552637,5.4822,0.28710654,-1.452637,-2.3652694,9.277326064937716,2.7905346688356447,left
