DATE,TIME,ax,ay,az,gx,gy,gz,ma,mg,label
28/07/2020, 18:14:34,0.26105714,2.7135572,9.436378,-0.010995571,-0.058643043,0.00610865,9.822258627372795,0.05997686782585859,left
28/07/2020, 18:14:34,0.52690434,2.4860303,9.608819,-0.010995571,-0.058643043,0.00610865,9.939183958794363,0.05997686782585859,left
28/07/2020, 18:14:34,0.52690434,2.4860303,9.608819,-0.00610865,0.02321287,-0.01710422,9.939183958794363,0.02947384086395465,left
28/07/2020, 18:14:34,0.39278322,2.2896388,9.663904,-0.00610865,0.02321287,-0.01710422,9.939203614828907,0.02947384086395465,left
28/07/2020, 18:14:34,0.39278322,2.2896388,9.663904,-0.00488692,0.06352996,0.0036651902,9.939203614828907,0.06382297022107734,left
28/07/2020, 18:14:34,-0.10777588,2.5459058,9.498648,-0.00488692,0.06352996,0.0036651902,9.834508633556354,0.06382297022107734,left
28/07/2020, 18:14:34,-0.10777588,2.5459058,9.498648,-0.03909536,0.025656331,0.021991141,9.834508633556354,0.051674992607332194,left
28/07/2020, 18:14:34,-0.26105714,2.6177564,9.362132,-0.03909536,0.025656331,0.021991141,9.724727048460501,0.051674992607332194,left
28/07/2020, 18:14:34,-0.26105714,2.6177564,9.362132,-0.06475169,-0.03543017,0.03787363,9.724727048460501,0.08296077645724736,left
28/07/2020, 18:14:34,-0.06466553,2.3638844,9.501043,-0.06475169,-0.03543017,0.03787363,9.790911882063956,0.08296077645724736,left
28/07/2020, 18:14:34,-0.06466553,2.3638844,9.501043,-0.061086502,-0.04520401,0.06352996,9.790911882063956,0.0990505888207311,left
28/07/2020, 18:14:34,0.16286133,2.2465284,9.64714,-0.061086502,-0.04520401,0.06352996,9.906599572521078,0.0990505888207311,left
28/07/2020, 18:14:34,0.16286133,2.2465284,9.64714,-0.05375612,-0.00977384,0.08429937,9.906599572521078,0.10045711745440929,left
28/07/2020, 18:14:34,0.13891114,2.565066,9.596844,-0.05375612,-0.00977384,0.08429937,9.934700286113252,0.10045711745440929,left
28/07/2020, 18:14:34,0.13891114,2.565066,9.596844,-0.06352996,0.00977384,0.061086502,9.934700286113252,0.08867437392182567,left
28/07/2020, 18:14:34,0.06466553,2.6512868,9.575289,-0.06352996,0.00977384,0.061086502,9.935776699376575,0.08867437392182567,left
28/07/2020, 18:14:34,0.06466553,2.6512868,9.575289,-0.07086034,0.0073303804,0.029321522,9.935776699376575,0.07703683569921531,left
28/07/2020, 18:14:34,0.038320314,2.3423293,9.601634,-0.07086034,0.0073303804,0.029321522,9.883286436558238,0.07703683569921531,left
28/07/2020, 18:14:34,0.038320314,2.3423293,9.601634,-0.05742131,0.00488692,0.01954768,9.883286436558238,0.0608539303437581,left
28/07/2020, 18:14:34,-0.028740235,2.2058132,9.759705,-0.05742131,0.00488692,0.01954768,10.005911823554856,0.0608539303437581,left
28/07/2020, 18:14:34,-0.028740235,2.2058132,9.759705,-0.03909536,0.0036651902,0.0244346,10.005911823554856,0.04624857330229002,left
28/07/2020, 18:14:34,-0.026345216,2.3064039,9.72378,-0.03909536,0.0036651902,0.0244346,9.993602160363201,0.04624857330229002,left
28/07/2020, 18:14:34,-0.026345216,2.3064039,9.72378,-0.029321522,-0.00610865,0.01954768,9.993602160363201,0.03576561250594557,left
28/07/2020, 18:14:34,0.011975098,2.3902297,9.733359,-0.029321522,-0.00610865,0.01954768,10.022555832300906,0.03576561250594557,left
28/07/2020, 18:14:34,0.011975098,2.3902297,9.733359,-0.01588249,-0.00977384,0.01343903,10.022555832300906,0.02298671322647897,left
28/07/2020, 18:14:34,0.081430666,2.2728736,9.75731,-0.01588249,-0.00977384,0.01343903,10.018866317493,0.02298671322647897,left
28/07/2020, 18:14:34,0.081430666,2.2728736,9.75731,-0.0073303804,0.00122173,0.021991141,10.018866317493,0.023212871201777535,left
28/07/2020, 18:14:34,0.033530276,2.2944288,9.663904,-0.0073303804,0.00122173,0.021991141,9.932601477401601,0.023212871201777535,left
28/07/2020, 18:14:34,0.033530276,2.2944288,9.663904,-0.00855211,-0.0036651902,0.03543017,9.932601477401601,0.036631532727751735,left
28/07/2020, 18:14:34,-0.05508545,2.4069948,9.553733,-0.00855211,-0.0036651902,0.03543017,9.85243473758323,0.036631532727751735,left
28/07/2020, 18:14:35,0.11496094,1.8465601,9.235196,-0.4801399,-0.6499604,0.67195153,9.418696701388825,1.050952765824222,left
28/07/2020, 18:14:35,0.34967285,1.8058448,9.3453665,-0.4801399,-0.6499604,0.67195153,9.5246638310966,1.050952765824222,left
28/07/2020, 18:14:35,0.34967285,1.8058448,9.3453665,-0.51923525,-0.62308234,0.73792493,9.5246638310966,1.0965263598350419,left
28/07/2020, 18:14:35,0.26345217,1.8082398,9.438772,-0.51923525,-0.62308234,0.73792493,9.614029277968255,1.0965263598350419,left
28/07/2020, 18:14:35,0.26345217,1.8082398,9.438772,-0.5742131,-0.62063885,0.8344416,9.614029277968255,1.1879419330494687,left
28/07/2020, 18:14:35,0.019160157,1.8489552,9.342972,-0.5742131,-0.62063885,0.8344416,9.524186283515927,1.1879419330494687,left
28/07/2020, 18:14:35,0.019160157,1.8489552,9.342972,-0.66095597,-0.67317325,0.96150154,9.524186283515927,1.3470375719470935,left
28/07/2020, 18:14:35,0.05748047,1.9112257,9.244776,-0.66095597,-0.67317325,0.96150154,9.440443139350956,1.3470375719470935,left
28/07/2020, 18:14:35,0.05748047,1.9112257,9.244776,-0.77457684,-0.7342597,1.0934484,9.440443139350956,1.5279843039519865,left
28/07/2020, 18:14:35,-0.56522465,1.5567628,9.043594,-0.77457684,-0.7342597,1.0934484,9.19399740686426,1.5279843039519865,left
28/07/2020, 18:14:35,-0.56522465,1.5567628,9.043594,-0.86376315,-0.82711124,1.1484262,9.19399740686426,1.6580357280274907,left
28/07/2020, 18:14:35,-0.05508545,1.5998731,9.129815,-0.86376315,-0.82711124,1.1484262,9.269096613145617,1.6580357280274907,left
28/07/2020, 18:14:35,-0.05508545,1.5998731,9.129815,-0.87842387,-0.8906412,1.149648,9.269096613145617,1.6989881328505465,left
28/07/2020, 18:14:35,0.244292,1.4010864,9.340576,-0.87842387,-0.8906412,1.149648,9.4482318476031,1.6989881328505465,left
28/07/2020, 18:14:35,0.244292,1.4010864,9.340576,-0.86131966,-0.87842387,1.1789695,9.4482318476031,1.7039569070467495,left
28/07/2020, 18:14:35,1.2669654,1.3507911,9.460327,-0.86131966,-0.87842387,1.1789695,9.6398976986229,1.7039569070467495,left
28/07/2020, 18:14:35,1.2669654,1.3507911,9.460327,-0.77946377,-0.77213335,1.0763441,9.6398976986229,1.5369679137160248,left
28/07/2020, 18:14:35,1.9064356,1.0729688,9.766891,-0.77946377,-0.77213335,1.0763441,10.008891517393492,1.5369679137160248,left
28/07/2020, 18:14:35,1.9064356,1.0729688,9.766891,-0.5302308,-0.59986943,0.92973655,10.008891517393492,1.2269466642018185,left
28/07/2020, 18:14:35,1.8896705,0.84065187,9.70941,-0.5302308,-0.59986943,0.92973655,9.927244689283354,1.2269466642018185,left
28/07/2020, 18:14:35,1.8896705,0.84065187,9.70941,0.13927722,-0.47036606,0.75869435,9.927244689283354,0.9034708035411833,left
28/07/2020, 18:14:35,1.2837305,-0.100590825,9.522598,0.13927722,-0.47036606,0.75869435,9.609264294185664,0.9034708035411833,left
28/07/2020, 18:14:35,1.2837305,-0.100590825,9.522598,0.9859361,-0.3652973,0.57543486,9.609264294185664,1.1985980953804953,left
28/07/2020, 18:14:35,1.2837305,-0.100590825,9.522598,1.2730427,-0.14172068,0.6096433,9.609264294185664,1.4185863891253103,left
28/07/2020, 18:14:35,1.1927198,-0.91729254,9.455538,1.2730427,-0.14172068,0.6096433,9.574507881324688,1.4185863891253103,left
28/07/2020, 18:14:35,1.3172607,-0.13891114,9.060359,1.2730427,-0.14172068,0.6096433,9.156668466120074,1.4185863891253103,left
28/07/2020, 18:14:35,1.3172607,-0.13891114,9.060359,1.2730427,0.043982282,0.79168105,9.156668466120074,1.4997769801540592,left
28/07/2020, 18:14:35,1.3507911,1.2645704,8.660391,1.2730427,0.043982282,0.79168105,8.85585368627357,1.4997769801540592,left
28/07/2020, 18:14:35,1.3507911,1.2645704,8.660391,1.2302822,0.08185591,0.950506,8.85585368627357,1.5568417559598702,left
28/07/2020, 18:14:35,1.3244458,2.090852,8.238868,1.2302822,0.08185591,0.950506,8.602601986224956,1.5568417559598702,left
28/07/2020, 18:14:36,0.7161109,-1.6046631,8.265213,-0.7611378,-0.5766566,1.2339473,8.449941107336292,1.5602850442542229,left
28/07/2020, 18:14:36,0.5939649,-2.0621119,8.272398,-0.7611378,-0.5766566,1.2339473,8.546207823398534,1.5602850442542229,left
28/07/2020, 18:14:36,0.5939649,-2.0621119,8.272398,-0.7501422,-0.5949825,1.2278386,8.546207823398534,1.5570180605924346,left
28/07/2020, 18:14:36,0.6825806,-2.5291407,8.418494,-0.7501422,-0.5949825,1.2278386,8.816661159765548,1.5570180605924346,left
28/07/2020, 18:14:36,0.6825806,-2.5291407,8.418494,-0.6682863,-0.5791,1.2192866,8.816661159765548,1.5061949252691318,left
28/07/2020, 18:14:36,0.8813672,-2.802173,8.617281,-0.6682863,-0.5791,1.2192866,9.104202999444938,1.5061949252691318,left
28/07/2020, 18:14:36,0.8813672,-2.802173,8.617281,-0.53145254,-0.5143483,1.1777477,9.104202999444938,1.3907141001691397,left
28/07/2020, 18:14:36,1.2717555,-2.9099488,8.62207,-0.53145254,-0.5143483,1.1777477,9.188321967851165,1.3907141001691397,left
28/07/2020, 18:14:36,1.2717555,-2.9099488,8.62207,-0.39706227,-0.3909536,1.1032223,9.188321967851165,1.235962175938269,left
28/07/2020, 18:14:36,1.7890797,-2.7638526,8.413704,-0.39706227,-0.3909536,1.1032223,9.034937789117677,1.235962175938269,left
28/07/2020, 18:14:36,1.7890797,-2.7638526,8.413704,-0.29932386,-0.22846352,1.0152576,9.034937789117677,1.0828380938306108,left
28/07/2020, 18:14:36,2.3686745,-2.3926246,7.9873905,-0.29932386,-0.22846352,1.0152576,8.667968551631706,1.0828380938306108,left
28/07/2020, 18:14:36,2.3686745,-2.3926246,7.9873905,-0.22602005,-0.08185591,0.94928426,8.667968551631706,0.9792476968574567,left
28/07/2020, 18:14:36,2.572251,-1.8992506,7.6353226,-0.22602005,-0.08185591,0.94928426,8.27778831142656,0.9792476968574567,left
28/07/2020, 18:14:36,2.572251,-1.8992506,7.6353226,-0.14782934,0.021991141,0.94561905,8.27778831142656,0.9573570416464103,left
28/07/2020, 18:14:36,2.42376,-1.8609302,7.5035963,-0.14782934,0.021991141,0.94561905,8.101952294375366,0.9573570416464103,left
28/07/2020, 18:14:36,2.42376,-1.8609302,7.5035963,-0.01343903,0.05986477,1.0054839,8.101952294375366,1.0073540601786957,left
28/07/2020, 18:14:36,1.8776954,-2.0070264,7.838899,-0.01343903,0.05986477,1.0054839,8.306758389081525,1.0073540601786957,left
28/07/2020, 18:14:36,1.8776954,-2.0070264,7.838899,0.2797762,0.08429937,1.0812311,8.306758389081525,1.120018672572589,left
28/07/2020, 18:14:36,1.3124708,-2.5099807,8.452024,0.2797762,0.08429937,1.0812311,8.913994618622416,1.120018672572589,left
28/07/2020, 18:14:36,1.3124708,-2.5099807,8.452024,0.733038,0.13805549,1.12277,8.913994618622416,1.347967508544472,left
28/07/2020, 18:14:36,0.90052736,-2.938689,9.354947,0.733038,0.13805549,1.12277,9.846922239072427,1.347967508544472,left
28/07/2020, 18:14:36,0.90052736,-2.938689,9.354947,1.2840383,0.23945908,1.0800093,9.846922239072427,1.6948496094883154,left
28/07/2020, 18:14:36,0.7185059,-2.9746144,10.193204,1.2840383,0.23945908,1.0800093,10.642649470632083,1.6948496094883154,left
28/07/2020, 18:14:36,0.7185059,-2.9746144,10.193204,1.8448124,0.39339706,0.9920448,10.642649470632083,2.1312547743798396,left
28/07/2020, 18:14:36,0.74724615,-2.5363257,10.504556,1.8448124,0.39339706,0.9920448,10.832221163061124,2.1312547743798396,left
28/07/2020, 18:14:36,0.74724615,-2.5363257,10.504556,2.307848,0.5412264,0.9395104,10.832221163061124,2.5498564835537043,left
28/07/2020, 18:14:36,0.62031007,-1.7890797,10.3440895,2.307848,0.5412264,0.9395104,10.515977290917801,2.5498564835537043,left
28/07/2020, 18:14:36,0.62031007,-1.7890797,10.3440895,2.583959,0.6267475,0.950506,10.515977290917801,2.823671131990869,left
28/07/2020, 18:14:36,0.61073,-0.847837,10.013577,2.583959,0.6267475,0.950506,10.067946773090622,2.823671131990869,left
28/07/2020, 18:14:37,-1.0130934,-7.32876,10.296189,1.8558079,-0.0122173,-0.7819072,12.678667031819893,2.0138398884710593,left
28/07/2020, 18:14:37,-1.0059083,-6.0426345,10.504556,1.8558079,-0.0122173,-0.7819072,12.160220945985584,2.0138398884710593,left
28/07/2020, 18:14:37,-1.0059083,-6.0426345,10.504556,1.9669853,0.0977384,-0.91141057,12.160220945985584,2.170081419952993,left
28/07/2020, 18:14:37,-0.9484278,-5.247488,11.105706,1.9669853,0.0977384,-0.91141057,12.319592377840904,2.170081419952993,left
28/07/2020, 18:14:37,-0.9484278,-5.247488,11.105706,1.9743158,0.13194685,-1.0299184,12.319592377840904,2.2307094561114207,left
28/07/2020, 18:14:37,-1.1424243,-4.6822634,10.526112,1.9743158,0.13194685,-1.0299184,11.577035422115312,2.2307094561114207,left
28/07/2020, 18:14:37,-1.1424243,-4.6822634,10.526112,1.7653999,0.0073303804,-1.1325437,11.577035422115312,2.0974617640005815,left
28/07/2020, 18:14:37,-1.8441651,-4.4643164,10.609937,1.7653999,0.0073303804,-1.1325437,11.657693707609106,2.0974617640005815,left
28/07/2020, 18:14:37,-1.8441651,-4.4643164,10.609937,1.606575,-0.2076941,-1.1801912,11.657693707609106,2.0042632762955113,left
28/07/2020, 18:14:37,-2.6704469,-4.543352,11.088941,1.606575,-0.2076941,-1.1801912,12.277537991544753,2.0042632762955113,left
28/07/2020, 18:14:37,-2.6704469,-4.543352,11.088941,1.6090184,-0.3738494,-1.1423175,12.277537991544753,2.008380708823858,left
28/07/2020, 18:14:37,-2.7638526,-4.272715,11.896063,1.6090184,-0.3738494,-1.1423175,12.938751361034427,2.008380708823858,left
28/07/2020, 18:14:37,-2.7638526,-4.272715,11.896063,1.7702868,-0.35307997,-1.1056657,12.938751361034427,2.11685555047495,left
28/07/2020, 18:14:37,-2.3495142,-4.006868,11.558365,1.7702868,-0.35307997,-1.1056657,12.45676546581311,2.11685555047495,left
28/07/2020, 18:14:37,-2.3495142,-4.006868,11.558365,1.8044952,-0.30298904,-1.1337655,12.45676546581311,2.152540232948106,left
28/07/2020, 18:14:37,-2.5243506,-3.4871485,11.872112,1.8044952,-0.30298904,-1.1337655,12.628523304166466,2.152540232948106,left
28/07/2020, 18:14:37,-2.5243506,-3.4871485,11.872112,1.8521427,-0.26878062,-1.1239916,12.628523304166466,2.183124528614808,left
28/07/2020, 18:14:37,-2.196233,-2.9770093,11.148816,1.8521427,-0.26878062,-1.1239916,11.746579268743087,2.183124528614808,left
28/07/2020, 18:14:37,-2.196233,-2.9770093,11.148816,1.7702868,-0.33841923,-1.0470226,11.746579268743087,2.0843942066253054,left
28/07/2020, 18:14:37,-2.3902297,-2.3135889,11.029065,1.7702868,-0.33841923,-1.0470226,11.519816366572853,2.0843942066253054,left
28/07/2020, 18:14:37,-2.3902297,-2.3135889,11.029065,1.5955794,-0.47158778,-0.9175193,11.519816366572853,1.9000290053423012,left
28/07/2020, 18:14:37,-2.1052222,-1.9687061,11.251802,1.5955794,-0.47158778,-0.9175193,11.61511182454589,1.9000290053423012,left
28/07/2020, 18:14:37,-2.1052222,-1.9687061,11.251802,1.5198321,-0.52045697,-0.75869435,11.61511182454589,1.7766210320301123,left
28/07/2020, 18:14:37,-2.454895,-1.6166383,11.0123005,1.5198321,-0.52045697,-0.75869435,11.397841509269306,1.7766210320301123,left
28/07/2020, 18:14:37,-2.454895,-1.6166383,11.0123005,1.2730427,-0.57054794,-0.65484726,11.397841509269306,1.541099461952435,left
28/07/2020, 18:14:37,-3.1087356,-1.7315992,11.287727,1.2730427,-0.57054794,-0.65484726,11.835347966278288,1.541099461952435,left
28/07/2020, 18:14:37,-3.1087356,-1.7315992,11.287727,1.0433575,-0.57054794,-0.5571089,11.835347966278288,1.3131984268065084,left
28/07/2020, 18:14:37,-3.4631984,-1.8345851,10.262659,1.0433575,-0.57054794,-0.5571089,10.985518510617945,1.3131984268065084,left
28/07/2020, 18:14:37,-3.4631984,-1.8345851,10.262659,0.77457684,-0.6499604,-0.533896,10.985518510617945,1.1434433851311807,left
28/07/2020, 18:14:37,-3.5110989,-1.6597486,11.00751,0.77457684,-0.6499604,-0.533896,11.672525903079363,1.1434433851311807,left
28/07/2020, 18:14:38,1.1927198,0.30416748,-7.168294,0.3249802,-2.8674004,0.50579625,7.273206762734217,2.9297486374772532,left
28/07/2020, 18:14:38,1.1591895,-0.6825806,-7.4964113,0.3249802,-2.8674004,0.50579625,7.616155145763419,2.9297486374772532,left
28/07/2020, 18:14:38,1.1591895,-0.6825806,-7.4964113,0.4068361,-2.8820612,0.5632175,7.616155145763419,2.964625876988471,left
28/07/2020, 18:14:38,1.0490186,-1.6884888,-7.7478886,0.4068361,-2.8820612,0.5632175,7.998825654504075,2.964625876988471,left
28/07/2020, 18:14:38,1.0490186,-1.6884888,-7.7478886,0.53756124,-2.8722873,0.62186056,7.998825654504075,2.987593818799246,left
28/07/2020, 18:14:38,0.96040285,-2.3303542,-7.95865,0.53756124,-2.8722873,0.62186056,8.348235501966089,2.987593818799246,left
28/07/2020, 18:14:38,0.96040285,-2.3303542,-7.95865,0.61697364,-2.8527396,0.65240383,8.348235501966089,2.9907206988665997,left
28/07/2020, 18:14:38,0.6227051,-2.4692652,-9.211246,0.61697364,-2.8527396,0.65240383,9.556781713662971,2.9907206988665997,left
28/07/2020, 18:14:38,0.6227051,-2.4692652,-9.211246,0.5167918,-2.8185313,0.69272095,9.556781713662971,2.948059471389098,left
28/07/2020, 18:14:38,0.4143384,-1.3771362,-9.860296,0.5167918,-2.8185313,0.69272095,9.96461853965902,2.948059471389098,left
28/07/2020, 18:14:38,0.4143384,-1.3771362,-9.860296,0.37018418,-2.7867663,0.7501422,9.96461853965902,2.909607539422961,left
28/07/2020, 18:14:38,0.6394702,0.07903565,-10.626702,0.37018418,-2.7867663,0.7501422,10.64621861282541,2.909607539422961,left
28/07/2020, 18:14:38,0.6394702,0.07903565,-10.626702,0.15393798,-2.7635534,0.81122875,10.64621861282541,2.8842704934857646,left
28/07/2020, 18:14:38,1.223855,0.8047266,-11.958333,0.15393798,-2.7635534,0.81122875,12.047702458003657,2.8842704934857646,left
28/07/2020, 18:14:38,1.223855,0.8047266,-11.958333,-0.13072512,-2.7122407,0.8527676,12.047702458003657,2.84614672944981,left
28/07/2020, 18:14:38,1.698069,0.17004639,-13.519886,-0.13072512,-2.7122407,0.8527676,13.627166687597493,2.84614672944981,left
28/07/2020, 18:14:38,1.698069,0.17004639,-13.519886,-0.33964095,-2.6499324,0.8723152,13.627166687597493,2.8104148218729037,left
28/07/2020, 18:14:38,1.83219,-1.5256275,-15.004798,-0.33964095,-2.6499324,0.8723152,15.193038559341225,2.8104148218729037,left
28/07/2020, 18:14:38,1.83219,-1.5256275,-15.004798,-0.21991141,-2.5668547,0.8747587,15.193038559341225,2.720718099597759,left
28/07/2020, 18:14:38,1.951941,-3.2404616,-16.159197,-0.21991141,-2.5668547,0.8747587,16.596093154018263,2.720718099597759,left
28/07/2020, 18:14:38,1.951941,-3.2404616,-16.159197,0.19058989,-2.388482,0.87964565,16.596093154018263,2.5524395547078917,left
28/07/2020, 18:14:38,2.43813,-3.6236646,-16.274158,0.19058989,-2.388482,0.87964565,16.850034327528046,2.5524395547078917,left
28/07/2020, 18:14:38,2.43813,-3.6236646,-16.274158,0.82344604,-2.095267,0.8979716,16.850034327528046,2.423749235483638,left
28/07/2020, 18:14:38,3.06802,-2.8883936,-15.577208,0.82344604,-2.095267,0.8979716,16.13706790969685,2.423749235483638,left
28/07/2020, 18:14:38,3.06802,-2.8883936,-15.577208,1.470963,-1.7348566,0.91018885,16.13706790969685,2.4498782300910635,left
28/07/2020, 18:14:38,5.400769,-2.8141482,-15.064673,1.470963,-1.7348566,0.91018885,16.249065317810018,2.4498782300910635,left
28/07/2020, 18:14:38,5.400769,-2.8141482,-15.064673,2.0830498,-1.0250314,0.86865,16.249065317810018,2.4787776595838618,left
28/07/2020, 18:14:38,5.8917484,-1.7363893,-14.703026,2.0830498,-1.0250314,0.86865,15.934450585865271,2.4787776595838618,left
28/07/2020, 18:14:38,5.8917484,-1.7363893,-14.703026,2.7256796,0.09040802,1.1032223,15.934450585865271,2.941870565322229,left
28/07/2020, 18:14:38,16.300503,-4.6726832,-12.322376,2.7256796,0.09040802,1.1032223,20.961424472462603,2.941870565322229,left
28/07/2020, 18:14:39,-5.6187162,3.180586,8.775352,-0.8820891,0.2076941,-2.2870786,10.89462686363946,2.4600704441686045,left
28/07/2020, 18:14:39,-6.006709,3.2236965,7.8820095,-0.8820891,0.2076941,-2.2870786,10.42107705500728,2.4600704441686045,left
28/07/2020, 18:14:39,-6.006709,3.2236965,7.8820095,-1.2400559,0.1954768,-2.3542738,10.42107705500728,2.6680620247327114,left
28/07/2020, 18:14:39,-7.220984,3.0704153,7.7287283,-1.2400559,0.1954768,-2.3542738,11.013777761369726,2.6680620247327114,left
28/07/2020, 18:14:39,-7.220984,3.0704153,7.7287283,-1.606575,0.12705992,-2.4239123,11.013777761369726,2.9107693600539926,left
28/07/2020, 18:14:39,-7.690408,1.9351759,7.3096,-1.606575,0.12705992,-2.4239123,10.785060724993166,2.9107693600539926,left
28/07/2020, 18:14:39,-7.690408,1.9351759,7.3096,-2.0671673,0.047647472,-2.483777,10.785060724993166,3.2318105249355344,left
28/07/2020, 18:14:39,-7.8748245,0.70174074,7.5467067,-2.0671673,0.047647472,-2.483777,10.92968814798033,3.2318105249355344,left
28/07/2020, 18:14:39,-7.8748245,0.70174074,7.5467067,-2.1746795,-0.02076941,-2.5436418,10.92968814798033,3.346606640872672,left
28/07/2020, 18:14:39,-8.47837,-0.040715333,8.907078,-2.1746795,-0.02076941,-2.5436418,12.297172255056571,3.346606640872672,left
28/07/2020, 18:14:39,-8.47837,-0.040715333,8.907078,-1.9401072,-0.03176498,-2.5008814,12.297172255056571,3.1653487972354317,left
28/07/2020, 18:14:39,-9.211246,-0.7209009,10.128538,-1.9401072,-0.03176498,-2.5008814,13.70963263996195,3.1653487972354317,left
28/07/2020, 18:14:39,-9.211246,-0.7209009,10.128538,-1.4465283,0.04276055,-2.3909256,13.70963263996195,2.7947805059199027,left
28/07/2020, 18:14:39,-8.717872,-0.34488282,10.729688,-1.4465283,0.04276055,-2.3909256,13.829187556815686,2.7947805059199027,left
28/07/2020, 18:14:39,-8.717872,-0.34488282,10.729688,-0.9883796,0.13439031,-2.4886642,13.829187556815686,2.681119959463414,left
28/07/2020, 18:14:39,-7.436536,-0.06227051,10.480606,-0.9883796,0.13439031,-2.4886642,12.851032901328619,2.681119959463414,left
28/07/2020, 18:14:39,-7.436536,-0.06227051,10.480606,-0.5094614,0.20158546,-2.7684402,12.851032901328619,2.822135541801202,left
28/07/2020, 18:14:39,-7.185059,-1.7004639,10.7943535,-0.5094614,0.20158546,-2.7684402,13.07802425651414,2.822135541801202,left
28/07/2020, 18:14:39,-7.185059,-1.7004639,10.7943535,0.03543017,0.3420844,-2.9785779,13.07802425651414,2.998366732233037,left
28/07/2020, 18:14:39,-7.168294,-2.42376,10.3512745,0.03543017,0.3420844,-2.9785779,12.82216572986334,2.998366732233037,left
28/07/2020, 18:14:39,-7.168294,-2.42376,10.3512745,0.7990114,0.5766566,-3.1190767,12.82216572986334,3.271023033190011,left
28/07/2020, 18:14:39,-8.284373,-2.6417067,9.529783,0.7990114,0.5766566,-3.1190767,12.900628813560212,3.271023033190011,left
28/07/2020, 18:14:39,-8.284373,-2.6417067,9.529783,1.375668,0.7733551,-3.099529,12.900628813560212,3.478163441701051,left
28/07/2020, 18:14:39,-9.685459,-2.0190015,8.672366,1.375668,0.7733551,-3.099529,13.156535265467125,3.478163441701051,left
28/07/2020, 18:14:39,-9.685459,-2.0190015,8.672366,1.5564841,0.84299374,-2.9358172,13.156535265467125,3.4281633682465973,left
28/07/2020, 18:14:39,-11.091336,-0.32332766,8.01613,1.5564841,0.84299374,-2.9358172,13.688704392416154,3.4281633682465973,left
28/07/2020, 18:14:39,-11.091336,-0.32332766,8.01613,1.2657123,0.7770203,-2.7940965,13.688704392416154,3.164295043106022,left
28/07/2020, 18:14:39,-12.20502,0.61552006,8.150251,1.2657123,0.7770203,-2.7940965,14.689042672752755,3.164295043106022,left
28/07/2020, 18:14:39,-12.20502,0.61552006,8.150251,0.79168105,0.55222195,-2.6890278,14.689042672752755,2.8570226475302314,left
28/07/2020, 18:14:39,-12.846886,1.0011182,8.076006,0.79168105,0.55222195,-2.6890278,15.20745150227883,2.8570226475302314,left
28/07/2020, 18:14:40,-2.5291407,-1.8920655,11.539205,0.13316858,0.4508184,-0.00244346,11.963682853896952,0.47008197280188424,left
28/07/2020, 18:14:40,-2.5291407,-1.8920655,11.539205,0.16982047,0.40927956,-0.05742131,11.963682853896952,0.44681758488594847,left
28/07/2020, 18:14:40,-2.7830129,-1.8058448,11.452984,0.16982047,0.40927956,-0.05742131,11.923802883780953,0.44681758488594847,left
28/07/2020, 18:14:40,-2.7830129,-1.8058448,11.452984,0.09896013,0.3946188,-0.05619958,11.923802883780953,0.41070123574367695,left
28/07/2020, 18:14:40,-3.056045,-1.9830762,11.55118,0.09896013,0.3946188,-0.05619958,12.112050173683736,0.41070123574367695,left
28/07/2020, 18:14:40,-3.056045,-1.9830762,11.55118,0.0,0.41172302,-0.036651902,12.112050173683736,0.4133511887134432,left
28/07/2020, 18:14:40,-3.3218923,-2.0333717,11.378738,0.0,0.41172302,-0.036651902,12.026855626699556,0.4133511887134432,left
28/07/2020, 18:14:40,-3.3218923,-2.0333717,11.378738,0.02321287,0.37873632,0.0122173,12.026855626699556,0.37964364569226366,left
28/07/2020, 18:14:40,-3.7577858,-2.0190015,11.869718,0.02321287,0.37873632,0.0122173,12.612990008100597,0.37964364569226366,left
28/07/2020, 18:14:40,-3.7577858,-2.0190015,11.869718,0.199142,0.36407554,0.09896013,12.612990008100597,0.42661650383620153,left
28/07/2020, 18:14:40,-3.9661524,-1.7292042,12.19544,0.199142,0.36407554,0.09896013,12.940219322247351,0.42661650383620153,left
28/07/2020, 18:14:40,-3.9661524,-1.7292042,12.19544,0.4520401,0.4031709,0.20525065,12.940219322247351,0.6395427057932881,left
28/07/2020, 18:14:40,-3.906277,-1.583108,12.370276,0.4520401,0.4031709,0.20525065,13.068625398067539,0.6395427057932881,left
28/07/2020, 18:14:40,-3.906277,-1.583108,12.370276,0.7159338,0.43982282,0.20402892,13.068625398067539,0.8646578057277733,left
28/07/2020, 18:14:40,-3.9589674,-1.9998415,12.379856,0.7159338,0.43982282,0.20402892,13.150423049287093,0.8646578057277733,left
28/07/2020, 18:14:40,-3.9589674,-1.9998415,12.379856,0.8698718,0.41660994,0.0855211,13.150423049287093,0.9682740539012142,left
28/07/2020, 18:14:40,-4.164939,-2.687212,12.087664,0.8698718,0.41660994,0.0855211,13.064434050970423,0.9682740539012142,left
28/07/2020, 18:14:40,-4.164939,-2.687212,12.087664,0.9676102,0.33719748,-0.00610865,13.064434050970423,1.0246994286317535,left
28/07/2020, 18:14:40,-4.253555,-3.3123121,11.977493,0.9676102,0.33719748,-0.00610865,13.134857656474084,1.0246994286317535,left
28/07/2020, 18:14:40,-4.253555,-3.3123121,11.977493,1.1362089,0.22724178,0.01343903,13.134857656474084,1.158788195506998,left
28/07/2020, 18:14:40,-3.9589674,-3.67875,11.915223,1.1362089,0.22724178,0.01343903,13.083545663555181,1.158788195506998,left
28/07/2020, 18:14:40,-3.9589674,-3.67875,11.915223,1.3512334,0.116064355,0.08307764,13.083545663555181,1.3587510553086097,left
28/07/2020, 18:14:40,-3.2620168,-3.65959,11.773916,1.3512334,0.116064355,0.08307764,12.753762432025828,1.3587510553086097,left
28/07/2020, 18:14:40,-3.2620168,-3.65959,11.773916,1.5772535,0.058643043,0.095294945,12.753762432025828,1.581217446431542,left
28/07/2020, 18:14:40,-2.5099807,-3.0608351,11.60866,1.5772535,0.058643043,0.095294945,12.264978422947683,1.581217446431542,left
28/07/2020, 18:14:40,-2.5099807,-3.0608351,11.60866,1.7800606,0.06841688,0.00977384,12.264978422947683,1.781401782600958,left
28/07/2020, 18:14:40,-1.8848804,-2.3974147,11.64219,1.7800606,0.06841688,0.00977384,12.034988944720814,1.781401782600958,left
28/07/2020, 18:14:40,-1.8848804,-2.3974147,11.64219,2.0170763,0.23823735,-0.11850781,12.034988944720814,2.0345509948201896,left
28/07/2020, 18:14:40,-1.4226416,-1.6262183,11.278148,2.0170763,0.23823735,-0.11850781,11.483253490530872,2.0345509948201896,left
28/07/2020, 18:14:40,-1.4226416,-1.6262183,11.278148,2.204001,0.43982282,-0.21258102,11.483253490530872,2.257488647597079,left
28/07/2020, 18:14:41,-1.3483961,0.51013917,10.667418,-1.2412777,-2.1025975,-0.42271858,10.764395505163119,2.4779785025647443,left
28/07/2020, 18:14:41,-1.0849439,-0.3305127,10.403965,-1.2412777,-2.1025975,-0.42271858,10.465602206141961,2.4779785025647443,left
28/07/2020, 18:14:41,-1.0849439,-0.3305127,10.403965,-1.4123199,-2.3090696,-0.50701797,10.465602206141961,2.7538186741801445,left
28/07/2020, 18:14:41,-0.51013917,-0.94603276,10.789563,-1.4123199,-2.3090696,-0.50701797,10.842965164187246,2.7538186741801445,left
28/07/2020, 18:14:41,-0.51013917,-0.94603276,10.789563,-1.4440849,-2.3835952,-0.53878295,10.842965164187246,2.838519760751341,left
28/07/2020, 18:14:41,-0.35925296,-1.587898,11.081756,-1.4440849,-2.3835952,-0.53878295,11.200704925186793,2.838519760751341,left
28/07/2020, 18:14:41,-0.35925296,-1.587898,11.081756,-1.3842201,-2.3701563,-0.6951644,11.200704925186793,2.8314236169468305,left
28/07/2020, 18:14:41,0.41912845,-1.9878663,11.917618,-1.3842201,-2.3701563,-0.6951644,12.08953659113338,2.8314236169468305,left
28/07/2020, 18:14:41,0.41912845,-1.9878663,11.917618,-1.117883,-2.267531,-0.8833108,12.08953659113338,2.6779837103309743,left
28/07/2020, 18:14:41,0.8262818,-2.339934,11.508069,-1.117883,-2.267531,-0.8833108,11.772581969319099,2.6779837103309743,left
28/07/2020, 18:14:41,0.8262818,-2.339934,11.508069,-0.8002332,-2.0977104,-1.0067055,11.772581969319099,2.460532048281956,left
28/07/2020, 18:14:41,0.69216067,-2.430945,11.201507,-0.8002332,-2.0977104,-1.0067055,11.483132413607239,2.460532048281956,left
28/07/2020, 18:14:41,0.69216067,-2.430945,11.201507,-0.47403124,-1.9498811,-0.9065237,11.483132413607239,2.2019371146429427,left
28/07/2020, 18:14:41,0.5005591,-2.0525317,11.402688,-0.47403124,-1.9498811,-0.9065237,11.596755584669141,2.2019371146429427,left
28/07/2020, 18:14:41,0.5005591,-2.0525317,11.402688,-0.13683376,-1.896125,-0.8222243,11.596755584669141,2.071247490749373,left
28/07/2020, 18:14:41,0.37122804,-1.583108,10.851834,-0.13683376,-1.896125,-0.8222243,10.972982668653637,2.071247490749373,left
28/07/2020, 18:14:41,0.37122804,-1.583108,10.851834,0.13683376,-1.973094,-0.77946377,10.972982668653637,2.1258850209592723,left
28/07/2020, 18:14:41,-0.19639161,-1.0633887,11.388318,0.13683376,-1.973094,-0.77946377,11.439543412270053,2.1258850209592723,left
28/07/2020, 18:14:41,-0.19639161,-1.0633887,11.388318,0.23457217,-2.0647237,-0.67317325,11.439543412270053,2.18432378744461,left
28/07/2020, 18:14:41,-0.5963599,-0.8286768,10.590776,0.23457217,-2.0647237,-0.67317325,10.639872935709336,2.18432378744461,left
28/07/2020, 18:14:41,-0.5963599,-0.8286768,10.590776,0.21502449,-2.230879,-0.6316344,10.639872935709336,2.3285229181967613,left
28/07/2020, 18:14:41,0.06227051,-0.047900394,11.165582,0.21502449,-2.230879,-0.6316344,11.165858087704825,2.3285229181967613,left
28/07/2020, 18:14:41,0.06227051,-0.047900394,11.165582,0.12828165,-2.3640475,-0.6279692,11.165858087704825,2.44939221374988,left
28/07/2020, 18:14:41,0.45505372,0.20597169,11.261382,0.12828165,-2.3640475,-0.6279692,11.272454262073692,2.44939221374988,left
28/07/2020, 18:14:41,0.45505372,0.20597169,11.261382,0.08918629,-2.4251342,-0.6817254,11.272454262073692,2.5207101166520287,left
28/07/2020, 18:14:41,0.8765772,0.13172609,10.4638405,0.08918629,-2.4251342,-0.6817254,10.501318823569912,2.5207101166520287,left
28/07/2020, 18:14:41,0.8765772,0.13172609,10.4638405,-0.08918629,-2.483777,-0.76235956,10.501318823569912,2.599672038412794,left
28/07/2020, 18:14:41,0.4263135,-0.24668702,10.008787,-0.08918629,-2.483777,-0.76235956,10.020899061302966,2.599672038412794,left
28/07/2020, 18:14:41,0.4263135,-0.24668702,10.008787,-0.3335323,-2.6267195,-0.77213335,10.020899061302966,2.7580951592606637,left
28/07/2020, 18:14:41,0.098195806,-0.35925296,9.920172,-0.3335323,-2.6267195,-0.77213335,9.927160339700938,2.7580951592606637,left
28/07/2020, 18:14:42,5.4055595,0.5340894,-16.48971,2.0146327,0.23945908,-0.21013756,17.36133222089422,2.039667465586286,left
28/07/2020, 18:14:42,5.398374,-0.5891748,-16.281343,2.0146327,0.23945908,-0.21013756,17.163091636800036,2.039667465586286,left
28/07/2020, 18:14:42,5.398374,-0.5891748,-16.281343,2.0146327,0.3176498,-0.067195155,17.163091636800036,2.0406277257324357,left
28/07/2020, 18:14:42,5.010381,-1.5519727,-15.179634,2.0146327,0.3176498,-0.067195155,16.060318509587578,2.0406277257324357,left
28/07/2020, 18:14:42,5.010381,-1.5519727,-15.179634,1.9156727,0.4263838,0.27855444,16.060318509587578,1.9822203345777702,left
28/07/2020, 18:14:42,4.4379716,-2.1267774,-13.831239,1.9156727,0.4263838,0.27855444,14.680665491435823,1.9822203345777702,left
28/07/2020, 18:14:42,4.4379716,-2.1267774,-13.831239,1.8985685,0.58398694,0.53756124,14.680665491435823,2.057808353357538,left
28/07/2020, 18:14:42,3.9182522,-2.7015822,-11.54639,1.8985685,0.58398694,0.53756124,12.488809359219285,2.057808353357538,left
28/07/2020, 18:14:42,3.9182522,-2.7015822,-11.54639,2.05495,0.7208207,0.58643043,12.488809359219285,2.2552832782264782,left
28/07/2020, 18:14:42,3.0608351,-3.6116896,-9.448353,2.05495,0.7208207,0.58643043,10.568083273497574,2.2552832782264782,left
28/07/2020, 18:14:42,3.0608351,-3.6116896,-9.448353,2.349387,0.91141057,0.63774306,10.568083273497574,2.599423855715274,left
28/07/2020, 18:14:42,2.2489235,-4.28469,-6.183941,2.349387,0.91141057,0.63774306,7.852219403192155,2.599423855715274,left
28/07/2020, 18:14:42,2.2489235,-4.28469,-6.183941,2.883283,0.7867941,0.71837723,7.852219403192155,3.0738300417581677,left
28/07/2020, 18:14:42,1.3507911,-5.750442,-1.705254,2.883283,0.7867941,0.71837723,6.148179500345829,3.0738300417581677,left
28/07/2020, 18:14:42,1.3507911,-5.750442,-1.705254,3.5747821,0.37629285,1.0470226,6.148179500345829,3.7439177203653995,left
28/07/2020, 18:14:42,0.026345216,-5.49657,-3.2260914,3.5747821,0.37629285,1.0470226,6.373432565871673,3.7439177203653995,left
28/07/2020, 18:14:42,0.026345216,-5.49657,-3.2260914,4.069583,0.117286086,1.3109163,6.373432565871673,4.277120863645087,left
28/07/2020, 18:14:42,0.102985844,-4.380491,-4.878655,4.069583,0.117286086,1.3109163,6.5574827292440325,4.277120863645087,left
28/07/2020, 18:14:42,0.102985844,-4.380491,-4.878655,4.855155,0.23823735,1.2327256,6.5574827292440325,5.014867842571143,left
28/07/2020, 18:14:42,-0.2562671,-1.0657837,-7.438931,4.855155,0.23823735,1.2327256,7.5192594086259295,5.014867842571143,left
28/07/2020, 18:14:42,-0.2562671,-1.0657837,-7.438931,5.7445745,0.22113313,1.0152576,7.5192594086259295,5.837789356624798,left
28/07/2020, 18:14:42,0.011975098,-0.39278322,-9.175321,5.7445745,0.22113313,1.0152576,9.183731847220162,5.837789356624798,left
28/07/2020, 18:14:42,0.011975098,-0.39278322,-9.175321,5.933943,0.26633716,0.950506,9.183731847220162,6.015486196095382,left
28/07/2020, 18:14:42,-0.06706055,-0.6945557,-9.005274,5.933943,0.26633716,0.950506,9.03226778237271,6.015486196095382,left
28/07/2020, 18:14:42,-0.06706055,-0.6945557,-9.005274,5.3120823,0.41294473,1.0604616,9.03226778237271,5.4326163592434815,left
28/07/2020, 18:14:42,0.035925295,-0.7424561,-9.340576,5.3120823,0.41294473,1.0604616,9.370106449661055,5.4326163592434815,left
28/07/2020, 18:14:42,0.035925295,-0.7424561,-9.340576,4.453206,0.43371415,1.4098765,9.370106449661055,4.691151654697892,left
28/07/2020, 18:14:42,-0.46463382,-1.468147,-10.37283,4.453206,0.43371415,1.4098765,10.48651279679281,4.691151654697892,left
28/07/2020, 18:14:42,-0.46463382,-1.468147,-10.37283,3.8765495,0.24434601,2.0158546,10.48651279679281,4.376186766714907,left
28/07/2020, 18:14:42,-0.100590825,-2.6393116,-10.5764065,3.8765495,0.24434601,2.0158546,10.901213601677417,4.376186766714907,left
28/07/2020, 18:14:43,-10.114168,0.10777588,3.7625759,-1.6566659,0.47036606,-2.50699,10.791894666447504,3.0415102900675737,left
28/07/2020, 18:14:43,-9.405242,0.6514453,4.2272096,-1.6566659,0.47036606,-2.50699,10.33209844090627,3.0415102900675737,left
28/07/2020, 18:14:43,-9.405242,0.6514453,4.2272096,-1.529606,0.6499604,-2.5864024,10.33209844090627,3.0743487842002772,left
28/07/2020, 18:14:43,-9.690249,0.7448511,4.1888895,-1.529606,0.6499604,-2.5864024,10.583124903380913,3.0743487842002772,left
28/07/2020, 18:14:43,-9.690249,0.7448511,4.1888895,-1.4941758,0.719599,-2.6010633,10.583124903380913,3.0847875239671727,left
28/07/2020, 18:14:43,-10.023157,0.55324954,5.295388,-1.4941758,0.719599,-2.6010633,11.349488980451993,3.0847875239671727,left
28/07/2020, 18:14:43,-10.023157,0.55324954,5.295388,-1.6139053,0.74647707,-2.580294,11.349488980451993,3.1336615870888145,left
28/07/2020, 18:14:43,-9.623189,0.5221143,5.9540186,-1.6139053,0.74647707,-2.580294,11.328226106583303,3.1336615870888145,left
28/07/2020, 18:14:43,-9.623189,0.5221143,5.9540186,-1.9120075,0.7342597,-2.547307,11.328226106583303,3.268590347846923,left
28/07/2020, 18:14:43,-10.015972,0.28979737,6.0043144,-1.9120075,0.7342597,-2.547307,11.68141567006655,3.268590347846923,left
28/07/2020, 18:14:43,-10.015972,0.28979737,6.0043144,-2.4251342,0.77457684,-2.4678946,11.68141567006655,3.545666173840037,left
28/07/2020, 18:14:43,-9.263936,-0.16525635,5.9324636,-2.4251342,0.77457684,-2.4678946,11.001906451919446,3.545666173840037,left
28/07/2020, 18:14:43,-9.263936,-0.16525635,5.9324636,-3.045773,0.86865,-2.4178038,11.001906451919446,3.984603022241069,left
28/07/2020, 18:14:43,-8.907078,-0.24189699,7.30481,-3.045773,0.86865,-2.4178038,11.52192686671805,3.984603022241069,left
28/07/2020, 18:14:43,-8.907078,-0.24189699,7.30481,-3.5271347,0.9480625,-2.3933692,11.52192686671805,4.366659761210144,left
28/07/2020, 18:14:43,-8.250843,-0.859812,7.391031,-3.5271347,0.9480625,-2.3933692,11.110491610707472,4.366659761210144,left
28/07/2020, 18:14:43,-8.250843,-0.859812,7.391031,-4.24429,0.8527676,-2.3603823,11.110491610707472,4.930782269548955,left
28/07/2020, 18:14:43,-8.267608,-1.5567628,8.861572,-4.24429,0.8527676,-2.3603823,12.21901429646407,4.930782269548955,left
28/07/2020, 18:14:43,-8.267608,-1.5567628,8.861572,-4.9284587,0.6585125,-2.4019213,12.21901429646407,5.522007745452284,left
28/07/2020, 18:14:43,-7.654483,-2.3375392,9.829161,-4.9284587,0.6585125,-2.4019213,12.67547225705942,5.522007745452284,left
28/07/2020, 18:14:43,-7.654483,-2.3375392,9.829161,-5.335295,0.38973188,-2.4483469,12.67547225705942,5.88316820515216,left
28/07/2020, 18:14:43,-7.932305,-4.3493557,11.757152,-5.335295,0.38973188,-2.4483469,14.834721743111778,5.88316820515216,left
28/07/2020, 18:14:43,-7.932305,-4.3493557,11.757152,-5.1972394,0.06352996,-2.444682,14.834721743111778,5.743849139241018,left
28/07/2020, 18:14:43,-8.674761,-6.976692,12.897181,-5.1972394,0.06352996,-2.444682,17.037105846758315,5.743849139241018,left
28/07/2020, 18:14:43,-8.674761,-6.976692,12.897181,-4.339585,-0.10751224,-2.4776685,17.037105846758315,4.9982393570723955,left
28/07/2020, 18:14:43,-8.51669,-9.927357,14.362933,-4.339585,-0.10751224,-2.4776685,19.426277905404945,4.9982393570723955,left
28/07/2020, 18:14:43,-8.51669,-9.927357,14.362933,-2.8527396,-0.03543017,-2.7391188,19.426277905404945,3.955015833775306,left
28/07/2020, 18:14:43,-8.425679,-11.797867,15.799945,-2.8527396,-0.03543017,-2.7391188,21.443413668666643,3.955015833775306,left
28/07/2020, 18:14:43,-8.425679,-11.797867,15.799945,-0.94928426,0.3249802,-3.0812032,21.443413668666643,3.240457687529116,left
28/07/2020, 18:14:43,-8.504715,-11.706856,15.1484995,-0.94928426,0.3249802,-3.0812032,20.948930414807514,3.240457687529116,left
28/07/2020, 18:14:44,-3.4799635,-5.245093,9.292676,1.4990628,-0.2809979,-0.13194685,11.22385727678312,1.5308687074637186,left
28/07/2020, 18:14:44,-3.3602126,-4.897815,9.347761,1.4990628,-0.2809979,-0.13194685,11.075209301711876,1.5308687074637186,left
28/07/2020, 18:14:44,-3.3602126,-4.897815,9.347761,1.6273444,-0.22602005,-0.18570296,11.075209301711876,1.653426851621577,left
28/07/2020, 18:14:44,-3.4584084,-4.8571,9.285491,1.6273444,-0.22602005,-0.18570296,11.035051054740737,1.653426851621577,left
28/07/2020, 18:14:44,-3.4584084,-4.8571,9.285491,1.7092003,-0.21013756,-0.21380275,11.035051054740737,1.7352910279376113,left
28/07/2020, 18:14:44,-3.5039136,-4.751719,9.295072,1.7092003,-0.21013756,-0.21380275,11.011566660688832,1.7352910279376113,left
28/07/2020, 18:14:44,-3.5039136,-4.751719,9.295072,1.7666216,-0.21135929,-0.21258102,11.011566660688832,1.791874795589013,left
28/07/2020, 18:14:44,-3.4967287,-4.4188113,9.477093,1.7666216,-0.21135929,-0.21258102,11.025801180104565,1.791874795589013,left
28/07/2020, 18:14:44,-3.4967287,-4.4188113,9.477093,1.8154908,-0.19792026,-0.21624622,11.025801180104565,1.8390056698956212,left
28/07/2020, 18:14:44,-3.1997461,-4.054768,9.438772,1.8154908,-0.19792026,-0.21624622,10.759644055829298,1.8390056698956212,left
28/07/2020, 18:14:44,-3.1997461,-4.054768,9.438772,1.8448124,-0.16371182,-0.25900677,10.759644055829298,1.870085246959144,left
28/07/2020, 18:14:44,-3.3242872,-3.7649708,9.158555,1.8448124,-0.16371182,-0.25900677,10.445334865473882,1.870085246959144,left
28/07/2020, 18:14:44,-3.3242872,-3.7649708,9.158555,1.8289299,-0.16982047,-0.32253674,10.445334865473882,1.8649004055642595,left
28/07/2020, 18:14:44,-3.7003052,-3.5015187,9.026829,1.8289299,-0.16982047,-0.32253674,10.365159415373048,1.8649004055642595,left
28/07/2020, 18:14:44,-3.7003052,-3.5015187,9.026829,1.8301516,-0.22724178,-0.33964095,10.365159415373048,1.8752198604875034,left
28/07/2020, 18:14:44,-3.7625759,-3.1111305,8.959768,1.8301516,-0.22724178,-0.33964095,10.20360514143148,1.8752198604875034,left
28/07/2020, 18:14:44,-3.7625759,-3.1111305,8.959768,1.7922779,-0.3090977,-0.35307997,10.20360514143148,1.852691838183928,left
28/07/2020, 18:14:44,-3.5254688,-2.6441016,8.938213,1.7922779,-0.3090977,-0.35307997,9.96553368776064,1.852691838183928,left
28/07/2020, 18:14:44,-3.5254688,-2.6441016,8.938213,1.728748,-0.35430172,-0.39706227,9.96553368776064,1.8088000662934052,left
28/07/2020, 18:14:44,-3.3338673,-2.2177882,8.751402,1.728748,-0.35430172,-0.39706227,9.62394363418633,1.8088000662934052,left
28/07/2020, 18:14:44,-3.3338673,-2.2177882,8.751402,1.5735883,-0.3579669,-0.39217535,9.62394363418633,1.6607594018821255,left
28/07/2020, 18:14:44,-3.439248,-1.5663428,8.538245,1.5735883,-0.3579669,-0.39217535,9.3372098813175,1.6607594018821255,left
28/07/2020, 18:14:44,-3.439248,-1.5663428,8.538245,1.3231336,-0.36896247,-0.30665424,9.3372098813175,1.4074276602644715,left
28/07/2020, 18:14:44,-3.647615,-1.219065,8.435259,1.3231336,-0.36896247,-0.30665424,9.270642175529849,1.4074276602644715,left
28/07/2020, 18:14:44,-3.647615,-1.219065,8.435259,1.091005,-0.443488,-0.22357659,9.270642175529849,1.1987326386929802,left
28/07/2020, 18:14:44,-3.9134622,-1.0250684,8.749006,1.091005,-0.443488,-0.22357659,9.639038440594385,1.1987326386929802,left
28/07/2020, 18:14:44,-3.9134622,-1.0250684,8.749006,0.89308465,-0.5448916,-0.20525065,9.639038440594385,1.0661307914260953,left
28/07/2020, 18:14:44,-4.181704,-1.0418335,8.883128,0.89308465,-0.5448916,-0.20525065,9.87329893271956,1.0661307914260953,left
28/07/2020, 18:14:44,-4.181704,-1.0418335,8.883128,0.6340779,-0.6145302,-0.18936816,9.87329893271956,0.9030849710204906,left
28/07/2020, 18:14:44,-4.4403663,-1.2454102,8.875943,0.6340779,-0.6145302,-0.18936816,10.002513013001236,0.9030849710204906,left
28/07/2020, 18:14:45,-2.0357666,-1.1903248,12.976216,-1.0836746,-1.896125,0.36774075,13.18876069353187,2.2146949338437385,left
28/07/2020, 18:14:45,-1.7699195,-1.6645386,12.755875,-1.0836746,-1.896125,0.36774075,12.98520856918011,2.2146949338437385,left
28/07/2020, 18:14:45,-1.7699195,-1.6645386,12.755875,-0.94928426,-2.013411,0.3408627,12.98520856918011,2.2519218477928784,left
28/07/2020, 18:14:45,-1.0202783,-1.6453785,12.657679,-0.94928426,-2.013411,0.3408627,12.804884452284723,2.2519218477928784,left
28/07/2020, 18:14:45,-1.0202783,-1.6453785,12.657679,-0.84299374,-2.117258,0.29321522,12.804884452284723,2.2976934836564165,left
28/07/2020, 18:14:45,-0.7951465,-1.6262183,11.735597,-0.84299374,-2.117258,0.29321522,11.874387264528773,2.2976934836564165,left
28/07/2020, 18:14:45,-0.7951465,-1.6262183,11.735597,-0.77213335,-2.2467616,0.22724178,11.874387264528773,2.386580450933014,left
28/07/2020, 18:14:45,-0.6658155,-1.7962648,12.3559065,-0.77213335,-2.2467616,0.22724178,12.50353159961044,2.386580450933014,left
28/07/2020, 18:14:45,-0.6658155,-1.7962648,12.3559065,-0.5668827,-2.3188436,0.12583819,12.50353159961044,2.390444924062935,left
28/07/2020, 18:14:45,-0.62031007,-1.8202149,10.971585,-0.5668827,-2.3188436,0.12583819,11.138835224736635,2.390444924062935,left
28/07/2020, 18:14:45,-0.62031007,-1.8202149,10.971585,-0.47891816,-2.3945909,-0.030543251,11.138835224736635,2.4422040987731917,left
28/07/2020, 18:14:45,-0.43349856,-1.698069,11.263778,-0.47891816,-2.3945909,-0.030543251,11.399300332317248,2.4422040987731917,left
28/07/2020, 18:14:45,-0.43349856,-1.698069,11.263778,-0.3824015,-2.4483469,-0.15271625,11.399300332317248,2.4827314536418013,left
28/07/2020, 18:14:45,-0.60594,-1.6525636,11.0123005,-0.3824015,-2.4483469,-0.15271625,11.15208015283618,2.4827314536418013,left
28/07/2020, 18:14:45,-0.60594,-1.6525636,11.0123005,-0.28955,-2.4691164,-0.1710422,11.15208015283618,2.491913056709054,left
28/07/2020, 18:14:45,-0.60833496,-0.96758795,10.847044,-0.28955,-2.4691164,-0.1710422,10.907092243271391,2.491913056709054,left
28/07/2020, 18:14:45,-0.60833496,-0.96758795,10.847044,-0.24190255,-2.5106552,-0.095294945,10.907092243271391,2.5240814812487753,left
28/07/2020, 18:14:45,-0.043110352,0.24189699,10.3393,-0.24190255,-2.5106552,-0.095294945,10.342219315174159,2.5240814812487753,left
28/07/2020, 18:14:45,-0.043110352,0.24189699,10.3393,-0.30298904,-2.5363116,-0.07941245,10.342219315174159,2.5555792611265207,left
28/07/2020, 18:14:45,0.07424561,1.3723463,10.6746025,-0.30298904,-2.5363116,-0.07941245,10.762712736279552,2.5555792611265207,left
28/07/2020, 18:14:45,0.07424561,1.3723463,10.6746025,-0.366519,-2.4801118,-0.11117743,10.762712736279552,2.509512169159904,left
28/07/2020, 18:14:45,-0.72569096,1.5639478,11.414663,-0.366519,-2.4801118,-0.11117743,11.544136982580133,2.509512169159904,left
28/07/2020, 18:14:45,-0.72569096,1.5639478,11.414663,-0.43371415,-2.4605644,-0.21135929,11.544136982580133,2.507420538856901,left
28/07/2020, 18:14:45,-1.092129,1.346001,11.048225,-0.43371415,-2.4605644,-0.21135929,11.183369307021676,2.507420538856901,left
28/07/2020, 18:14:45,-1.092129,1.346001,11.048225,-0.5009093,-2.5546374,-0.35552344,11.183369307021676,2.6274473313959086,left
28/07/2020, 18:14:45,-1.5376027,1.0466236,10.35367,-0.5009093,-2.5546374,-0.35552344,10.51941670637025,2.6274473313959086,left
28/07/2020, 18:14:45,-1.5376027,1.0466236,10.35367,-0.70249474,-2.6083937,-0.1747074,10.51941670637025,2.7069796948651907,left
28/07/2020, 18:14:45,-1.1687696,1.1400293,10.423125,-0.70249474,-2.6083937,-0.1747074,10.550224146232633,2.7069796948651907,left
28/07/2020, 18:14:45,-1.1687696,1.1400293,10.423125,-0.9028585,-2.5240943,-0.102625325,10.550224146232633,2.682673605561806,left
28/07/2020, 18:14:45,0.014370117,1.0514137,9.395662,-0.9028585,-2.5240943,-0.102625325,9.45431898001416,2.682673605561806,left
28/07/2020, 18:14:46,3.0728102,-0.80233157,-17.373472,-1.7128655,-0.34330612,0.65362555,17.661354281718594,1.8652060412701899,left
28/07/2020, 18:14:46,2.1579127,-3.2739918,-17.79739,-1.7128655,-0.34330612,0.65362555,18.22423386759912,1.8652060412701899,left
28/07/2020, 18:14:46,2.1579127,-3.2739918,-17.79739,-2.2088878,-0.23701562,0.8161157,18.22423386759912,2.3667290897455167,left
28/07/2020, 18:14:46,1.9663111,-4.854705,-16.219072,-2.2088878,-0.23701562,0.8161157,17.043850686112513,2.3667290897455167,left
28/07/2020, 18:14:46,1.9663111,-4.854705,-16.219072,-2.1685708,-0.35674515,0.79412454,17.043850686112513,2.3367926787057525,left
28/07/2020, 18:14:46,1.9926564,-5.269043,-13.395345,-2.1685708,-0.35674515,0.79412454,14.531646626728605,2.3367926787057525,left
28/07/2020, 18:14:46,1.9926564,-5.269043,-13.395345,-1.6762136,-0.6145302,0.5925391,14.531646626728605,1.8810747014755629,left
28/07/2020, 18:14:46,1.8513502,-5.886958,-10.435101,-1.6762136,-0.6145302,0.5925391,12.123328629318088,1.8810747014755629,left
28/07/2020, 18:14:46,1.8513502,-5.886958,-10.435101,-1.12277,-0.80878526,0.35307997,12.123328629318088,1.4280796299775393,left
28/07/2020, 18:14:46,2.42855,-6.8832865,-8.202942,-1.12277,-0.80878526,0.35307997,10.980243329006388,1.4280796299775393,left
28/07/2020, 18:14:46,2.42855,-6.8832865,-8.202942,-0.62063885,-0.8466589,0.16126837,10.980243329006388,1.0620881949425642,left
28/07/2020, 18:14:46,2.7087672,-7.6377177,-6.940767,-0.62063885,-0.8466589,0.16126837,10.669882640919548,1.0620881949425642,left
28/07/2020, 18:14:46,2.7087672,-7.6377177,-6.940767,0.07941245,-0.6780602,0.15027279,10.669882640919548,0.6990378012802286,left
28/07/2020, 18:14:46,2.794988,-7.2257743,-5.230723,0.07941245,-0.6780602,0.15027279,9.34795344554847,0.6990378012802286,left
28/07/2020, 18:14:46,2.794988,-7.2257743,-5.230723,1.3316858,-0.44226626,0.3494148,9.34795344554847,1.4460557253649546,left
28/07/2020, 18:14:46,3.293152,-6.0306597,-6.2581863,1.3316858,-0.44226626,0.3494148,9.294008990025695,1.4460557253649546,left
28/07/2020, 18:14:46,3.293152,-6.0306597,-6.2581863,2.3738215,-0.31031942,0.6646211,9.294008990025695,2.4845619071181164,left
28/07/2020, 18:14:46,4.5529323,-4.1002736,-6.976692,2.3738215,-0.31031942,0.6646211,9.285239356399439,2.4845619071181164,left
28/07/2020, 18:14:46,4.5529323,-4.1002736,-6.976692,2.8002052,-0.44593146,0.8503241,9.285239356399439,2.9602458124999105,left
28/07/2020, 18:14:46,3.547024,-1.7842896,-7.5299416,2.8002052,-0.44593146,0.8503241,8.512642867503365,2.9602458124999105,left
28/07/2020, 18:14:46,3.547024,-1.7842896,-7.5299416,2.7024667,-0.080634184,0.62308234,8.512642867503365,2.774537777821628,left
28/07/2020, 18:14:46,0.6490503,-1.5088624,-10.566827,2.7024667,-0.080634184,0.62308234,10.693725310106604,2.774537777821628,left
28/07/2020, 18:14:46,0.6490503,-1.5088624,-10.566827,2.86007,0.32009327,0.6780602,10.693725310106604,2.956725494916053,left
28/07/2020, 18:14:46,1.6549586,1.0106983,-10.41594,2.86007,0.32009327,0.6780602,10.594914397616513,2.956725494916053,left
28/07/2020, 18:14:46,1.6549586,1.0106983,-10.41594,3.4049616,0.4312707,0.7892376,10.594914397616513,3.5217401703547884,left
28/07/2020, 18:14:46,0.53169435,2.5890162,-11.452984,3.4049616,0.4312707,0.7892376,11.754001147451191,3.5217401703547884,left
28/07/2020, 18:14:46,0.53169435,2.5890162,-11.452984,3.6187644,0.398284,0.80756354,11.754001147451191,3.7291077750559154,left
28/07/2020, 18:14:46,1.4753321,2.069297,-10.425521,3.6187644,0.398284,0.80756354,10.730800589131624,3.7291077750559154,left
28/07/2020, 18:14:46,1.4753321,2.069297,-10.425521,3.1508417,0.48747027,0.8295547,10.730800589131624,3.2944789763453723,left
28/07/2020, 18:14:46,-1.5399976,1.101709,-10.219549,3.1508417,0.48747027,0.8295547,10.393485493403238,3.2944789763453723,left
28/07/2020, 18:14:47,-10.236314,-7.460486,5.8342676,-2.2333224,1.92789,-2.502103,13.945596065673834,3.8684633084775473,left
28/07/2020, 18:14:47,-10.957214,-7.2808595,6.844966,-2.2333224,1.92789,-2.502103,14.829869173626054,3.8684633084775473,left
28/07/2020, 18:14:47,-10.957214,-7.2808595,6.844966,-2.1600187,1.8264863,-2.3237305,14.829869173626054,3.6607999649706455,left
28/07/2020, 18:14:47,-11.469749,-7.3838453,7.807764,-2.1600187,1.8264863,-2.3237305,15.7174267557052,3.6607999649706455,left
28/07/2020, 18:14:47,-11.469749,-7.3838453,7.807764,-1.9633201,1.7763954,-2.1050408,15.7174267557052,3.382514366295452,left
28/07/2020, 18:14:47,-10.133328,-7.2521195,8.236472,-1.9633201,1.7763954,-2.1050408,14.937103340780494,3.382514366295452,left
28/07/2020, 18:14:47,-10.133328,-7.2521195,8.236472,-1.6908743,1.7263045,-2.1624622,14.937103340780494,3.242749801808305,left
28/07/2020, 18:14:47,-9.187295,-8.296348,8.571775,-1.6908743,1.7263045,-2.1624622,15.056928857338164,3.242749801808305,left
28/07/2020, 18:14:47,-9.187295,-8.296348,8.571775,-1.6126837,1.7116438,-2.2333224,15.056928857338164,3.2431777593472586,left
28/07/2020, 18:14:47,-9.424402,-8.729847,9.316627,-1.6126837,1.7116438,-2.2333224,15.869124601536837,3.2431777593472586,left
28/07/2020, 18:14:47,-9.424402,-8.729847,9.316627,-1.3915505,1.8435906,-2.1013756,15.869124601536837,3.1226621013523617,left
28/07/2020, 18:14:47,-9.24717,-8.459209,8.923843,-1.3915505,1.8435906,-2.1013756,15.385167091206267,3.1226621013523617,left
28/07/2020, 18:14:47,-9.24717,-8.459209,8.923843,-1.1569784,1.9547681,-2.0060806,15.385167091206267,3.0305241468056,left
28/07/2020, 18:14:47,-9.474698,-7.6305327,7.30481,-1.1569784,1.9547681,-2.0060806,14.189967695526969,3.0305241468056,left
28/07/2020, 18:14:47,-9.474698,-7.6305327,7.30481,-0.95783633,1.9987503,-2.0097458,14.189967695526969,2.991911034615062,left
28/07/2020, 18:14:47,-10.157278,-6.6270194,7.0174074,-0.95783633,1.9987503,-2.0097458,14.011841087670474,2.991911034615062,left
28/07/2020, 18:14:47,-10.157278,-6.6270194,7.0174074,-0.8344416,1.9633201,-1.9804244,14.011841087670474,2.910841727878975,left
28/07/2020, 18:14:47,-10.490186,-5.767207,5.611531,-0.8344416,1.9633201,-1.9804244,13.220966408498303,2.910841727878975,left
28/07/2020, 18:14:47,-10.490186,-5.767207,5.611531,-0.9358452,1.8606949,-1.92789,13.220966408498303,2.838089378462754,left
28/07/2020, 18:14:47,-10.183623,-5.1828227,4.526587,-0.9358452,1.8606949,-1.92789,12.2905583655825,2.838089378462754,left
28/07/2020, 18:14:47,-10.183623,-5.1828227,4.526587,-1.3035859,1.8350385,-1.9022336,12.2905583655825,2.9470655386930296,left
28/07/2020, 18:14:47,-9.510623,-6.143225,4.2296047,-1.3035859,1.8350385,-1.9022336,12.086385783283498,2.9470655386930296,left
28/07/2020, 18:14:47,-9.510623,-6.143225,4.2296047,-1.9230031,1.8545861,-1.8215995,12.086385783283498,3.23352055927348,left
28/07/2020, 18:14:47,-9.637559,-7.94428,4.4906616,-1.9230031,1.8545861,-1.8215995,13.272534464958525,3.23352055927348,left
28/07/2020, 18:14:47,-9.637559,-7.94428,4.4906616,-2.5754068,1.8081604,-1.6371182,13.272534464958525,3.5471566528612613,left
28/07/2020, 18:14:47,-9.3453665,-8.811277,5.101392,-2.5754068,1.8081604,-1.6371182,13.82022727965043,3.5471566528612613,left
28/07/2020, 18:14:47,-9.3453665,-8.811277,5.101392,-2.9211564,1.7959431,-1.4489719,13.82022727965043,3.7226450259589687,left
28/07/2020, 18:14:47,-8.655601,-8.562195,6.593489,-2.9211564,1.7959431,-1.4489719,13.84574665688634,3.7226450259589687,left
28/07/2020, 18:14:47,-8.655601,-8.562195,6.593489,-2.7977617,1.7812824,-1.3292422,13.84574665688634,3.5731390111098733,left
28/07/2020, 18:14:47,-9.68067,-8.643626,5.4414845,-2.7977617,1.7812824,-1.3292422,14.072575976786517,3.5731390111098733,left
28/07/2020, 18:14:48,-2.0070264,-5.221143,9.024434,-0.6499604,-0.47036606,-0.04520401,10.617386569113869,0.803577098629745,left
28/07/2020, 18:14:48,-1.9303858,-5.609136,8.583751,-0.6499604,-0.47036606,-0.04520401,10.434058356657479,0.803577098629745,left
28/07/2020, 18:14:48,-1.9303858,-5.609136,8.583751,-0.58398694,-0.48136163,-0.043982282,10.434058356657479,0.7580792843853358,left
28/07/2020, 18:14:48,-1.9902613,-6.0354495,7.8724294,-0.58398694,-0.48136163,-0.043982282,10.117456944918315,0.7580792843853358,left
28/07/2020, 18:14:48,-1.9902613,-6.0354495,7.8724294,-0.50579625,-0.49480066,-0.02321287,10.117456944918315,0.7079522425981988,left
28/07/2020, 18:14:48,-2.0070264,-6.337222,7.8844047,-0.50579625,-0.49480066,-0.02321287,10.3127288276964,0.7079522425981988,left
28/07/2020, 18:14:48,-2.0070264,-6.337222,7.8844047,-0.38728842,-0.45448357,0.00488692,10.3127288276964,0.5971360963149255,left
28/07/2020, 18:14:48,-2.059717,-6.488108,7.3862405,-0.38728842,-0.45448357,0.00488692,10.04462691227444,0.5971360963149255,left
28/07/2020, 18:14:48,-2.059717,-6.488108,7.3862405,-0.366519,-0.3579669,0.0488692,10.04462691227444,0.5146500563379844,left
28/07/2020, 18:14:48,-2.323169,-5.7863674,6.74198,-0.366519,-0.3579669,0.0488692,9.183324963778452,0.5146500563379844,left
28/07/2020, 18:14:48,-2.323169,-5.7863674,6.74198,-0.44837493,-0.24068081,0.1624901,9.183324963778452,0.5342006756063008,left
28/07/2020, 18:14:48,-2.8692336,-4.8451247,6.1695704,-0.44837493,-0.24068081,0.1624901,8.352923712938777,0.5342006756063008,left
28/07/2020, 18:14:48,-2.8692336,-4.8451247,6.1695704,-0.6829471,-0.17837258,0.321315,8.352923712938777,0.7755493792253948,left
28/07/2020, 18:14:48,-3.2141163,-3.6116896,5.213958,-0.6829471,-0.17837258,0.321315,7.110569678082285,0.7755493792253948,left
28/07/2020, 18:14:48,-3.2141163,-3.6116896,5.213958,-1.0262532,-0.3249802,0.47891816,7.110569678082285,1.1782064408566875,left
28/07/2020, 18:14:48,-4.1098537,-2.924319,5.2283278,-1.0262532,-0.3249802,0.47891816,7.264843470942987,1.1782064408566875,left
28/07/2020, 18:14:48,-4.1098537,-2.924319,5.2283278,-1.3988808,-0.5277874,0.6450735,7.264843470942987,1.6283571214926655,left
28/07/2020, 18:14:48,-3.9613624,-2.215393,4.112249,-1.3988808,-0.5277874,0.6450735,6.124618289856402,1.6283571214926655,left
28/07/2020, 18:14:48,-3.9613624,-2.215393,4.112249,-1.9425508,-0.63774306,0.6792819,6.124618289856402,2.1544474044361785,left
28/07/2020, 18:14:48,-3.1278956,-1.2358302,2.929109,-1.9425508,-0.63774306,0.6792819,4.45989766666927,2.1544474044361785,left
28/07/2020, 18:14:48,-3.1278956,-1.2358302,2.929109,-2.6975799,-0.7281511,0.5265656,4.45989766666927,2.843310121586849,left
28/07/2020, 18:14:48,-2.6776319,-1.1879297,1.2549903,-2.6975799,-0.7281511,0.5265656,3.1868307442307366,2.843310121586849,left
28/07/2020, 18:14:48,-2.6776319,-1.1879297,1.2549903,-3.6712987,-0.8820891,0.36407554,3.1868307442307366,3.7932923163614305,left
28/07/2020, 18:14:48,-2.3614893,-2.1722827,-0.62989014,-3.6712987,-0.8820891,0.36407554,3.269893790113114,3.7932923163614305,left
28/07/2020, 18:14:48,-2.3614893,-2.1722827,-0.62989014,-4.647461,-1.0934484,0.4153882,3.269893790113114,4.79239709582815,left
28/07/2020, 18:14:48,-1.8130299,-3.8631666,-0.41912845,-4.647461,-1.0934484,0.4153882,4.2879834390287375,4.79239709582815,left
28/07/2020, 18:14:48,-1.8130299,-3.8631666,-0.41912845,-5.0494103,-1.2278386,0.5815435,4.2879834390287375,5.228988944034514,left
28/07/2020, 18:14:48,-0.23950197,-5.599556,2.2776637,-5.0494103,-1.2278386,0.5815435,6.0498049729594765,5.228988944034514,left
28/07/2020, 18:14:48,-0.23950197,-5.599556,2.2776637,-4.433658,-1.12277,0.5778783,6.0498049729594765,4.609976143313677,left
28/07/2020, 18:14:48,1.6621436,-7.3694754,4.5792775,-4.433658,-1.12277,0.5778783,8.834119708335484,4.609976143313677,left
28/07/2020, 18:14:49,-1.8226099,-8.6627865,4.4451566,-1.2290604,0.04276055,-0.40194917,9.905816144350306,1.2938242124707757,left
28/07/2020, 18:14:49,-1.8226099,-8.6627865,4.4451566,-1.2241734,0.01588249,-0.3738494,9.905816144350306,1.2800844502646351,left
28/07/2020, 18:14:49,-1.9184108,-8.780142,4.392466,-1.2241734,0.01588249,-0.3738494,10.003246904726701,1.2800844502646351,left
28/07/2020, 18:14:49,-1.9184108,-8.780142,4.392466,-1.2241734,-0.0073303804,-0.3457496,10.003246904726701,1.2720837589268839,left
28/07/2020, 18:14:49,-1.8010547,-8.966953,4.526587,-1.2241734,-0.0073303804,-0.3457496,10.2049027005066,1.2720837589268839,left
28/07/2020, 18:14:49,-1.8010547,-8.966953,4.526587,-1.189965,0.00122173,-0.3298671,10.2049027005066,1.2348402800003735,left
28/07/2020, 18:14:49,-1.5567628,-9.175321,4.5888577,-1.189965,0.00122173,-0.3298671,10.37630153651762,1.2348402800003735,left
28/07/2020, 18:14:49,-1.5567628,-9.175321,4.5888577,-1.1129961,0.047647472,-0.32009327,10.37630153651762,1.1590902930545304,left
28/07/2020, 18:14:49,-1.3268409,-9.283096,4.629573,-1.1129961,0.047647472,-0.32009327,10.457979194037001,1.1590902930545304,left
28/07/2020, 18:14:49,-1.3268409,-9.283096,4.629573,-1.0018187,0.11239916,-0.31642807,10.457979194037001,1.0565987475043397,left
28/07/2020, 18:14:49,-1.22146,-9.520203,4.6583133,-1.0018187,0.11239916,-0.31642807,10.668931778809993,1.0565987475043397,left
28/07/2020, 18:14:49,-1.22146,-9.520203,4.6583133,-0.8747587,0.1747074,-0.32253674,10.668931778809993,0.9485543950154571,left
28/07/2020, 18:14:49,-1.3172607,-9.826766,4.4738965,-0.8747587,0.1747074,-0.32253674,10.877327616760033,0.9485543950154571,left
28/07/2020, 18:14:49,-1.3172607,-9.826766,4.4738965,-0.77091163,0.24068081,-0.33231056,10.877327616760033,0.8733053922028553,left
28/07/2020, 18:14:49,-1.585503,-10.083033,4.3158255,-0.77091163,0.24068081,-0.33231056,11.081864270167193,0.8733053922028553,left
28/07/2020, 18:14:49,-1.585503,-10.083033,4.3158255,-0.6597342,0.30176732,-0.32620192,11.081864270167193,0.795437241851587,left
28/07/2020, 18:14:49,-1.947151,-10.250684,4.1960745,-0.6597342,0.30176732,-0.32620192,11.246108480043347,0.795437241851587,left
28/07/2020, 18:14:49,-1.947151,-10.250684,4.1960745,-0.5131266,0.33719748,-0.32375845,11.246108480043347,0.6941329828501454,left
28/07/2020, 18:14:49,-2.299219,-10.30577,4.24158,-0.5131266,0.33719748,-0.32375845,11.3792048116725,0.6941329828501454,left
28/07/2020, 18:14:49,-2.299219,-10.30577,4.24158,-0.36774075,0.37140593,-0.34330612,11.3792048116725,0.6253276890560846,left
28/07/2020, 18:14:49,-2.565066,-10.217154,3.9972878,-0.36774075,0.37140593,-0.34330612,11.267124748539949,0.6253276890560846,left
28/07/2020, 18:14:49,-2.565066,-10.217154,3.9972878,-0.2651154,0.3909536,-0.35430172,11.267124748539949,0.5904749001782472,left
28/07/2020, 18:14:49,-2.565066,-10.217154,3.9972878,-0.11117743,0.35552344,-0.3127629,11.267124748539949,0.4863928024991428,left
28/07/2020, 18:14:49,-2.7566676,-9.874666,4.0906935,-0.11117743,0.35552344,-0.3127629,11.038207384734383,0.4863928024991428,left
28/07/2020, 18:14:49,-2.7399025,-9.462723,4.3421707,-0.11117743,0.35552344,-0.3127629,10.765901475950251,0.4863928024991428,left
28/07/2020, 18:14:49,-2.7399025,-9.462723,4.3421707,0.16004664,0.2809979,-0.24923292,10.765901475950251,0.40827906445948775,left
28/07/2020, 18:14:49,-2.2920337,-9.445957,4.4906616,0.16004664,0.2809979,-0.24923292,10.707267030814643,0.40827906445948775,left
28/07/2020, 18:14:49,-2.2920337,-9.445957,4.4906616,0.4764747,0.22479832,-0.19669853,10.707267030814643,0.5623635298762333,left
28/07/2020, 18:14:49,-1.4944923,-9.69504,4.7708793,0.4764747,0.22479832,-0.19669853,10.908189214785622,0.5623635298762333,left
28/07/2020, 18:14:49,-1.4944923,-9.69504,4.7708793,0.80878526,0.24923292,-0.13561203,10.908189214785622,0.8571121661311867,left
28/07/2020, 18:14:50,4.2511597,-1.1256592,1.3172607,0.34697133,-2.963917,-1.4856237,4.590712698660035,3.333507314966059,left
28/07/2020, 18:14:50,4.272715,-0.8909473,1.1903248,0.34697133,-2.963917,-1.4856237,4.52401971752421,3.333507314966059,left
28/07/2020, 18:14:50,4.272715,-0.8909473,1.1903248,0.36163208,-2.945591,-1.4416414,4.52401971752421,3.2993353891750723,left
28/07/2020, 18:14:50,4.3182206,-0.5221143,1.2358302,0.36163208,-2.945591,-1.4416414,4.521825831934801,3.2993353891750723,left
28/07/2020, 18:14:50,4.3182206,-0.5221143,1.2358302,0.3750711,-2.9309304,-1.4001026,4.521825831934801,3.2697581774665854,left
28/07/2020, 18:14:50,4.2200246,-0.28500733,1.2621753,0.3750711,-2.9309304,-1.4001026,4.413946445462818,3.2697581774665854,left
28/07/2020, 18:14:50,4.2200246,-0.28500733,1.2621753,0.3408627,-2.9077175,-1.3585638,4.413946445462818,3.2274918721806496,left
28/07/2020, 18:14:50,3.8296363,-0.17723145,1.0250684,0.3408627,-2.9077175,-1.3585638,3.9684116061721064,3.2274918721806496,left
28/07/2020, 18:14:50,3.8296363,-0.17723145,1.0250684,0.23579389,-2.8625135,-1.3194684,3.9684116061721064,3.160787772100314,left
28/07/2020, 18:14:50,3.283572,-0.047900394,0.7041358,0.23579389,-2.8625135,-1.3194684,3.358563151864515,3.160787772100314,left
28/07/2020, 18:14:50,3.283572,-0.047900394,0.7041358,0.0977384,-2.8490744,-1.2925904,3.358563151864515,3.1301066139234113,left
28/07/2020, 18:14:50,2.7973828,-0.0047900393,0.25147706,0.0977384,-2.8490744,-1.2925904,2.8086677204545922,3.1301066139234113,left
28/07/2020, 18:14:50,2.7973828,-0.0047900393,0.25147706,-0.0488692,-2.9113827,-1.2999208,2.8086677204545922,3.188782112245486,left
28/07/2020, 18:14:50,2.684817,-0.083825685,-0.09340577,-0.0488692,-2.9113827,-1.2999208,2.6877488932478193,3.188782112245486,left
28/07/2020, 18:14:50,2.684817,-0.083825685,-0.09340577,-0.19425507,-3.0078993,-1.3206902,2.6877488932478193,3.2908077461702554,left
28/07/2020, 18:14:50,2.9674294,-0.12454102,-0.23710695,-0.19425507,-3.0078993,-1.3206902,2.9794911331297333,3.2908077461702554,left
28/07/2020, 18:14:50,2.9674294,-0.12454102,-0.23710695,-0.33475402,-3.0616555,-1.3072511,2.9794911331297333,3.3458482053078207,left
28/07/2020, 18:14:50,3.5877395,-0.0047900393,-0.1460962,-0.33475402,-3.0616555,-1.3072511,3.5907160193451912,3.3458482053078207,left
28/07/2020, 18:14:50,3.5877395,-0.0047900393,-0.1460962,-0.40805784,-3.068986,-1.2705992,3.5907160193451912,3.346581589868223,left
28/07/2020, 18:14:50,4.26074,0.2802173,0.17962648,-0.40805784,-3.068986,-1.2705992,4.273720986838548,3.346581589868223,left
28/07/2020, 18:14:50,4.26074,0.2802173,0.17962648,-0.4153882,-3.040886,-1.2315038,4.273720986838548,3.306982957778618,left
28/07/2020, 18:14:50,4.6918435,0.31374758,0.19160157,-0.4153882,-3.040886,-1.2315038,4.706223988461614,3.306982957778618,left
28/07/2020, 18:14:50,4.6918435,0.31374758,0.19160157,-0.44715318,-2.9859083,-1.2034041,4.706223988461614,3.2501962273748863,left
28/07/2020, 18:14:50,4.7636943,0.122146,-0.0071850587,-0.44715318,-2.9859083,-1.2034041,4.765265420191617,3.2501962273748863,left
28/07/2020, 18:14:50,4.7636943,0.122146,-0.0071850587,-0.51557004,-2.963917,-1.2034041,4.765265420191617,3.2401848569986247,left
28/07/2020, 18:14:50,4.5457473,0.023950197,0.24189699,-0.51557004,-2.963917,-1.2034041,4.5522418761478365,3.2401848569986247,left
28/07/2020, 18:14:50,4.5457473,0.023950197,0.24189699,-0.55100024,-2.9846864,-1.2192866,4.5522418761478365,3.270873543055168,left
28/07/2020, 18:14:50,4.1074586,-0.13651612,0.27303225,-0.55100024,-2.9846864,-1.2192866,4.118786148993652,3.270873543055168,left
28/07/2020, 18:14:50,4.1074586,-0.13651612,0.27303225,-0.5778783,-3.005456,-1.235169,4.118786148993652,3.3003562697539772,left
28/07/2020, 18:14:50,3.6404297,-0.40715334,0.09340577,-0.5778783,-3.005456,-1.235169,3.6643180996140745,3.3003562697539772,left
28/07/2020, 18:14:51,-1.3962965,-7.4676714,-6.823411,4.096461,-0.08918629,2.787988,10.211498297619357,4.955988522267816,left
28/07/2020, 18:14:51,-1.7411792,-7.8556643,-7.431746,4.096461,-0.08918629,2.787988,10.953265022852772,4.955988522267816,left
28/07/2020, 18:14:51,-1.7411792,-7.8556643,-7.431746,4.37868,0.040317092,2.8429658,10.953265022852772,5.220816104034752,left
28/07/2020, 18:14:51,-1.9423609,-8.250843,-7.9730206,4.37868,0.040317092,2.8429658,11.63693402630644,5.220816104034752,left
28/07/2020, 18:14:51,-1.9423609,-8.250843,-7.9730206,4.620583,0.16493355,2.8942785,11.63693402630644,5.454707971399784,left
28/07/2020, 18:14:51,-2.0237916,-8.140672,-8.049661,4.620583,0.16493355,2.8942785,11.62597546732486,5.454707971399784,left
28/07/2020, 18:14:51,-2.0237916,-8.140672,-8.049661,4.9528937,0.28221965,2.9382608,11.62597546732486,5.765776683302443,left
28/07/2020, 18:14:51,-1.9375709,-8.01613,-8.032896,4.9528937,0.28221965,2.9382608,11.512599501241144,5.765776683302443,left
28/07/2020, 18:14:51,-1.9375709,-8.01613,-8.032896,5.293756,0.4105013,2.98713,11.512599501241144,6.092233514158913,left
28/07/2020, 18:14:51,-1.6836988,-7.8868,-8.119117,5.293756,0.4105013,2.98713,11.443623122829433,6.092233514158913,left
28/07/2020, 18:14:51,-1.6836988,-7.8868,-8.119117,5.538102,0.6255258,2.9480345,11.443623122829433,6.304979419132659,left
28/07/2020, 18:14:51,-1.8202149,-7.551497,-8.080796,5.538102,0.6255258,2.9480345,11.208816027702493,6.304979419132659,left
28/07/2020, 18:14:51,-1.8202149,-7.551497,-8.080796,5.7091446,0.9395104,2.8246398,11.208816027702493,6.438602469544779,left
28/07/2020, 18:14:51,-1.719624,-7.824529,-7.438931,5.7091446,0.9395104,2.8246398,10.93243146990276,6.438602469544779,left
28/07/2020, 18:14:51,-1.719624,-7.824529,-7.438931,5.8655257,1.325577,2.647489,10.93243146990276,6.570444796169352,left
28/07/2020, 18:14:51,-2.1195924,-8.284373,-7.084468,5.8655257,1.325577,2.647489,11.104647586239654,6.570444796169352,left
28/07/2020, 18:14:51,-2.1195924,-8.284373,-7.084468,5.896069,1.6468921,2.475225,11.104647586239654,6.603228179767115,left
28/07/2020, 18:14:51,-3.1446607,-9.026829,-6.835386,5.896069,1.6468921,2.475225,11.75138407100167,6.603228179767115,left
28/07/2020, 18:14:51,-3.1446607,-9.026829,-6.835386,5.830096,1.8545861,2.3383913,11.75138407100167,6.549624435595394,left
28/07/2020, 18:14:51,-3.755391,-9.429193,-6.583909,5.830096,1.8545861,2.3383913,12.097953995259664,6.549624435595394,left
28/07/2020, 18:14:51,-3.755391,-9.429193,-6.583909,5.674936,2.0427327,2.230879,12.097953995259664,6.430744505914254,left
28/07/2020, 18:14:51,-4.378096,-9.335787,-6.071375,5.674936,2.0427327,2.230879,11.966045049428823,6.430744505914254,left
28/07/2020, 18:14:51,-4.378096,-9.335787,-6.071375,5.59308,2.1649055,2.1881185,11.966045049428823,6.38413837520676,left
28/07/2020, 18:14:51,-5.137317,-8.796907,-5.872588,5.59308,2.1649055,2.1881185,11.758609600058158,6.38413837520676,left
28/07/2020, 18:14:51,-5.137317,-8.796907,-5.872588,5.5173326,2.1661274,2.185675,11.758609600058158,6.317455295001439,left
28/07/2020, 18:14:51,-5.6570363,-8.040081,-5.0582814,5.5173326,2.1661274,2.185675,11.055820800197395,6.317455295001439,left
28/07/2020, 18:14:51,-5.6570363,-8.040081,-5.0582814,5.4232597,2.1563535,2.1771228,11.055820800197395,6.22908261950179,left
28/07/2020, 18:14:51,-5.980364,-7.573052,-4.799619,5.4232597,2.1563535,2.1771228,10.77739354850178,6.22908261950179,left
28/07/2020, 18:14:51,-5.980364,-7.573052,-4.799619,5.158144,2.135584,2.0659454,10.77739354850178,5.952755610119122,left
28/07/2020, 18:14:51,-6.2989016,-7.472461,-4.3325906,5.158144,2.135584,2.0659454,10.690424627133623,5.952755610119122,left
28/07/2020, 18:14:52,0.4239185,-6.2821364,-1.6908839,0.92607135,1.5039496,-1.0629051,6.5195117466801,2.0613684431227974,left
28/07/2020, 18:14:52,0.4239185,-6.2821364,-1.6908839,0.38362324,1.5015062,-1.1129961,6.5195117466801,1.9079958098920502,left
28/07/2020, 18:14:52,0.081430666,-7.4892263,-0.7568262,0.38362324,1.5015062,-1.1129961,7.527810310710949,1.9079958098920502,left
28/07/2020, 18:14:52,0.081430666,-7.4892263,-0.7568262,0.28344136,1.4721847,-1.1569784,7.527810310710949,1.8937438106660345,left
28/07/2020, 18:14:52,-0.37122804,-8.54064,0.48618898,0.28344136,1.4721847,-1.1569784,8.562518291570546,1.8937438106660345,left
28/07/2020, 18:14:52,-0.37122804,-8.54064,0.48618898,0.5644393,1.4966192,-1.1325437,8.562518291570546,1.9598765310583464,left
28/07/2020, 18:14:52,-0.9508228,-9.711804,1.0226734,0.5644393,1.4966192,-1.1325437,9.811680246948036,1.9598765310583464,left
28/07/2020, 18:14:52,-0.9508228,-9.711804,1.0226734,1.0396923,1.5308278,-1.0531312,9.811680246948036,2.1291968081542727,left
28/07/2020, 18:14:52,-1.4849122,-9.968072,1.7363893,1.0396923,1.5308278,-1.0531312,10.226557093962178,2.1291968081542727,left
28/07/2020, 18:14:52,-1.4849122,-9.968072,1.7363893,1.6114619,1.5149453,-1.0238098,10.226557093962178,2.437222812542036,left
28/07/2020, 18:14:52,-2.0118165,-9.503438,2.215393,1.6114619,1.5149453,-1.0238098,9.96346856355653,2.437222812542036,left
28/07/2020, 18:14:52,-2.0118165,-9.503438,2.215393,2.172236,1.4795151,-0.9920448,9.96346856355653,2.809221751312156,left
28/07/2020, 18:14:52,-1.8824854,-8.705896,2.6201515,2.172236,1.4795151,-0.9920448,9.284480435970758,2.809221751312156,left
28/07/2020, 18:14:52,-1.8824854,-8.705896,2.6201515,2.538755,1.4697412,-0.9382887,9.284480435970758,3.0799028520370726,left
28/07/2020, 18:14:52,-1.585503,-7.697593,2.7255323,2.538755,1.4697412,-0.9382887,8.318370468288624,3.0799028520370726,left
28/07/2020, 18:14:52,-1.585503,-7.697593,2.7255323,2.6145022,1.4135417,-0.8332199,8.318370468288624,3.086742158586083,left
28/07/2020, 18:14:52,-1.0154883,-6.466553,3.5757644,2.6145022,1.4135417,-0.8332199,7.458794676371029,3.086742158586083,left
28/07/2020, 18:14:52,-1.0154883,-6.466553,3.5757644,2.5130987,1.3109163,-0.72692937,7.458794676371029,2.9261908723977164,left
28/07/2020, 18:14:52,-0.5340894,-5.127737,5.1828227,2.5130987,1.3109163,-0.72692937,7.31030709770235,2.9261908723977164,left
28/07/2020, 18:14:52,-0.5340894,-5.127737,5.1828227,2.3054047,1.2510515,-0.62063885,7.31030709770235,2.6954059449412555,left
28/07/2020, 18:14:52,-0.14130616,-4.380491,6.337222,2.3054047,1.2510515,-0.62063885,7.705131461557277,2.6954059449412555,left
28/07/2020, 18:14:52,-0.14130616,-4.380491,6.337222,1.9511029,1.1997389,-0.5766566,7.705131461557277,2.3619289756507493,left
28/07/2020, 18:14:52,-0.098195806,-4.361331,6.7850904,1.9511029,1.1997389,-0.5766566,8.066492592992098,2.3619289756507493,left
28/07/2020, 18:14:52,-0.098195806,-4.361331,6.7850904,1.4611892,1.1129961,-0.65729076,8.066492592992098,1.9508626796824349,left
28/07/2020, 18:14:52,-0.31374758,-5.242698,6.7659307,1.4611892,1.1129961,-0.65729076,8.565170137345524,1.9508626796824349,left
28/07/2020, 18:14:52,-0.31374758,-5.242698,6.7659307,0.99448824,0.93218,-0.77213335,8.565170137345524,1.566574702274373,left
28/07/2020, 18:14:52,-0.7592212,-6.4833183,6.5120583,0.99448824,0.93218,-0.77213335,9.220452056940761,1.566574702274373,left
28/07/2020, 18:14:52,-0.7592212,-6.4833183,6.5120583,0.59131736,0.72326416,-0.74647707,9.220452056940761,1.1958240962824391,left
28/07/2020, 18:14:52,-0.81909674,-7.438931,6.06419,0.59131736,0.72326416,-0.74647707,9.632393939219865,1.1958240962824391,left
28/07/2020, 18:14:52,-0.81909674,-7.438931,6.06419,0.25411984,0.52045697,-0.5986477,9.632393939219865,0.8329654477535542,left
28/07/2020, 18:14:53,0.74006104,-5.6905665,8.485555,-0.565661,-0.14905107,0.00122173,10.243772565680615,0.5849701666983911,left
28/07/2020, 18:14:53,0.97237796,-5.621111,8.562195,-0.565661,-0.14905107,0.00122173,10.288517241495361,0.5849701666983911,left
28/07/2020, 18:14:53,0.97237796,-5.621111,8.562195,-0.58398694,-0.15027279,-0.03176498,10.288517241495361,0.6038473881140693,left
28/07/2020, 18:14:53,0.9268726,-5.724097,8.653206,-0.58398694,-0.15027279,-0.03176498,10.416446062994947,0.6038473881140693,left
28/07/2020, 18:14:53,0.9268726,-5.724097,8.653206,-0.533896,-0.1747074,-0.06352996,10.416446062994947,0.5653350338961648,left
28/07/2020, 18:14:53,0.9148975,-5.951624,8.823253,-0.533896,-0.1747074,-0.06352996,10.68216515981315,0.5653350338961648,left
28/07/2020, 18:14:53,0.9148975,-5.951624,8.823253,-0.4105013,-0.16859874,-0.08674283,10.68216515981315,0.45217383056365557,left
28/07/2020, 18:14:53,1.0202783,-6.1887307,8.789722,-0.4105013,-0.16859874,-0.08674283,10.798174678268637,0.45217383056365557,left
28/07/2020, 18:14:53,1.0202783,-6.1887307,8.789722,-0.28344136,-0.101403594,-0.09162975,10.798174678268637,0.3146707921188639,left
28/07/2020, 18:14:53,1.1472144,-6.337222,8.737032,-0.28344136,-0.101403594,-0.09162975,10.85413340191445,0.3146707921188639,left
28/07/2020, 18:14:53,1.1472144,-6.337222,8.737032,-0.15760317,-0.018325951,-0.095294945,10.85413340191445,0.185083028951401,left
28/07/2020, 18:14:53,1.0825489,-6.2581863,8.751402,-0.15760317,-0.018325951,-0.095294945,10.813132919494416,0.185083028951401,left
28/07/2020, 18:14:53,1.0825489,-6.2581863,8.751402,-0.03909536,0.03298671,-0.108733974,10.813132919494416,0.12016508466546023,left
28/07/2020, 18:14:53,1.1328443,-6.1384354,8.667576,-0.03909536,0.03298671,-0.108733974,10.68131994954802,0.12016508466546023,left
28/07/2020, 18:14:53,1.1328443,-6.1384354,8.667576,0.07086034,0.05742131,-0.12828165,10.68131994954802,0.15739942018008524,left
28/07/2020, 18:14:53,1.2430152,-5.9372535,8.708291,0.07086034,0.05742131,-0.12828165,10.6127469874177,0.15739942018008524,left
28/07/2020, 18:14:53,1.2430152,-5.9372535,8.708291,0.15760317,0.06352996,-0.14294241,10.6127469874177,0.222052584194877,left
28/07/2020, 18:14:53,1.341211,-5.8438478,8.945398,0.15760317,0.06352996,-0.14294241,10.768916133093054,0.222052584194877,left
28/07/2020, 18:14:53,1.341211,-5.8438478,8.945398,0.22968525,0.067195155,-0.15149452,10.768916133093054,0.28323327919434615,left
28/07/2020, 18:14:53,1.4825171,-5.7648125,9.201666,0.22968525,0.067195155,-0.15149452,10.959086401919757,0.28323327919434615,left
28/07/2020, 18:14:53,1.4825171,-5.7648125,9.201666,0.29810214,0.09407321,-0.16004664,10.959086401919757,0.35118311702667115,left
28/07/2020, 18:14:53,1.5399976,-5.6522465,9.271121,0.29810214,0.09407321,-0.16004664,10.96691241041143,0.35118311702667115,left
28/07/2020, 18:14:53,1.5399976,-5.6522465,9.271121,0.33964095,0.13683376,-0.16371182,10.96691241041143,0.4010997475374107,left
28/07/2020, 18:14:53,1.4992822,-5.5708156,9.211246,0.33964095,0.13683376,-0.16371182,10.868710945475035,0.4010997475374107,left
28/07/2020, 18:14:53,1.4992822,-5.5708156,9.211246,0.35430172,0.16493355,-0.16371182,10.868710945475035,0.42371493149872574,left
28/07/2020, 18:14:53,1.4897022,-5.4342995,9.036409,0.35430172,0.16493355,-0.16371182,10.649296591081571,0.42371493149872574,left
28/07/2020, 18:14:53,1.4897022,-5.4342995,9.036409,0.3506365,0.16859874,-0.16737701,10.649296591081571,0.4235405088233917,left
28/07/2020, 18:14:53,1.6214283,-5.3145485,8.832832,0.3506365,0.16859874,-0.16737701,10.435151284759671,0.4235405088233917,left
28/07/2020, 18:14:53,1.6214283,-5.3145485,8.832832,0.3054325,0.15638144,-0.18081604,10.435151284759671,0.38786416048895805,left
28/07/2020, 18:14:53,1.7411792,-5.2043777,8.686736,0.3054325,0.15638144,-0.18081604,10.275049198438348,0.38786416048895805,left
28/07/2020, 18:14:54,2.0453467,-3.539839,8.780142,1.7397436,-2.4740033,-0.31031942,9.685287512012223,3.040345096758493,left
28/07/2020, 18:14:54,2.2585034,-3.2308815,8.612491,1.7397436,-2.4740033,-0.31031942,9.471770056368817,3.040345096758493,left
28/07/2020, 18:14:54,2.2585034,-3.2308815,8.612491,1.9181161,-2.44346,-0.3176498,9.471770056368817,3.1225898640318936,left
28/07/2020, 18:14:54,2.4261549,-2.6704469,8.296348,1.9181161,-2.44346,-0.3176498,9.046927526284263,3.1225898640318936,left
28/07/2020, 18:14:54,2.4261549,-2.6704469,8.296348,2.0305152,-2.4275775,-0.3420844,9.046927526284263,3.1832603085365463,left
28/07/2020, 18:14:54,2.6441016,-2.0190015,8.006551,2.0305152,-2.4275775,-0.3420844,8.670207373666077,3.1832603085365463,left
28/07/2020, 18:14:54,2.6441016,-2.0190015,8.006551,2.05495,-2.4397948,-0.38117978,8.670207373666077,3.212587132682427,left
28/07/2020, 18:14:54,2.7662477,-1.346001,7.8604546,2.05495,-2.4397948,-0.38117978,8.441006531214482,3.212587132682427,left
28/07/2020, 18:14:54,2.7662477,-1.346001,7.8604546,1.9804244,-2.4764469,-0.398284,8.441006531214482,3.1958566990459434,left
28/07/2020, 18:14:54,2.8644435,-0.60594,7.6209526,1.9804244,-2.4764469,-0.398284,8.164013638382482,3.1958566990459434,left
28/07/2020, 18:14:54,2.8644435,-0.60594,7.6209526,1.7996083,-2.5350897,-0.37751457,8.164013638382482,3.1317387198280024,left
28/07/2020, 18:14:54,3.0009596,0.17483643,7.3694754,1.7996083,-2.5350897,-0.37751457,7.958988230703762,3.1317387198280024,left
28/07/2020, 18:14:54,3.0009596,0.17483643,7.3694754,1.5039496,-2.6096153,-0.3408627,7.958988230703762,3.031195152068665,left
28/07/2020, 18:14:54,3.0967603,0.7831714,7.0030375,1.5039496,-2.6096153,-0.3408627,7.697130323567438,3.031195152068665,left
28/07/2020, 18:14:54,3.0967603,0.7831714,7.0030375,1.1056657,-2.7036886,-0.32253674,7.697130323567438,2.938785244432588,left
28/07/2020, 18:14:54,3.2069314,1.1352394,6.6749196,1.1056657,-2.7036886,-0.32253674,7.491844155324374,2.938785244432588,left
28/07/2020, 18:14:54,3.2069314,1.1352394,6.6749196,0.64018655,-2.8087573,-0.3249802,7.491844155324374,2.899063391115573,left
28/07/2020, 18:14:54,3.307522,1.4849122,6.2965064,0.64018655,-2.8087573,-0.3249802,7.2657180779474135,2.899063391115573,left
28/07/2020, 18:14:54,3.307522,1.4849122,6.2965064,0.20525065,-2.9211564,-0.33841923,7.2657180779474135,2.947848394112745,left
28/07/2020, 18:14:54,3.4727786,1.5016773,6.224656,0.20525065,-2.9211564,-0.33841923,7.284337250661528,2.947848394112745,left
28/07/2020, 18:14:54,3.4727786,1.5016773,6.224656,-0.13316858,-3.0176733,-0.366519,7.284337250661528,3.0427655050238336,left
28/07/2020, 18:14:54,3.7290456,1.346001,6.1743608,-0.13316858,-3.0176733,-0.366519,7.3375902566275,3.0427655050238336,left
28/07/2020, 18:14:54,3.7290456,1.346001,6.1743608,-0.3652973,-3.0934205,-0.4068361,7.3375902566275,3.1413704236423925,left
28/07/2020, 18:14:54,3.9350173,1.0633887,5.846243,-0.3652973,-3.0934205,-0.4068361,7.126970826558658,3.1413704236423925,left
28/07/2020, 18:14:54,3.9350173,1.0633887,5.846243,-0.443488,-3.2021544,-0.4361576,7.126970826558658,3.262009788521239,left
28/07/2020, 18:14:54,4.0020776,0.5556446,5.719307,-0.443488,-3.2021544,-0.4361576,7.002559373740278,3.262009788521239,left
28/07/2020, 18:14:54,4.0020776,0.5556446,5.719307,-0.3139846,-3.3414316,-0.47891816,7.002559373740278,3.3901495830529806,left
28/07/2020, 18:14:54,4.1074586,-0.2203418,5.7696023,-0.3139846,-3.3414316,-0.47891816,7.085765821398987,3.3901495830529806,left
28/07/2020, 18:14:54,4.1074586,-0.2203418,5.7696023,0.03909536,-3.425731,-0.55222195,7.085765821398987,3.4701743518237054,left
28/07/2020, 18:14:54,4.3325906,-1.468147,5.381609,0.03909536,-3.425731,-0.55222195,7.063180012848706,3.4701743518237054,left
28/07/2020, 18:14:55,0.6730005,2.565066,-9.929751,4.7952905,0.31031942,2.5314245,10.27776515471846,5.431318343659589,left
28/07/2020, 18:14:55,0.11256592,1.5376027,-10.835069,4.7952905,0.31031942,2.5314245,10.94420425740763,5.431318343659589,left
28/07/2020, 18:14:55,-0.86220706,-0.7879615,-8.983719,4.7952905,0.31031942,2.5314245,9.059331602107118,5.431318343659589,left
28/07/2020, 18:14:55,-0.86220706,-0.7879615,-8.983719,4.6780043,0.14172068,2.6279414,9.059331602107118,5.367484000703598,left
28/07/2020, 18:14:55,-0.86220706,-0.7879615,-8.983719,4.7232084,0.14782934,2.5864024,9.059331602107118,5.3870241155072565,left
28/07/2020, 18:14:55,-0.6490503,-3.7266505,-8.59333,4.7232084,0.14782934,2.5864024,9.38906369858707,5.3870241155072565,left
28/07/2020, 18:14:55,-0.6490503,-3.7266505,-8.59333,5.062849,0.25778502,2.6768105,9.38906369858707,5.732731289458314,left
28/07/2020, 18:14:55,-0.7783814,-5.5636306,-7.8269243,5.062849,0.25778502,2.6768105,9.634345189482227,5.732731289458314,left
28/07/2020, 18:14:55,-0.7783814,-5.5636306,-7.8269243,6.1159806,0.25900677,2.8967218,9.634345189482227,6.772244895980498,left
28/07/2020, 18:14:55,-1.2861255,-6.3060865,-6.847361,6.1159806,0.25900677,2.8967218,9.3971910817011,6.772244895980498,left
28/07/2020, 18:14:55,-1.2861255,-6.3060865,-6.847361,7.4647703,0.24312428,2.9309304,9.3971910817011,8.023232401580271,left
28/07/2020, 18:14:55,-0.46702883,-8.353828,-6.325247,7.4647703,0.24312428,2.9309304,10.48872311506687,8.023232401580271,left
28/07/2020, 18:14:55,-0.46702883,-8.353828,-6.325247,8.836773,0.3995057,2.9602518,10.48872311506687,9.327982160815084,left
28/07/2020, 18:14:55,-0.33530274,-10.277029,-5.848638,8.836773,0.3995057,2.9602518,11.829468326804545,9.327982160815084,left
28/07/2020, 18:14:55,-0.33530274,-10.277029,-5.848638,9.993752,0.61941713,3.0628772,11.829468326804545,10.470910359267142,left
28/07/2020, 18:14:55,-0.79993653,-10.43031,-4.533772,9.993752,0.61941713,3.0628772,11.401156030290498,10.470910359267142,left
28/07/2020, 18:14:55,-0.79993653,-10.43031,-4.533772,11.078648,0.8161157,2.973691,11.401156030290498,11.499796338521973,left
28/07/2020, 18:14:55,0.31853762,-12.367882,-4.30385,11.078648,0.8161157,2.973691,13.099201965571865,11.499796338521973,left
28/07/2020, 18:14:55,0.31853762,-12.367882,-4.30385,12.09757,0.9309583,2.6413803,13.099201965571865,12.417519208560108,left
28/07/2020, 18:14:55,0.28740236,-14.106666,-4.191284,12.09757,0.9309583,2.6413803,14.71894961811051,12.417519208560108,left
28/07/2020, 18:14:55,0.28740236,-14.106666,-4.191284,12.735313,1.0971136,2.2956307,14.71894961811051,12.98698526772463,left
28/07/2020, 18:14:55,-0.1101709,-15.625108,-4.0427933,12.735313,1.0971136,2.2956307,16.140021925546773,12.98698526772463,left
28/07/2020, 18:14:55,-0.1101709,-15.625108,-4.0427933,13.0273075,1.2095127,1.9816461,16.140021925546773,13.2325576922145,left
28/07/2020, 18:14:55,-0.14370118,-14.420413,-1.9160157,13.0273075,1.2095127,1.9816461,14.547854754229602,13.2325576922145,left
28/07/2020, 18:14:55,-0.14370118,-14.420413,-1.9160157,13.409709,1.2278386,1.2925904,14.547854754229602,13.527700190551013,left
28/07/2020, 18:14:55,1.5471827,-14.034815,-3.2284865,13.409709,1.2278386,1.2925904,14.48423028709915,13.527700190551013,left
28/07/2020, 18:14:55,1.5471827,-14.034815,-3.2284865,14.096321,1.4172069,0.52045697,14.48423028709915,14.176939709614386,left
28/07/2020, 18:14:55,2.1100123,-13.888719,-1.4609619,14.096321,1.4172069,0.52045697,14.123847427314548,14.176939709614386,left
28/07/2020, 18:14:55,2.1100123,-13.888719,-1.4609619,14.686417,1.9107858,0.0977384,14.123847427314548,14.81051952019759,left
28/07/2020, 18:14:55,1.6022681,-14.070741,-0.043110352,14.686417,1.9107858,0.0977384,14.161739490830499,14.81051952019759,left
28/07/2020, 18:14:56,-6.8042507,-5.6905665,6.236631,-1.235169,1.09467,-1.8081604,10.843244005155233,2.448139955922358,left
28/07/2020, 18:14:56,-7.237749,-5.7001467,5.6857767,-1.235169,1.09467,-1.8081604,10.826113843397833,2.448139955922358,left
28/07/2020, 18:14:56,-7.237749,-5.7001467,5.6857767,-1.2009606,1.1985172,-1.7531825,10.826113843397833,2.439753864869627,left
28/07/2020, 18:14:56,-7.510782,-5.249883,5.1924024,-1.2009606,1.1985172,-1.7531825,10.53252858380796,2.439753864869627,left
28/07/2020, 18:14:56,-7.510782,-5.249883,5.1924024,-1.2547168,1.2742645,-1.6664398,10.53252858380796,2.44439881076803,left
28/07/2020, 18:14:56,-7.893985,-4.737349,4.8906302,-1.2547168,1.2742645,-1.6664398,10.424765512798187,2.44439881076803,left
28/07/2020, 18:14:56,-7.893985,-4.737349,4.8906302,-1.4355328,1.266934,-1.6627746,10.424765512798187,2.535881611031496,left
28/07/2020, 18:14:56,-8.073611,-4.8091993,4.495452,-1.4355328,1.266934,-1.6627746,10.417326193648847,2.535881611031496,left
28/07/2020, 18:14:56,-8.073611,-4.8091993,4.495452,-1.7079786,1.0897832,-1.7299697,10.417326193648847,2.664134686011054,left
28/07/2020, 18:14:56,-8.377779,-5.0031962,4.799619,-1.7079786,1.0897832,-1.7299697,10.87453438747674,2.664134686011054,left
28/07/2020, 18:14:56,-8.377779,-5.0031962,4.799619,-1.9572115,0.8136722,-1.7947214,10.87453438747674,2.7773663849841985,left
28/07/2020, 18:14:56,-7.941885,-5.1397123,5.144502,-1.9572115,0.8136722,-1.7947214,10.768290609162294,2.7773663849841985,left
28/07/2020, 18:14:56,-7.941885,-5.1397123,5.144502,-2.2333224,0.5326743,-1.7360784,10.768290609162294,2.878443838597965,left
28/07/2020, 18:14:56,-7.692803,-6.1863356,5.0750465,-2.2333224,0.5326743,-1.7360784,11.099822594683683,2.878443838597965,left
28/07/2020, 18:14:56,-7.692803,-6.1863356,5.0750465,-2.50699,0.2809979,-1.5149453,11.099822594683683,2.942620877204006,left
28/07/2020, 18:14:56,-7.1611085,-6.4976883,5.7839723,-2.50699,0.2809979,-1.5149453,11.267464806335806,2.942620877204006,left
28/07/2020, 18:14:56,-7.1611085,-6.4976883,5.7839723,-2.597398,0.01710422,-1.2241734,11.267464806335806,2.8714751827073,left
28/07/2020, 18:14:56,-6.7371902,-7.0150127,6.210286,-2.597398,0.01710422,-1.2241734,11.539834926134944,2.8714751827073,left
28/07/2020, 18:14:56,-6.7371902,-7.0150127,6.210286,-2.6047285,-0.1869247,-0.9407321,11.539834926134944,2.7757031754643045,left
28/07/2020, 18:14:56,-5.7648125,-6.959927,6.0186844,-2.6047285,-0.1869247,-0.9407321,10.858094195056816,2.7757031754643045,left
28/07/2020, 18:14:56,-5.7648125,-6.959927,6.0186844,-2.5668547,-0.20158546,-0.8002332,10.858094195056816,2.696247944256365,left
28/07/2020, 18:14:56,-4.277505,-6.8425713,5.640271,-2.5668547,-0.20158546,-0.8002332,9.845328274774111,2.696247944256365,left
28/07/2020, 18:14:56,-4.277505,-6.8425713,5.640271,-2.5509722,-0.054977853,-0.8148939,9.845328274774111,2.6785320454894825,left
28/07/2020, 18:14:56,-3.2356715,-7.0509377,4.9529004,-2.5509722,-0.054977853,-0.8148939,9.20415745388577,2.6785320454894825,left
28/07/2020, 18:14:56,-3.2356715,-7.0509377,4.9529004,-2.5741851,0.07941245,-0.87964565,9.20415745388577,2.7214907492740807,left
28/07/2020, 18:14:56,-2.7518775,-7.654483,4.28948,-2.5741851,0.07941245,-0.87964565,9.19584569612761,2.7214907492740807,left
28/07/2020, 18:14:56,-2.7518775,-7.654483,4.28948,-2.588846,0.116064355,-0.87964565,9.19584569612761,2.7366714898963136,left
28/07/2020, 18:14:56,-2.304009,-8.1071415,3.6188745,-2.588846,0.116064355,-0.87964565,9.172265451603266,2.7366714898963136,left
28/07/2020, 18:14:56,-2.304009,-8.1071415,3.6188745,-2.5595243,0.08674283,-0.8368851,9.172265451603266,2.694265319404524,left
28/07/2020, 18:14:56,-1.7675245,-8.50711,3.295547,-2.5595243,0.08674283,-0.8368851,9.29277608344916,2.694265319404524,left
28/07/2020, 18:14:57,-3.9924977,-9.3309965,9.793235,5.996251,0.27488926,0.00122173,14.103722275272666,6.002548869232967,left
28/07/2020, 18:14:57,-4.006868,-8.552615,9.352551,5.996251,0.27488926,0.00122173,13.291818357254039,6.002548869232967,left
28/07/2020, 18:14:57,-4.006868,-8.552615,9.352551,6.081772,0.2638937,-0.03176498,13.291818357254039,6.087577329129106,left
28/07/2020, 18:14:57,-4.095484,-7.697593,9.031619,6.081772,0.2638937,-0.03176498,12.55372740312124,6.087577329129106,left
28/07/2020, 18:14:57,-4.095484,-7.697593,9.031619,6.048785,0.20158546,-0.073303804,12.55372740312124,6.052587269636572,left
28/07/2020, 18:14:57,-4.2272096,-6.6821046,9.029224,6.048785,0.20158546,-0.073303804,12.001946327152769,6.052587269636572,left
28/07/2020, 18:14:57,-4.2272096,-6.6821046,9.029224,5.9620423,0.061086502,-0.12705992,12.001946327152769,5.963708959140279,left
28/07/2020, 18:14:57,-4.258345,-5.702542,8.878338,5.9620423,0.061086502,-0.12705992,11.378812314192773,5.963708959140279,left
28/07/2020, 18:14:57,-4.258345,-5.702542,8.878338,5.773896,-0.12583819,-0.19669853,11.378812314192773,5.778616018660916,left
28/07/2020, 18:14:57,-3.9805226,-4.598438,8.667576,5.773896,-0.12583819,-0.19669853,10.588534430092068,5.778616018660916,left
28/07/2020, 18:14:57,-3.9805226,-4.598438,8.667576,5.472129,-0.27122405,-0.23945908,10.588534430092068,5.484076721521942,left
28/07/2020, 18:14:57,-3.5134938,-3.3889527,8.703502,5.472129,-0.27122405,-0.23945908,9.979007014831321,5.484076721521942,left
28/07/2020, 18:14:57,-3.5134938,-3.3889527,8.703502,5.1239357,-0.3420844,-0.25900677,9.979007014831321,5.141869630825466,left
28/07/2020, 18:14:57,-3.0105398,-2.2872438,8.746612,5.1239357,-0.3420844,-0.25900677,9.528801000214688,5.141869630825466,left
28/07/2020, 18:14:57,-3.0105398,-2.2872438,8.746612,4.741534,-0.3420844,-0.27000234,9.528801000214688,4.761519703490935,left
28/07/2020, 18:14:57,-2.4022048,-1.2430152,8.854387,4.741534,-0.3420844,-0.27000234,9.258285399931381,4.761519703490935,left
28/07/2020, 18:14:57,-2.4022048,-1.2430152,8.854387,4.2516203,-0.26633716,-0.26267195,9.258285399931381,4.268044885636157,left
28/07/2020, 18:14:57,-1.9064356,-0.2945874,8.49753,4.2516203,-0.26633716,-0.26267195,8.713741692860538,4.268044885636157,left
28/07/2020, 18:14:57,-1.9064356,-0.2945874,8.49753,3.6822944,-0.20525065,-0.22113313,8.713741692860538,3.694633880087081,left
28/07/2020, 18:14:57,-1.9854712,0.61552006,8.653206,3.6822944,-0.20525065,-0.22113313,8.899378229935182,3.694633880087081,left
28/07/2020, 18:14:57,-1.9854712,0.61552006,8.653206,3.171611,-0.20158546,-0.1747074,8.899378229935182,3.182809475067356,left
28/07/2020, 18:14:57,-2.1411476,1.2645704,8.440049,3.171611,-0.20158546,-0.1747074,8.798754531361622,3.182809475067356,left
28/07/2020, 18:14:57,-2.1411476,1.2645704,8.440049,2.6890278,-0.25778502,-0.15515971,8.798754531361622,2.705808213663593,left
28/07/2020, 18:14:57,-2.2225783,1.7435743,8.270002,2.6890278,-0.25778502,-0.15515971,8.739155826926467,2.705808213663593,left
28/07/2020, 18:14:57,-2.2225783,1.7435743,8.270002,2.2919655,-0.32620192,-0.18814643,8.739155826926467,2.3226951049619933,left
28/07/2020, 18:14:57,-2.3950195,2.1076174,8.305928,2.2919655,-0.32620192,-0.18814643,8.897562213031309,2.3226951049619933,left
28/07/2020, 18:14:57,-2.3950195,2.1076174,8.305928,1.8680252,-0.44104454,-0.26267195,8.897562213031309,1.9372751287352845,left
28/07/2020, 18:14:57,-2.6057813,2.2417383,7.5874224,1.8680252,-0.44104454,-0.26267195,8.329733801149288,1.9372751287352845,left
28/07/2020, 18:14:57,-2.6057813,2.2417383,7.5874224,1.4550805,-0.59986943,-0.37995803,8.329733801149288,1.6190956514694101,left
28/07/2020, 18:14:57,-2.6417067,2.4189699,7.7550735,1.4550805,-0.59986943,-0.37995803,8.542317909727295,1.6190956514694101,left
28/07/2020, 18:14:58,3.6068995,1.5160475,4.0835085,-0.00610865,-3.054325,-0.49968758,5.655366085172708,3.0949356754093063,left
28/07/2020, 18:14:58,3.3650026,1.4370118,3.8224514,-0.00610865,-3.054325,-0.49968758,5.291444045188637,3.0949356754093063,left
28/07/2020, 18:14:58,3.3650026,1.4370118,3.8224514,-0.05009093,-3.072651,-0.49846584,5.291444045188637,3.113223554821327,left
28/07/2020, 18:14:58,3.1039455,1.1543995,3.4919386,-0.05009093,-3.072651,-0.49846584,4.812561790727376,3.113223554821327,left
28/07/2020, 18:14:58,3.1039455,1.1543995,3.4919386,-0.13072512,-3.0873117,-0.49357894,4.812561790727376,3.129249596207719,left
28/07/2020, 18:14:58,2.9219239,1.2070899,3.4823585,-0.13072512,-3.0873117,-0.49357894,4.703352589242953,3.129249596207719,left
28/07/2020, 18:14:58,2.9219239,1.2070899,3.4823585,-0.15760317,-3.1141899,-0.4764747,4.703352589242953,3.154369256550661,left
28/07/2020, 18:14:58,2.926714,1.1496094,3.532654,-0.15760317,-3.1141899,-0.4764747,4.729365813973597,3.154369256550661,left
28/07/2020, 18:14:58,2.926714,1.1496094,3.532654,-0.15638144,-3.1508417,-0.48258337,4.729365813973597,3.1914174544376572,left
28/07/2020, 18:14:58,2.936294,0.73048097,3.4536183,-0.15638144,-3.1508417,-0.48258337,4.591612422977434,3.1914174544376572,left
28/07/2020, 18:14:58,2.936294,0.73048097,3.4536183,-0.17592913,-3.1911588,-0.49357894,4.591612422977434,3.2338932471749975,left
28/07/2020, 18:14:58,2.8668385,0.6777906,3.302732,-0.17592913,-3.1911588,-0.49357894,4.4256300573651846,3.2338932471749975,left
28/07/2020, 18:14:58,2.8668385,0.6777906,3.302732,-0.13927722,-3.226589,-0.47769645,4.4256300573651846,3.2647309822569524,left
28/07/2020, 18:14:58,2.799778,0.6849756,3.2811768,-0.13927722,-3.226589,-0.47769645,4.367387044638279,3.2647309822569524,left
28/07/2020, 18:14:58,2.799778,0.6849756,3.2811768,-0.10751224,-3.2375846,-0.45814875,4.367387044638279,3.2716071189444103,left
28/07/2020, 18:14:58,2.8979738,0.6825806,2.703977,-0.10751224,-3.2375846,-0.45814875,4.021897620324783,3.2716071189444103,left
28/07/2020, 18:14:58,2.8979738,0.6825806,2.703977,-0.13683376,-3.2412498,-0.42394033,4.021897620324783,3.271719600664091,left
28/07/2020, 18:14:58,2.7542725,1.0226734,2.4165747,-0.13683376,-3.2412498,-0.42394033,3.804170207598419,3.271719600664091,left
28/07/2020, 18:14:58,2.7542725,1.0226734,2.4165747,-0.21013756,-3.2962277,-0.3335323,3.804170207598419,3.3197166445090707,left
28/07/2020, 18:14:58,2.7446926,1.1208692,2.1674929,-0.21013756,-3.2962277,-0.3335323,3.6725618130259727,3.3197166445090707,left
28/07/2020, 18:14:58,2.7446926,1.1208692,2.1674929,-0.36774075,-3.4269526,-0.27855444,3.6725618130259727,3.457864942585427,left
28/07/2020, 18:14:58,3.0799952,1.1208692,1.8130299,-0.36774075,-3.4269526,-0.27855444,3.7456368210237803,3.457864942585427,left
28/07/2020, 18:14:58,3.0799952,1.1208692,1.8130299,-0.49480066,-3.5723386,-0.32375845,3.7456368210237803,3.6209460316448587,left
28/07/2020, 18:14:58,3.2308815,1.477727,1.8130299,-0.49480066,-3.5723386,-0.32375845,3.988652601589217,3.6209460316448587,left
28/07/2020, 18:14:58,3.2308815,1.477727,1.8130299,-0.49968758,-3.6273165,-0.36041036,3.988652601589217,3.679267334460794,left
28/07/2020, 18:14:58,2.9698243,1.7172291,1.7675245,-0.49968758,-3.6273165,-0.36041036,3.8591288038458846,3.679267334460794,left
28/07/2020, 18:14:58,2.9698243,1.7172291,1.7675245,-0.44837493,-3.5979948,-0.36407554,3.8591288038458846,3.644057860062,left
28/07/2020, 18:14:58,2.4764502,1.6717237,1.1879297,-0.44837493,-3.5979948,-0.36407554,3.2153760144399075,3.644057860062,left
28/07/2020, 18:14:58,2.4764502,1.6717237,1.1879297,-0.39706227,-3.5552344,-0.40072745,3.2153760144399075,3.5997128782199117,left
28/07/2020, 18:14:58,1.9255958,1.5711329,0.24189699,-0.39706227,-3.5552344,-0.40072745,2.496976525476037,3.5997128782199117,left
28/07/2020, 18:14:59,-4.5768824,-12.667259,-3.9805226,10.3285055,2.3164,0.886976,14.044638430401879,10.622168414357851,left
28/07/2020, 18:14:59,-4.258345,-11.409874,-3.558999,10.3285055,2.3164,0.886976,12.687994379720188,10.622168414357851,left
28/07/2020, 18:14:59,-4.258345,-11.409874,-3.558999,10.708464,2.2736397,0.701273,12.687994379720188,10.969613274429124,left
28/07/2020, 18:14:59,-4.5529323,-10.487791,-2.5985963,10.708464,2.2736397,0.701273,11.725001340863749,10.969613274429124,left
28/07/2020, 18:14:59,-4.5529323,-10.487791,-2.5985963,10.877063,2.2003357,0.5986477,11.725001340863749,11.11352111439714,left
28/07/2020, 18:14:59,-4.7708793,-9.510623,-1.7387843,10.877063,2.2003357,0.5986477,10.781308330508876,11.11352111439714,left
28/07/2020, 18:14:59,-4.7708793,-9.510623,-1.7387843,10.879506,2.185675,0.52290046,10.781308330508876,11.109196771571845,left
28/07/2020, 18:14:59,-5.017566,-8.473579,-0.5676197,10.879506,2.185675,0.52290046,9.864061571036565,11.109196771571845,left
28/07/2020, 18:14:59,-5.017566,-8.473579,-0.5676197,10.682807,2.2614222,0.44104454,9.864061571036565,10.928445232022282,left
28/07/2020, 18:14:59,-5.8007374,-7.1467385,-0.06466553,10.682807,2.2614222,0.44104454,9.204814359843407,10.928445232022282,left
28/07/2020, 18:14:59,-5.8007374,-7.1467385,-0.06466553,10.406696,2.2736397,0.37018418,9.204814359843407,10.658602253912717,left
28/07/2020, 18:14:59,-6.241421,-5.3863993,0.6610254,10.406696,2.2736397,0.37018418,8.27076722868997,10.658602253912717,left
28/07/2020, 18:14:59,-6.241421,-5.3863993,0.6610254,10.015742,2.1771228,0.25167638,8.27076722868997,10.25272152563503,left
28/07/2020, 18:14:59,-6.3012967,-4.0044727,1.4753321,10.015742,2.1771228,0.25167638,7.610436717520449,10.25272152563503,left
28/07/2020, 18:14:59,-6.3012967,-4.0044727,1.4753321,9.495286,2.0598369,0.102625325,7.610436717520449,9.716682348248789,left
28/07/2020, 18:14:59,-5.9156985,-2.8309133,2.074087,9.495286,2.0598369,0.102625325,6.878327973218585,9.716682348248789,left
28/07/2020, 18:14:59,-5.9156985,-2.8309133,2.074087,8.888086,2.0158546,-0.095294945,6.878327973218585,9.11432001284813,left
28/07/2020, 18:14:59,-5.1876125,-2.1507277,2.9482691,8.888086,2.0158546,-0.095294945,6.3426527970590145,9.11432001284813,left
28/07/2020, 18:14:59,-5.1876125,-2.1507277,2.9482691,8.514236,2.0219631,-0.33475402,6.3426527970590145,8.75743212593567,left
28/07/2020, 18:14:59,-4.0811133,-2.7710378,3.923042,8.514236,2.0219631,-0.33475402,6.302729223197055,8.75743212593567,left
28/07/2020, 18:14:59,-4.0811133,-2.7710378,3.923042,8.455593,2.0341804,-0.6267475,6.302729223197055,8.71938972366036,left
28/07/2020, 18:14:59,-3.7170706,-4.6607084,5.233118,8.455593,2.0341804,-0.6267475,7.932486453807181,8.71938972366036,left
28/07/2020, 18:14:59,-3.7170706,-4.6607084,5.233118,8.535006,1.9376638,-0.9602798,7.932486453807181,8.804714554417941,left
28/07/2020, 18:14:59,-3.899092,-5.8821683,5.5301003,8.535006,1.9376638,-0.9602798,8.965758850450683,8.804714554417941,left
28/07/2020, 18:14:59,-3.899092,-5.8821683,5.5301003,8.684057,1.9120075,-1.3231336,8.965758850450683,8.989955787287519,left
28/07/2020, 18:14:59,-4.045188,-6.3803325,5.247488,8.684057,1.9120075,-1.3231336,9.19827801919196,8.989955787287519,left
28/07/2020, 18:14:59,-4.045188,-6.3803325,5.247488,9.061571,2.2369876,-1.5210539,9.19827801919196,9.456732504628826,left
28/07/2020, 18:14:59,-4.4643164,-5.853428,3.7577858,9.061571,2.2369876,-1.5210539,8.265209783146329,9.456732504628826,left
28/07/2020, 18:14:59,-4.4643164,-5.853428,3.7577858,9.473294,2.660928,-1.3720028,8.265209783146329,9.935101095277139,left
28/07/2020, 18:14:59,-6.382727,-4.718189,3.0704153,9.473294,2.660928,-1.3720028,8.510461848888214,9.935101095277139,left
28/07/2020, 18:15:00,-0.9388477,-6.353987,0.4526587,-1.2486081,0.67683846,0.01954768,6.4389042939003085,1.4203924203061735,left
28/07/2020, 18:15:00,-0.7496411,-7.0102224,0.4526587,-1.2486081,0.67683846,0.01954768,7.0647066682148925,1.4203924203061735,left
28/07/2020, 18:15:00,-0.7496411,-7.0102224,0.4526587,-1.2803731,0.6145302,0.09162975,7.0647066682148925,1.423165011928591,left
28/07/2020, 18:15:00,-0.38320315,-7.470066,0.61073,-1.2803731,0.6145302,0.09162975,7.504780001796731,1.423165011928591,left
28/07/2020, 18:15:00,-0.38320315,-7.470066,0.61073,-1.2571602,0.6181954,0.14660761,7.504780001796731,1.4085847849393973,left
28/07/2020, 18:15:00,0.016765138,-7.795789,0.7209009,-1.2571602,0.6181954,0.14660761,7.829067737314999,1.4085847849393973,left
28/07/2020, 18:15:00,0.016765138,-7.795789,0.7209009,-1.2290604,0.67195153,0.16126837,7.829067737314999,1.410005618244975,left
28/07/2020, 18:15:00,-0.5843848,-7.9634404,0.081430666,-1.2290604,0.67195153,0.16126837,7.985268927319145,1.410005618244975,left
28/07/2020, 18:15:00,-0.5843848,-7.9634404,0.081430666,-1.2156214,0.68539053,0.17959431,7.985268927319145,1.407035738283835,left
28/07/2020, 18:15:00,-1.8226099,-8.080796,-0.488584,-1.2156214,0.68539053,0.17959431,8.298185891519346,1.407035738283835,left
28/07/2020, 18:15:00,-1.8226099,-8.080796,-0.488584,-1.2913686,0.63896483,0.22602005,8.298185891519346,1.4584217467262772,left
28/07/2020, 18:15:00,-2.9051588,-7.9921803,-0.9316626,-1.2913686,0.63896483,0.22602005,8.554699839973123,1.4584217467262772,left
28/07/2020, 18:15:00,-2.9051588,-7.9921803,-0.9316626,-1.4746281,0.55588716,0.26145023,8.554699839973123,1.597465106760271,left
28/07/2020, 18:15:00,-3.5973196,-7.580237,-1.1759547,-1.4746281,0.55588716,0.26145023,8.472518481526986,1.597465106760271,left
28/07/2020, 18:15:00,-3.5973196,-7.580237,-1.1759547,-1.7006482,0.45448357,0.27000234,8.472518481526986,1.7809157297919063,left
28/07/2020, 18:15:00,-4.095484,-7.455696,-1.4801221,-1.7006482,0.45448357,0.27000234,8.634300968541366,1.7809157297919063,left
28/07/2020, 18:15:00,-4.095484,-7.455696,-1.4801221,-1.9254465,0.36896247,0.2809979,8.634300968541366,1.9805144248263313,left
28/07/2020, 18:15:00,-4.3469605,-7.697593,-1.7339942,-1.9254465,0.36896247,0.2809979,9.008648249272001,1.9805144248263313,left
28/07/2020, 18:15:00,-4.3469605,-7.697593,-1.7339942,-2.1160364,0.3249802,0.29321522,9.008648249272001,2.1608325715841983,left
28/07/2020, 18:15:00,-4.517007,-8.155042,-1.9926564,-2.1160364,0.3249802,0.29321522,9.533033906978298,2.1608325715841983,left
28/07/2020, 18:15:00,-4.517007,-8.155042,-1.9926564,-2.222327,0.28466308,0.2883283,9.533033906978298,2.2589607213475844,left
28/07/2020, 18:15:00,-5.0558863,-8.732242,-2.1363575,-2.222327,0.28466308,0.2883283,10.313973696848489,2.2589607213475844,left
28/07/2020, 18:15:00,-5.0558863,-8.732242,-2.1363575,-2.2272139,0.25778502,0.27122405,10.313973696848489,2.2584280329770947,left
28/07/2020, 18:15:00,-5.336104,-9.201666,-2.1291726,-2.2272139,0.25778502,0.27122405,10.847950762486295,2.2584280329770947,left
28/07/2020, 18:15:00,-5.336104,-9.201666,-2.1291726,-2.180788,0.26755887,0.25778502,10.847950762486295,2.212210962853936,left
28/07/2020, 18:15:00,-5.637876,-9.539363,-2.3566992,-2.180788,0.26755887,0.25778502,11.328685806578582,2.212210962853936,left
28/07/2020, 18:15:00,-5.637876,-9.539363,-2.3566992,-2.0598369,0.2883283,0.23335044,11.328685806578582,2.092967639332015,left
28/07/2020, 18:15:00,-5.9204884,-9.857901,-2.684817,-2.0598369,0.2883283,0.23335044,11.808413515202398,2.092967639332015,left
28/07/2020, 18:15:00,-5.9204884,-9.857901,-2.684817,-1.901012,0.30176732,0.20036373,11.808413515202398,1.935214600007874,left
28/07/2020, 18:15:00,-6.1528053,-10.097403,-2.9626393,-1.901012,0.30176732,0.20036373,12.189822965614903,1.935214600007874,left
28/07/2020, 18:15:01,-1.4082716,-10.744058,1.7771046,1.1105525,0.040317092,-0.13927722,10.980715116952771,1.1199779358349062,left
28/07/2020, 18:15:01,-1.5088624,-10.590776,1.705254,1.1105525,0.040317092,-0.13927722,10.832779071402776,1.1199779358349062,left
28/07/2020, 18:15:01,-1.5088624,-10.590776,1.705254,1.0616834,0.06230823,-0.11850781,10.832779071402776,1.070092562850544,left
28/07/2020, 18:15:01,-1.6118482,-10.226734,2.088457,1.0616834,0.06230823,-0.11850781,10.561524484212395,1.070092562850544,left
28/07/2020, 18:15:01,-1.6118482,-10.226734,2.088457,1.0323619,0.051312663,-0.07819072,10.561524484212395,1.0365895034610448,left
28/07/2020, 18:15:01,-1.6142433,-9.936936,2.201023,1.0323619,0.051312663,-0.07819072,10.304998234644689,1.0365895034610448,left
28/07/2020, 18:15:01,-1.6142433,-9.936936,2.201023,0.96516675,0.014660761,-0.02809979,10.304998234644689,0.9656870024656803,left
28/07/2020, 18:15:01,-1.453777,-9.496253,2.4764502,0.96516675,0.014660761,-0.02809979,9.92094221091211,0.9656870024656803,left
28/07/2020, 18:15:01,-1.453777,-9.496253,2.4764502,0.87842387,-0.0244346,0.0,9.92094221091211,0.8787636453442498,left
28/07/2020, 18:15:01,-1.0801538,-9.285491,2.574646,0.87842387,-0.0244346,0.0,9.696178484632336,0.8787636453442498,left
28/07/2020, 18:15:01,-1.0801538,-9.285491,2.574646,0.7855724,-0.051312663,-0.00488692,9.696178484632336,0.787261635105522,left
28/07/2020, 18:15:01,-0.78556645,-9.271121,2.680027,0.7855724,-0.051312663,-0.00488692,9.682631071756724,0.787261635105522,left
28/07/2020, 18:15:01,-0.78556645,-9.271121,2.680027,0.701273,-0.067195155,-0.00977384,9.682631071756724,0.7045527454181664,left
28/07/2020, 18:15:01,-0.5508545,-9.371712,2.8476784,0.701273,-0.067195155,-0.00977384,9.810285105605395,0.7045527454181664,left
28/07/2020, 18:15:01,-0.5508545,-9.371712,2.8476784,0.65606904,-0.058643043,0.01588249,9.810285105605395,0.6588761990164176,left
28/07/2020, 18:15:01,-0.32572266,-9.467513,2.7973828,0.65606904,-0.058643043,0.01588249,9.877512336824388,0.6588761990164176,left
28/07/2020, 18:15:01,-0.32572266,-9.467513,2.7973828,0.61697364,-0.02809979,0.036651902,9.877512336824388,0.6186997905039686,left
28/07/2020, 18:15:01,-0.27542725,-9.721385,2.7327175,0.61697364,-0.02809979,0.036651902,10.101927120231261,0.6186997905039686,left
28/07/2020, 18:15:01,-0.27542725,-9.721385,2.7327175,0.5815435,0.010995571,0.01588249,10.101927120231261,0.5818642492007694,left
28/07/2020, 18:15:01,-0.2945874,-9.977652,2.7327175,0.5815435,0.010995571,0.01588249,10.349302301237385,0.5818642492007694,left
28/07/2020, 18:15:01,-0.2945874,-9.977652,2.7327175,0.5302308,0.05253439,-0.02687806,10.349302301237385,0.5335044657513015,left
28/07/2020, 18:15:01,-0.3903882,-10.140513,2.7734327,0.5302308,0.05253439,-0.02687806,10.520187473599092,0.5335044657513015,left
28/07/2020, 18:15:01,-0.3903882,-10.140513,2.7734327,0.41783166,0.08185591,-0.06475169,10.520187473599092,0.4306697886315762,left
28/07/2020, 18:15:01,-0.44307864,-10.200389,2.8548634,0.41783166,0.08185591,-0.06475169,10.60162712150884,0.4306697886315762,left
28/07/2020, 18:15:01,-0.44307864,-10.200389,2.8548634,0.18203777,0.102625325,-0.109955706,10.60162712150884,0.23613547931837994,left
28/07/2020, 18:15:01,-0.5388794,-10.138118,3.159031,0.18203777,0.102625325,-0.109955706,10.632558471403515,0.23613547931837994,left
28/07/2020, 18:15:01,-0.5388794,-10.138118,3.159031,-0.101403594,0.0977384,-0.19181162,10.632558471403515,0.237964664934104,left
28/07/2020, 18:15:01,-0.60354495,-9.884246,3.307522,-0.101403594,0.0977384,-0.19181162,10.440415946820266,0.237964664934104,left
28/07/2020, 18:15:01,-0.60354495,-9.884246,3.307522,-0.38851014,0.074525535,-0.2968804,10.440415946820266,0.49460302367246484,left
28/07/2020, 18:15:01,-0.728086,-9.766891,3.3793726,-0.38851014,0.074525535,-0.2968804,10.360618654627778,0.49460302367246484,left
28/07/2020, 18:15:02,3.06323,1.8082398,-2.4213648,0.62430406,-3.1251855,-0.38117978,4.303035779561508,3.209647632341997,left
28/07/2020, 18:15:02,3.4823585,1.5447876,-2.7446926,0.62430406,-3.1251855,-0.38117978,4.695372887622736,3.209647632341997,left
28/07/2020, 18:15:02,3.4823585,1.5447876,-2.7446926,0.6511821,-3.131294,-0.3054325,4.695372887622736,3.212838207587411,left
28/07/2020, 18:15:02,3.788921,1.4130616,-2.8093581,0.6511821,-3.131294,-0.3054325,4.923937390090327,3.212838207587411,left
28/07/2020, 18:15:02,3.788921,1.4130616,-2.8093581,0.7843507,-3.0567684,-0.25167638,4.923937390090327,3.16581429775861,left
28/07/2020, 18:15:02,3.9829175,0.8095166,-3.2572267,0.7843507,-3.0567684,-0.25167638,5.208500277348702,3.16581429775861,left
28/07/2020, 18:15:02,3.9829175,0.8095166,-3.2572267,0.90896714,-2.9492562,-0.27122405,5.208500277348702,3.0980470894390417,left
28/07/2020, 18:15:02,4.033213,-0.1460962,-3.5206788,0.90896714,-2.9492562,-0.27122405,5.3556821453672185,3.0980470894390417,left
28/07/2020, 18:15:02,4.033213,-0.1460962,-3.5206788,1.0409139,-2.8478527,-0.3909536,5.3556821453672185,3.0572228553568572,left
28/07/2020, 18:15:02,4.023633,-1.0562036,-3.319497,1.0409139,-2.8478527,-0.3909536,5.322053142383537,3.0572228553568572,left
28/07/2020, 18:15:02,4.023633,-1.0562036,-3.319497,1.2974772,-2.7550013,-0.5803218,5.322053142383537,3.1000407706506325,left
28/07/2020, 18:15:02,3.9134622,-2.0453467,-2.7518775,1.2974772,-2.7550013,-0.5803218,5.203024062755498,3.1000407706506325,left
28/07/2020, 18:15:02,3.9134622,-2.0453467,-2.7518775,1.6933178,-2.6597064,-0.77091163,5.203024062755498,3.2458693305629245,left
28/07/2020, 18:15:02,3.7074904,-2.8883936,-2.069297,1.6933178,-2.6597064,-0.77091163,5.135201417863216,3.2458693305629245,left
28/07/2020, 18:15:02,3.7074904,-2.8883936,-2.069297,2.1661274,-2.5595243,-0.91263235,5.135201417863216,3.475078492712222,left
28/07/2020, 18:15:02,3.5063088,-3.4847536,-1.5735279,2.1661274,-2.5595243,-0.91263235,5.187841480395872,3.475078492712222,left
28/07/2020, 18:15:02,3.5063088,-3.4847536,-1.5735279,2.6902494,-2.4691164,-1.0213664,5.187841480395872,3.791723532008455,left
28/07/2020, 18:15:02,3.2069314,-3.8344264,-1.5256275,2.6902494,-2.4691164,-1.0213664,5.226353775891703,3.791723532008455,left
28/07/2020, 18:15:02,3.2069314,-3.8344264,-1.5256275,3.1557286,-2.4006996,-1.12277,5.226353775891703,4.120994281730697,left
28/07/2020, 18:15:02,2.8883936,-3.7242556,-1.7339942,3.1557286,-2.4006996,-1.12277,5.021915307522177,4.120994281730697,left
28/07/2020, 18:15:02,2.8883936,-3.7242556,-1.7339942,3.5222476,-2.3677127,-1.2119561,5.021915307522177,4.413743209342428,left
28/07/2020, 18:15:02,2.5243506,-3.151846,-1.9088306,3.5222476,-2.3677127,-1.2119561,4.4665549779703015,4.413743209342428,left
28/07/2020, 18:15:02,2.5243506,-3.151846,-1.9088306,3.8447845,-2.3603823,-1.2730427,4.4665549779703015,4.687687083126862,left
28/07/2020, 18:15:02,2.2872438,-2.308799,-2.2776637,3.8447845,-2.3603823,-1.2730427,3.96860042291371,4.687687083126862,left
28/07/2020, 18:15:02,2.2872438,-2.308799,-2.2776637,4.0512567,-2.357939,-1.2791513,3.96860042291371,4.8588872130841025,left
28/07/2020, 18:15:02,2.1459377,-1.3268409,-2.9913795,4.0512567,-2.357939,-1.2791513,3.913298679569569,4.8588872130841025,left
28/07/2020, 18:15:02,2.1459377,-1.3268409,-2.9913795,4.1563253,-2.3762648,-1.1838564,3.913298679569569,4.931854690104168,left
28/07/2020, 18:15:02,1.9878663,-0.33530274,-3.5973196,4.1563253,-2.3762648,-1.1838564,4.123681439019715,4.931854690104168,left
28/07/2020, 18:15:02,1.9878663,-0.33530274,-3.5973196,4.1160083,-2.4153602,-0.9871579,4.123681439019715,4.873394075273229,left
28/07/2020, 18:15:02,2.0046315,0.32093263,-4.2918754,4.1160083,-2.4153602,-0.9871579,4.747814171329969,4.873394075273229,left
28/07/2020, 18:15:03,-1.2645704,-10.253079,3.7625759,5.869191,1.8668035,0.38362324,10.994623813457183,6.170861138204117,left
28/07/2020, 18:15:03,-1.1256592,-10.104588,3.3171022,5.869191,1.8668035,0.38362324,10.694529691191336,6.170861138204117,left
28/07/2020, 18:15:03,-1.1256592,-10.104588,3.3171022,6.169737,2.0696106,0.08429937,10.694529691191336,6.508152376082865,left
28/07/2020, 18:15:03,-1.8537452,-10.051897,2.6105714,6.169737,2.0696106,0.08429937,10.549506556437878,6.508152376082865,left
28/07/2020, 18:15:03,-1.8537452,-10.051897,2.6105714,6.4055305,2.2052226,-0.1869247,10.549506556437878,6.7770766535219185,left
28/07/2020, 18:15:03,-2.6225464,-10.061478,1.7220191,6.4055305,2.2052226,-0.1869247,10.539280441537548,6.7770766535219185,left
28/07/2020, 18:15:03,-2.6225464,-10.061478,1.7220191,6.707298,2.1978924,-0.41294473,10.539280441537548,7.0702969018540225,left
28/07/2020, 18:15:03,-3.3985329,-10.624307,1.8082398,6.707298,2.1978924,-0.41294473,11.300249965980214,7.0702969018540225,left
28/07/2020, 18:15:03,-3.3985329,-10.624307,1.8082398,7.23142,2.013411,-0.6597342,11.300249965980214,7.535416978113379,left
28/07/2020, 18:15:03,-4.287085,-11.754756,2.7422974,7.23142,2.013411,-0.6597342,12.8091210226986,7.535416978113379,left
28/07/2020, 18:15:03,-4.287085,-11.754756,2.7422974,7.8618326,1.7519609,-0.900415,12.8091210226986,8.104845847113413,left
28/07/2020, 18:15:03,-5.2355127,-12.466077,4.3301954,7.8618326,1.7519609,-0.900415,14.197332780140064,8.104845847113413,left
28/07/2020, 18:15:03,-5.2355127,-12.466077,4.3301954,8.626636,1.5772535,-1.0983353,14.197332780140064,8.83815081192019,left
28/07/2020, 18:15:03,-5.7312818,-11.678116,5.9013286,8.626636,1.5772535,-1.0983353,14.284665172193098,8.83815081192019,left
28/07/2020, 18:15:03,-5.7312818,-11.678116,5.9013286,9.473294,1.6676614,-1.2705992,14.284665172193098,9.702516229557665,left
28/07/2020, 18:15:03,-5.640271,-9.3453665,5.9324636,9.473294,1.6676614,-1.2705992,12.423472082264546,9.702516229557665,left
28/07/2020, 18:15:03,-5.640271,-9.3453665,5.9324636,10.026738,1.973094,-1.4147633,12.423472082264546,10.31649811851213,left
28/07/2020, 18:15:03,-5.4223247,-6.356382,5.381609,10.026738,1.973094,-1.4147633,9.938154280002337,10.31649811851213,left
28/07/2020, 18:15:03,-5.4223247,-6.356382,5.381609,10.1770115,2.2919655,-1.5980228,9.938154280002337,10.553593964913075,left
28/07/2020, 18:15:03,-5.350474,-2.938689,4.744534,10.1770115,2.2919655,-1.5980228,7.731369010384805,10.553593964913075,left
28/07/2020, 18:15:03,-5.350474,-2.938689,4.744534,9.859362,2.4361296,-1.8130474,7.731369010384805,10.316437384409499,left
28/07/2020, 18:15:03,-5.350474,-2.938689,4.744534,9.021255,2.2895222,-1.9193379,7.731369010384805,9.503094395619154,left
28/07/2020, 18:15:03,-5.2283278,-0.4143384,3.9182522,9.021255,2.2895222,-1.9193379,6.546738724505531,9.503094395619154,left
28/07/2020, 18:15:03,-5.709727,0.61073,3.1135256,9.021255,2.2895222,-1.9193379,6.53207572034708,9.503094395619154,left
28/07/2020, 18:15:03,-5.709727,0.61073,3.1135256,7.733551,1.8924598,-1.8179343,6.53207572034708,8.166645602411503,left
28/07/2020, 18:15:03,-6.452183,0.9316626,2.2249732,7.733551,1.8924598,-1.8179343,6.888335319868937,8.166645602411503,left
28/07/2020, 18:15:03,-6.452183,0.9316626,2.2249732,6.230823,1.3842201,-1.633453,6.888335319868937,6.588428480786994,left
28/07/2020, 18:15:03,-6.696475,0.7592212,2.907554,6.230823,1.3842201,-1.633453,7.339827272165032,6.588428480786994,left
28/07/2020, 18:15:03,-6.696475,0.7592212,2.907554,5.007871,1.05924,-1.4624108,7.339827272165032,5.323477075906758,left
28/07/2020, 18:15:03,-6.816226,0.9244776,3.4368532,5.007871,1.05924,-1.4624108,7.689444418448573,5.323477075906758,left
28/07/2020, 18:15:04,-9.259146,-10.027947,-2.6488917,1.0751225,0.7171555,-0.38851014,13.903529642516771,1.3494963872139818,left
28/07/2020, 18:15:04,-8.669971,-10.609937,-2.1004322,1.0751225,0.7171555,-0.38851014,13.86185332303887,1.3494963872139818,left
28/07/2020, 18:15:04,-8.669971,-10.609937,-2.1004322,2.2382095,0.6646211,-0.4031709,13.86185332303887,2.3693563925377124,left
28/07/2020, 18:15:04,-7.776629,-11.1176815,-2.0549269,2.2382095,0.6646211,-0.4031709,13.72230026683524,2.3693563925377124,left
28/07/2020, 18:15:04,-7.776629,-11.1176815,-2.0549269,3.5283563,0.6181954,-0.43982282,13.72230026683524,3.6090037354498707,left
28/07/2020, 18:15:04,-6.957532,-11.852952,-2.7063723,3.5283563,0.6181954,-0.43982282,14.008003874764677,3.6090037354498707,left
28/07/2020, 18:15:04,-6.957532,-11.852952,-2.7063723,4.6657867,0.5986477,-0.50335276,14.008003874764677,4.7308888192425345,left
28/07/2020, 18:15:04,-6.0593996,-11.829002,-2.9889846,4.6657867,0.5986477,-0.50335276,13.622615377880468,4.7308888192425345,left
28/07/2020, 18:15:04,-6.0593996,-11.829002,-2.9889846,5.723805,0.61697364,-0.6352996,13.622615377880468,5.791908596953667,left
28/07/2020, 18:15:04,-5.343289,-10.7799835,-3.1302907,5.723805,0.61697364,-0.6352996,12.43211571349452,5.791908596953667,left
28/07/2020, 18:15:04,-5.343289,-10.7799835,-3.1302907,6.697524,0.6633994,-0.81122875,12.43211571349452,6.779013167720746,left
28/07/2020, 18:15:04,-4.8906302,-9.426797,-3.4536183,6.697524,0.6633994,-0.81122875,11.167374065399317,6.779013167720746,left
28/07/2020, 18:15:04,-4.8906302,-9.426797,-3.4536183,7.4598837,0.7000513,-0.96272326,11.167374065399317,7.554255262164905,left
28/07/2020, 18:15:04,-4.4283915,-7.9730206,-3.8272414,7.4598837,0.7000513,-0.96272326,9.890777751701156,7.554255262164905,left
28/07/2020, 18:15:04,-4.4283915,-7.9730206,-3.8272414,7.8801584,0.67683846,-1.0360271,9.890777751701156,7.976738631089979,left
28/07/2020, 18:15:04,-4.167334,-6.799461,-3.8487966,7.8801584,0.67683846,-1.0360271,8.85508763441868,7.976738631089979,left
28/07/2020, 18:15:04,-4.167334,-6.799461,-3.8487966,8.076858,0.610865,-0.97860575,8.85508763441868,8.158826717602425,left
28/07/2020, 18:15:04,-3.4631984,-5.855823,-3.5709743,8.076858,0.610865,-0.97860575,7.683506009877204,8.158826717602425,left
28/07/2020, 18:15:04,-3.4631984,-5.855823,-3.5709743,7.8728285,0.5167918,-0.86498487,7.683506009877204,7.937046109410606,left
28/07/2020, 18:15:04,-2.931504,-5.388794,-3.7434156,7.8728285,0.5167918,-0.86498487,7.186513498394604,7.937046109410606,left
28/07/2020, 18:15:04,-2.931504,-5.388794,-3.7434156,7.338932,0.44470972,-0.719599,7.186513498394604,7.387524139757548,left
28/07/2020, 18:15:04,-2.0549269,-4.89542,-2.5171657,7.338932,0.44470972,-0.719599,5.8757114564933275,7.387524139757548,left
28/07/2020, 18:15:04,-2.0549269,-4.89542,-2.5171657,6.750058,0.37995803,-0.64018655,5.8757114564933275,6.790986104976978,left
28/07/2020, 18:15:04,-1.3579761,-4.4906616,-1.6334034,6.750058,0.37995803,-0.64018655,4.967710494805208,6.790986104976978,left
28/07/2020, 18:15:04,-1.3579761,-4.4906616,-1.6334034,6.113537,0.321315,-0.5962043,4.967710494805208,6.1509377737935225,left
28/07/2020, 18:15:04,-1.1472144,-4.1625443,-0.25387207,6.113537,0.321315,-0.5962043,4.325196709078538,6.1509377737935225,left
28/07/2020, 18:15:04,-1.1472144,-4.1625443,-0.25387207,5.5552063,0.28344136,-0.55100024,4.325196709078538,5.589656276685177,left
28/07/2020, 18:15:04,-1.1735597,-4.112249,0.6346802,5.5552063,0.28344136,-0.55100024,4.323268700330578,5.589656276685177,left
28/07/2020, 18:15:04,-1.1735597,-4.112249,0.6346802,5.0579624,0.2809979,-0.4801399,4.323268700330578,5.088465188364573,left
28/07/2020, 18:15:04,-1.6070582,-4.4212065,1.5615528,5.0579624,0.2809979,-0.4801399,4.956626844297268,5.088465188364573,left
28/07/2020, 18:15:05,-4.4906616,-6.928792,6.933582,-0.4923572,-0.28221965,-0.6914992,10.781871699863393,0.8945583513490581,left
28/07/2020, 18:15:05,-4.600833,-6.969507,6.72761,-0.4923572,-0.28221965,-0.6914992,10.723918705223978,0.8945583513490581,left
28/07/2020, 18:15:05,-4.600833,-6.969507,6.72761,-0.5290091,-0.29077175,-0.67317325,10.723918705223978,0.9041908354109834,left
28/07/2020, 18:15:05,-4.5792775,-7.048543,6.6102543,-0.5290091,-0.29077175,-0.67317325,10.69332513306018,0.9041908354109834,left
28/07/2020, 18:15:05,-4.5792775,-7.048543,6.6102543,-0.5742131,-0.2809979,-0.6511821,10.69332513306018,0.9125341845304413,left
28/07/2020, 18:15:05,-4.5385623,-7.189849,6.4162574,-0.5742131,-0.2809979,-0.6511821,10.651799553062622,0.9125341845304413,left
28/07/2020, 18:15:05,-4.5385623,-7.189849,6.4162574,-0.62063885,-0.27488926,-0.6316344,10.651799553062622,0.9272101798368059,left
28/07/2020, 18:15:05,-4.5313773,-7.278465,6.320457,-0.62063885,-0.27488926,-0.6316344,10.651648069309873,0.9272101798368059,left
28/07/2020, 18:15:05,-4.5313773,-7.278465,6.320457,-0.64018655,-0.26633716,-0.6304127,10.651648069309873,0.9371203054569354,left
28/07/2020, 18:15:05,-4.4523416,-7.4964113,6.1552005,-0.64018655,-0.26633716,-0.6304127,10.672676376354334,0.9371203054569354,left
28/07/2020, 18:15:05,-4.4523416,-7.4964113,6.1552005,-0.64018655,-0.25411984,-0.63652134,10.672676376354334,0.9378566664484188,left
28/07/2020, 18:15:05,-4.406836,-7.5946074,6.013894,-0.64018655,-0.25411984,-0.63652134,10.64261183586509,0.9378566664484188,left
28/07/2020, 18:15:05,-4.406836,-7.5946074,6.013894,-0.65729076,-0.24068081,-0.6267475,10.64261183586509,0.9395588368537022,left
28/07/2020, 18:15:05,-4.30385,-7.692803,5.774392,-0.65729076,-0.24068081,-0.6267475,10.53783409049194,0.9395588368537022,left
28/07/2020, 18:15:05,-4.30385,-7.692803,5.774392,-0.687834,-0.24923292,-0.610865,10.53783409049194,0.953094295985133,left
28/07/2020, 18:15:05,-4.047583,-7.5323367,5.8749833,-0.687834,-0.24923292,-0.610865,10.374702608717683,0.953094295985133,left
28/07/2020, 18:15:05,-4.047583,-7.5323367,5.8749833,-0.6963861,-0.25900677,-0.62063885,10.374702608717683,0.9681067521920211,left
28/07/2020, 18:15:05,-3.803291,-7.527547,5.989944,-0.6963861,-0.25900677,-0.62063885,10.344487132046424,0.9681067521920211,left
28/07/2020, 18:15:05,-3.803291,-7.527547,5.989944,-0.68539053,-0.25045466,-0.64140826,10.344487132046424,0.9715411891204533,left
