DATE,TIME,ax,ay,az,gx,gy,gz,ma,mg,label
09/07/2020, 21:37:27,-2.3042881,2.6799614,9.1669035,-0.01099,-0.003663334,0.013432222,9.82466574,0.017737664,crawl
09/07/2020, 21:37:27,-2.3042881,2.6799614,9.1669035,0.004884445,0.003663334,0.023201112,9.82466574,0.023991027,crawl
09/07/2020, 21:37:27,-2.2468605,2.7613173,9.186047,0.004884445,0.003663334,0.023201112,9.851736255,0.023991027,crawl
09/07/2020, 21:37:27,-2.2468605,2.7613173,9.186047,0.004884445,0.01099,0.012211111,9.851736255,0.017139112,crawl
09/07/2020, 21:37:27,-2.239682,2.8522446,9.15494,0.004884445,0.01099,0.012211111,9.847050048,0.017139112,crawl
09/07/2020, 21:37:27,-2.239682,2.8522446,9.15494,-0.004884445,0.015874445,0.007326667,9.847050048,0.018153123,crawl
09/07/2020, 21:37:27,-2.2492533,2.8953154,9.15494,-0.004884445,0.015874445,0.007326667,9.861790488,0.018153123,crawl
09/07/2020, 21:37:27,-2.2492533,2.8953154,9.15494,-0.018316668,0.008547778,0.006105556,9.861790488,0.021114986,crawl
09/07/2020, 21:37:27,-2.2492533,2.9168508,9.145369,-0.018316668,0.008547778,0.006105556,9.859255819,0.021114986,crawl
09/07/2020, 21:37:28,-2.2492533,2.9168508,9.145369,-0.039075557,0.002442222,0.001221111,9.859255819,0.03917084,crawl
09/07/2020, 21:37:28,-2.2468605,2.8929226,9.1669035,-0.039075557,0.002442222,0.001221111,9.871651494,0.03917084,crawl
09/07/2020, 21:37:28,-2.2468605,2.8929226,9.1669035,-0.036633335,-0.001221111,0,9.871651494,0.036653681,crawl
09/07/2020, 21:37:28,-2.201397,2.8378878,9.205189,-0.036633335,-0.001221111,0,9.881055379,0.036653681,crawl
09/07/2020, 21:37:28,-2.201397,2.8378878,9.205189,-0.02075889,0.004884445,-0.009768889,9.881055379,0.023456779,crawl
09/07/2020, 21:37:28,-2.158326,2.7230322,9.174082,-0.02075889,0.004884445,-0.009768889,9.810048533,0.023456779,crawl
09/07/2020, 21:37:28,-2.158326,2.7230322,9.174082,-0.003663334,0.014653334,-0.014653334,9.810048533,0.021044249,crawl
09/07/2020, 21:37:28,-2.1631117,2.7158537,9.188439,-0.003663334,0.014653334,-0.014653334,9.822542007,0.021044249,crawl
09/07/2020, 21:37:28,-2.1631117,2.7158537,9.188439,0.003663334,0.019537779,-0.025643334,9.822542007,0.03244573,crawl
09/07/2020, 21:37:28,-2.1631117,2.7182465,9.224331,0.003663334,0.019537779,-0.025643334,9.856784292,0.03244573,crawl
09/07/2020, 21:37:28,-2.1631117,2.7182465,9.224331,0.009768889,0.025643334,-0.026864445,9.856784292,0.038401955,crawl
09/07/2020, 21:37:28,-2.2037897,2.766103,9.212367,0.009768889,0.025643334,-0.026864445,9.867913755,0.038401955,crawl
09/07/2020, 21:37:28,-2.2037897,2.766103,9.212367,0.007326667,0.02198,-0.03174889,9.867913755,0.039303849,crawl
09/07/2020, 21:37:28,-2.2301106,2.804388,9.202796,0.007326667,0.02198,-0.03174889,9.875699454,0.039303849,crawl
09/07/2020, 21:37:28,-2.2301106,2.804388,9.202796,0.006105556,0.017095556,-0.034191113,9.875699454,0.038711343,crawl
09/07/2020, 21:37:28,-2.2301106,2.7996025,9.226724,0.006105556,0.017095556,-0.034191113,9.896645765,0.038711343,crawl
09/07/2020, 21:37:28,-2.2301106,2.7996025,9.226724,0.007326667,0.014653334,-0.03052778,9.896645765,0.034646004,crawl
09/07/2020, 21:37:28,-2.2348964,2.8019953,9.195618,0.007326667,0.014653334,-0.03052778,9.869413558,0.034646004,crawl
09/07/2020, 21:37:28,-2.2348964,2.8019953,9.195618,0.006105556,0.012211111,-0.03052778,9.869413558,0.033441507,crawl
09/07/2020, 21:37:28,-2.2468605,2.7828526,9.186047,0.006105556,0.012211111,-0.03052778,9.85779403,0.033441507,crawl
09/07/2020, 21:37:29,1.0408778,-4.7425747,8.573483,-0.7888378,0.10501556,0.6838223,9.852921399,1.049240788,crawl
09/07/2020, 21:37:29,0.8925229,-4.87418,8.456235,-0.7888378,0.10501556,0.6838223,9.801129293,1.049240788,crawl
09/07/2020, 21:37:29,0.8925229,-4.87418,8.456235,-0.61788225,0.14409111,0.70336,9.801129293,0.947236003,crawl
09/07/2020, 21:37:29,0.8207382,-4.910072,8.425129,-0.61788225,0.14409111,0.70336,9.785970282,0.947236003,crawl
09/07/2020, 21:37:29,0.8207382,-4.910072,8.425129,-0.46646446,0.17950334,0.7558678,9.785970282,0.906171419,crawl
09/07/2020, 21:37:29,0.7728817,-4.8933225,8.4347,-0.46646446,0.17950334,0.7558678,9.781927988,0.906171419,crawl
09/07/2020, 21:37:29,0.7728817,-4.8933225,8.4347,-0.3394689,0.18316667,0.7986067,9.781927988,0.8868832,crawl
09/07/2020, 21:37:29,0.63888365,-4.9340005,8.4682,-0.3394689,0.18316667,0.7986067,9.821554859,0.8868832,crawl
09/07/2020, 21:37:29,0.63888365,-4.9340005,8.4682,-0.24055889,0.17217667,0.7900589,9.821554859,0.843626974,crawl
09/07/2020, 21:37:29,0.41874397,-5.0775695,8.606983,-0.24055889,0.17217667,0.7900589,10.00186072,0.843626974,crawl
09/07/2020, 21:37:29,0.41874397,-5.0775695,8.606983,-0.13798556,0.16729222,0.7680789,10.00186072,0.798105215,crawl
09/07/2020, 21:37:29,0.25124636,-5.2235317,8.788837,-0.13798556,0.16729222,0.7680789,10.22702654,0.798105215,crawl
09/07/2020, 21:37:29,0.25124636,-5.2235317,8.788837,-0.008547778,0.17584,0.7485411,10.22702654,0.768964613,crawl
09/07/2020, 21:37:29,0.15792629,-5.3383875,8.913264,-0.008547778,0.17584,0.7485411,10.3908422,0.768964613,crawl
09/07/2020, 21:37:29,0.15792629,-5.3383875,8.913264,0.13310112,0.20026223,0.7351089,10.3908422,0.773437769,crawl
09/07/2020, 21:37:29,0.047856454,-5.3790655,9.0233345,0.13310112,0.20026223,0.7351089,10.5051036,0.773437769,crawl
09/07/2020, 21:37:29,0.047856454,-5.3790655,9.0233345,0.2503278,0.2283478,0.7216767,10.5051036,0.797260302,crawl
09/07/2020, 21:37:29,-0.038285162,-5.3479586,8.973084,0.2503278,0.2283478,0.7216767,10.44597392,0.797260302,crawl
09/07/2020, 21:37:29,-0.038285162,-5.3479586,8.973084,0.3162678,0.23689556,0.71557117,10.44597392,0.817427008,crawl
09/07/2020, 21:37:29,-0.15314065,-5.2737813,8.863015,0.3162678,0.23689556,0.71557117,10.31451692,0.817427008,crawl
09/07/2020, 21:37:30,-7.240681,-6.71426,4.6707897,-1.8402145,0.41395667,-1.8072445,10.92359964,2.612256175,crawl
09/07/2020, 21:37:30,-7.240681,-6.71426,4.6707897,-1.5972134,0.4383789,-1.8646368,10.92359964,2.494020245,crawl
09/07/2020, 21:37:30,-7.240681,-6.7334027,4.625326,-1.5972134,0.4383789,-1.8646368,10.91603491,2.494020245,crawl
09/07/2020, 21:37:30,-7.240681,-6.7334027,4.625326,-1.35177,0.46524334,-1.9037123,10.91603491,2.380725526,crawl
09/07/2020, 21:37:30,-7.3292155,-6.6257257,4.6468616,-1.35177,0.46524334,-1.9037123,10.91837736,2.380725526,crawl
09/07/2020, 21:37:30,-7.3292155,-6.6257257,4.6468616,-1.1539501,0.48478112,-1.9537779,10.91837736,2.320314994,crawl
09/07/2020, 21:37:30,-7.4919276,-6.3792653,4.7138605,-1.1539501,0.48478112,-1.9537779,10.91075095,2.320314994,crawl
09/07/2020, 21:37:30,-7.4919276,-6.3792653,4.7138605,-1.0025322,0.5043189,-2.012391,10.91075095,2.30415415,crawl
09/07/2020, 21:37:30,-7.757531,-6.1064835,4.7569313,-1.0025322,0.5043189,-2.012391,10.95886972,2.30415415,crawl
09/07/2020, 21:37:30,-7.757531,-6.1064835,4.7569313,-0.8950745,0.5226356,-2.064899,10.95886972,2.310435897,crawl
09/07/2020, 21:37:30,-8.063812,-5.8360944,4.759324,-0.8950745,0.5226356,-2.064899,11.03341431,2.310435897,crawl
09/07/2020, 21:37:30,-8.063812,-5.8360944,4.759324,-0.8535567,0.5030978,-2.108859,11.03341431,2.330011361,crawl
09/07/2020, 21:37:30,-8.360522,-5.5513487,4.792824,-0.8535567,0.5030978,-2.108859,11.12146415,2.330011361,crawl
09/07/2020, 21:37:30,-8.360522,-5.5513487,4.792824,-0.8645467,0.47501224,-2.152819,11.12146415,2.368059744,crawl
09/07/2020, 21:37:30,-8.635697,-5.302495,4.814359,-0.8645467,0.47501224,-2.152819,11.21917005,2.368059744,crawl
09/07/2020, 21:37:30,-8.635697,-5.302495,4.814359,-0.90240115,0.46402225,-2.2053268,11.21917005,2.427573018,crawl
09/07/2020, 21:37:30,-8.930014,-5.1062837,4.8119664,-0.90240115,0.46402225,-2.2053268,11.35668515,2.427573018,crawl
09/07/2020, 21:37:30,-8.930014,-5.1062837,4.8119664,-0.9304867,0.45181113,-2.27493,11.35668515,2.499048873,crawl
09/07/2020, 21:37:30,-9.221938,-5.0679984,4.7832522,-0.9304867,0.45181113,-2.27493,11.55890362,2.499048873,crawl
09/07/2020, 21:37:30,-9.221938,-5.0679984,4.7832522,-0.92438114,0.4261678,-2.3543024,11.55890362,2.564924811,crawl
09/07/2020, 21:37:31,-7.826923,-5.1014977,3.5772698,0.23811668,-0.06227667,0.19049335,10.00414211,0.311232473,crawl
09/07/2020, 21:37:31,-7.826923,-5.1014977,3.5772698,0.32115224,-0.025643334,0.058613338,10.00414211,0.327462769,crawl
09/07/2020, 21:37:31,-7.8604226,-5.103891,3.5796626,0.32115224,-0.025643334,0.058613338,10.03244387,0.327462769,crawl
09/07/2020, 21:37:31,-7.8604226,-5.103891,3.5796626,0.39686114,0.019537779,-0.07693,10.03244387,0.404720535,crawl
09/07/2020, 21:37:31,-7.8436728,-5.0416775,3.562913,0.39686114,0.019537779,-0.07693,9.981786545,0.404720535,crawl
09/07/2020, 21:37:31,-7.8436728,-5.0416775,3.562913,0.42250445,0.06716111,-0.21613668,9.981786545,0.479307515,crawl
09/07/2020, 21:37:31,-7.8723865,-4.8909297,3.546163,0.42250445,0.06716111,-0.21613668,9.92325221,0.479307515,crawl
09/07/2020, 21:37:31,-7.8723865,-4.8909297,3.546163,0.38953447,0.091583334,-0.35900667,9.92325221,0.537596879,crawl
09/07/2020, 21:37:31,-8.001599,-4.682754,3.5150564,0.38953447,0.091583334,-0.35900667,9.915109593,0.537596879,crawl
09/07/2020, 21:37:31,-8.001599,-4.682754,3.5150564,0.31260446,0.102573335,-0.49943447,9.915109593,0.598061558,crawl
09/07/2020, 21:37:31,-8.147561,-4.510471,3.4743786,0.31260446,0.102573335,-0.49943447,9.939738701,0.598061558,crawl
09/07/2020, 21:37:31,-8.147561,-4.510471,3.4743786,0.21491556,0.098910004,-0.64108336,9.939738701,0.68334454,crawl
09/07/2020, 21:37:31,-8.271988,-4.3740797,3.426522,0.21491556,0.098910004,-0.64108336,9.964908954,0.68334454,crawl
09/07/2020, 21:37:31,-8.271988,-4.3740797,3.426522,0.1306589,0.09524667,-0.7754056,9.964908954,0.792084274,crawl
09/07/2020, 21:37:31,-8.386844,-4.2927237,3.4073794,0.1306589,0.09524667,-0.7754056,10.01882516,0.792084274,crawl
09/07/2020, 21:37:31,-8.386844,-4.2927237,3.4073794,0.05617111,0.098910004,-0.8999589,10.01882516,0.907118746,crawl
09/07/2020, 21:37:31,-8.482556,-4.2257247,3.3930225,0.05617111,0.098910004,-0.8999589,10.06593827,0.907118746,crawl
09/07/2020, 21:37:31,-8.482556,-4.2257247,3.3930225,-0.025643334,0.106236674,-1.0293967,10.06593827,1.035181762,crawl
09/07/2020, 21:37:31,-8.647661,-4.213761,3.400201,-0.025643334,0.106236674,-1.0293967,10.20290117,1.035181762,crawl
09/07/2020, 21:37:31,-8.647661,-4.213761,3.400201,-0.10745778,0.11844778,-1.1624979,10.20290117,1.173447216,crawl
09/07/2020, 21:37:32,-8.233703,-4.15394,3.67059,0.102573335,0.04029667,0.93537116,9.925840472,0.94184092,crawl
09/07/2020, 21:37:32,-8.233703,-4.15394,3.67059,0.07326667,0.029306669,0.85599893,9.925840472,0.859628443,crawl
09/07/2020, 21:37:32,-8.092526,-4.1898327,3.6586258,0.07326667,0.029306669,0.85599893,9.819838344,0.859628443,crawl
09/07/2020, 21:37:32,-8.092526,-4.1898327,3.6586258,0.057392225,0.025643334,0.77296335,9.819838344,0.775515171,crawl
09/07/2020, 21:37:32,-7.960921,-4.211368,3.6801612,0.057392225,0.025643334,0.77296335,9.729104174,0.775515171,crawl
09/07/2020, 21:37:32,-7.960921,-4.211368,3.6801612,0.05372889,0.024422223,0.69481224,9.729104174,0.697314337,crawl
09/07/2020, 21:37:32,-7.8604226,-4.2329035,3.6921253,0.05372889,0.024422223,0.69481224,9.661030219,0.697314337,crawl
09/07/2020, 21:37:32,-7.8604226,-4.2329035,3.6921253,0.06716111,0.025643334,0.60811335,9.661030219,0.612347973,crawl
09/07/2020, 21:37:32,-7.771888,-4.2711883,3.7064822,0.06716111,0.025643334,0.60811335,9.611623114,0.612347973,crawl
09/07/2020, 21:37:32,-7.771888,-4.2711883,3.7064822,0.07448778,0.029306669,0.5324045,9.611623114,0.53838819,crawl
09/07/2020, 21:37:32,-7.7551384,-4.2951164,3.7208393,0.07448778,0.029306669,0.5324045,9.614304004,0.53838819,crawl
09/07/2020, 21:37:32,-7.7551384,-4.2951164,3.7208393,0.07326667,0.023201112,0.45181113,9.614304004,0.458300773,crawl
09/07/2020, 21:37:32,-7.776674,-4.2999024,3.723232,0.07326667,0.023201112,0.45181113,9.634743019,0.458300773,crawl
09/07/2020, 21:37:32,-7.776674,-4.2999024,3.723232,0.064718895,0.013432222,0.3712178,9.634743019,0.377056502,crawl
09/07/2020, 21:37:32,-7.836494,-4.2951164,3.7136607,0.064718895,0.013432222,0.3712178,9.677289845,0.377056502,crawl
09/07/2020, 21:37:32,-7.836494,-4.2951164,3.7136607,0.051286668,0.001221111,0.2869611,9.677289845,0.291510705,crawl
09/07/2020, 21:37:32,-7.884351,-4.316652,3.6801612,0.051286668,0.001221111,0.2869611,9.712880976,0.291510705,crawl
09/07/2020, 21:37:32,-7.884351,-4.316652,3.6801612,0.037854444,-0.015874445,0.20514667,9.712880976,0.209213081,crawl
09/07/2020, 21:37:32,-7.925029,-4.304688,3.6514473,0.037854444,-0.015874445,0.20514667,9.729824635,0.209213081,crawl
09/07/2020, 21:37:32,-7.925029,-4.304688,3.6514473,0.036633335,-0.03174889,0.11234222,9.729824635,0.122355092,crawl
09/07/2020, 21:37:33,-9.042477,-2.902494,3.1441689,0.10013112,0.28818223,1.8621945,10.00383191,1.887019803,crawl
09/07/2020, 21:37:33,-9.147761,-2.9192436,3.2135608,0.10013112,0.28818223,1.8621945,10.12573424,1.887019803,crawl
09/07/2020, 21:37:33,-9.147761,-2.9192436,3.2135608,0.12089001,0.29306668,1.8597523,10.12573424,1.886579201,crawl
09/07/2020, 21:37:33,-9.272188,-3.089134,3.3044882,0.12089001,0.29306668,1.8597523,10.31677588,1.886579201,crawl
09/07/2020, 21:37:33,-9.272188,-3.089134,3.3044882,0.15508112,0.28818223,1.8524256,10.31677588,1.881111284,crawl
09/07/2020, 21:37:33,-9.327223,-3.2039895,3.3930225,0.15508112,0.28818223,1.8524256,10.42953673,1.881111284,crawl
09/07/2020, 21:37:33,-9.327223,-3.2039895,3.3930225,0.21125223,0.2869611,1.8475412,10.42953673,1.881590475,crawl
09/07/2020, 21:37:33,-9.329616,-3.2422748,3.4456646,0.21125223,0.2869611,1.8475412,10.4607207,1.881590475,crawl
09/07/2020, 21:37:33,-9.329616,-3.2422748,3.4456646,0.28818223,0.29795113,1.8353301,10.4607207,1.881558013,crawl
09/07/2020, 21:37:33,-9.274581,-3.1441689,3.455236,0.28818223,0.29795113,1.8353301,10.38471498,1.881558013,crawl
09/07/2020, 21:37:33,-9.274581,-3.1441689,3.455236,0.36267,0.32237336,1.834109,10.38471498,1.897211046,crawl
09/07/2020, 21:37:33,-9.195618,-2.928815,3.4097722,0.36267,0.32237336,1.834109,10.23542316,1.897211046,crawl
09/07/2020, 21:37:33,-9.195618,-2.928815,3.4097722,0.3931978,0.3309211,1.7974756,10.23542316,1.8695004,crawl
09/07/2020, 21:37:33,-9.174082,-2.7565317,3.400201,0.3931978,0.3309211,1.7974756,10.16482225,1.8695004,crawl
09/07/2020, 21:37:33,-9.174082,-2.7565317,3.400201,0.39808223,0.3260367,1.7400835,10.16482225,1.814568769,crawl
09/07/2020, 21:37:33,-9.238688,-2.6751757,3.438486,0.39808223,0.3260367,1.7400835,10.21435833,1.814568769,crawl
09/07/2020, 21:37:33,-9.238688,-2.6751757,3.438486,0.40296668,0.31138334,1.691239,10.21435833,1.76624774,crawl
09/07/2020, 21:37:33,-9.32483,-2.6201408,3.5102708,0.40296668,0.31138334,1.691239,10.30240723,1.76624774,crawl
09/07/2020, 21:37:33,-9.32483,-2.6201408,3.5102708,0.39686114,0.3052778,1.6497211,10.30240723,1.724028176,crawl
09/07/2020, 21:37:33,-9.322437,-2.5052853,3.5820556,0.39686114,0.3052778,1.6497211,10.29637865,1.724028176,crawl
09/07/2020, 21:37:34,-8.477771,-3.9026937,2.8666015,0.19171445,0.05250778,0.83890337,9.76324845,0.862131288,crawl
09/07/2020, 21:37:34,-8.477771,-3.9026937,2.8666015,0.17950334,0.037854444,0.8914111,9.76324845,0.910092414,crawl
09/07/2020, 21:37:34,-8.583055,-3.845266,2.8235307,0.17950334,0.037854444,0.8914111,9.819736359,0.910092414,crawl
09/07/2020, 21:37:34,-8.583055,-3.845266,2.8235307,0.15019667,0.02075889,0.9317078,9.819736359,0.943964721,crawl
09/07/2020, 21:37:34,-8.58784,-3.8165522,2.7972097,0.15019667,0.02075889,0.9317078,9.805174653,0.943964721,crawl
09/07/2020, 21:37:34,-8.58784,-3.8165522,2.7972097,0.11844778,0.012211111,0.97078335,9.805174653,0.978058948,crawl
09/07/2020, 21:37:34,-8.520842,-3.7974095,2.737389,0.11844778,0.012211111,0.97078335,9.722055325,0.978058948,crawl
09/07/2020, 21:37:34,-8.520842,-3.7974095,2.737389,0.08669889,0.013432222,1.0074167,9.722055325,1.011229737,crawl
09/07/2020, 21:37:34,-8.456235,-3.792624,2.6751757,0.08669889,0.013432222,1.0074167,9.64616353,1.011229737,crawl
09/07/2020, 21:37:34,-8.456235,-3.792624,2.6751757,0.06349778,0.03174889,1.0416079,9.64616353,1.044024371,crawl
09/07/2020, 21:37:34,-8.492127,-3.818945,2.6536403,0.06349778,0.03174889,1.0416079,9.682064613,1.044024371,crawl
09/07/2020, 21:37:34,-8.492127,-3.818945,2.6536403,0.06105556,0.05250778,1.0794623,9.682064613,1.082461862,crawl
09/07/2020, 21:37:34,-8.652447,-3.842873,2.6249263,0.06105556,0.05250778,1.0794623,9.824599054,1.082461862,crawl
09/07/2020, 21:37:34,-8.652447,-3.842873,2.6249263,0.064718895,0.06960334,1.1063267,9.824599054,1.110401696,crawl
09/07/2020, 21:37:34,-8.913264,-3.897908,2.617748,0.064718895,0.06960334,1.1063267,10.07435215,1.110401696,crawl
09/07/2020, 21:37:34,-8.913264,-3.897908,2.617748,0.07204556,0.07326667,1.1331911,10.07435215,1.137840347,crawl
09/07/2020, 21:37:34,-9.157332,-3.912265,2.6129622,0.07204556,0.07326667,1.1331911,10.29515064,1.137840347,crawl
09/07/2020, 21:37:34,-9.157332,-3.912265,2.6129622,0.059834447,0.068382226,1.1515079,10.29515064,1.155087282,crawl
09/07/2020, 21:37:34,-9.293723,-3.8668015,2.5818555,0.059834447,0.068382226,1.1515079,10.39189208,1.155087282,crawl
09/07/2020, 21:37:34,-9.293723,-3.8668015,2.5818555,0.009768889,0.070824444,1.1698245,10.39189208,1.172007188,crawl
09/07/2020, 21:37:35,-9.793823,-4.0677986,2.5316064,0.8205867,0.2942878,-2.1760201,10.9029808,2.34414835,crawl
09/07/2020, 21:37:35,-9.793823,-4.0677986,2.5316064,0.8962956,0.33214223,-2.1894524,10.9029808,2.389009446,crawl
09/07/2020, 21:37:35,-9.927821,-4.022335,2.6225336,0.8962956,0.33214223,-2.1894524,11.02807755,2.389009446,crawl
09/07/2020, 21:37:35,-9.927821,-4.022335,2.6225336,0.92560226,0.35778558,-2.2102113,11.02807755,2.422763701,crawl
09/07/2020, 21:37:35,-10.0881405,-3.991228,2.7206392,0.92560226,0.35778558,-2.2102113,11.18491654,2.422763701,crawl
09/07/2020, 21:37:35,-10.0881405,-3.991228,2.7206392,0.9304867,0.3492378,-2.2224224,11.18491654,2.434529452,crawl
09/07/2020, 21:37:35,-10.236495,-3.952943,2.7397819,0.9304867,0.3492378,-2.2224224,11.31008373,2.434529452,crawl
09/07/2020, 21:37:35,-10.236495,-3.952943,2.7397819,0.90362227,0.31871,-2.2224224,11.31008373,2.420179833,crawl
09/07/2020, 21:37:35,-10.253245,-3.8811584,2.7062824,0.90362227,0.31871,-2.2224224,11.29231574,2.420179833,crawl
09/07/2020, 21:37:35,-10.253245,-3.8811584,2.7062824,0.85722005,0.28574002,-2.20899,11.29231574,2.386652641,crawl
09/07/2020, 21:37:35,-10.150353,-3.7950168,2.5914268,0.85722005,0.28574002,-2.20899,11.14214163,2.386652641,crawl
09/07/2020, 21:37:35,-10.150353,-3.7950168,2.5914268,0.78395337,0.26620224,-2.1931157,11.14214163,2.344184942,crawl
09/07/2020, 21:37:35,-9.9756775,-3.6873398,2.4502504,0.78395337,0.26620224,-2.1931157,10.91395176,2.344184942,crawl
09/07/2020, 21:37:35,-9.9756775,-3.6873398,2.4502504,0.6801589,0.2613178,-2.162588,10.91395176,2.282036257,crawl
09/07/2020, 21:37:35,-9.772287,-3.5174494,2.321038,0.6801589,0.2613178,-2.162588,10.6422398,2.282036257,crawl
09/07/2020, 21:37:35,-9.772287,-3.5174494,2.321038,0.55316335,0.2503278,-2.129618,10.6422398,2.214481028,crawl
09/07/2020, 21:37:35,-9.62154,-3.385844,2.239682,0.55316335,0.2503278,-2.129618,10.44289941,2.214481028,crawl
09/07/2020, 21:37:35,-9.62154,-3.385844,2.239682,0.44692668,0.25277,-2.0917635,10.44289941,2.15385948,crawl
09/07/2020, 21:37:35,-9.556933,-3.4049866,2.172683,0.44692668,0.25277,-2.0917635,10.37542584,2.15385948,crawl
09/07/2020, 21:37:35,-9.556933,-3.4049866,2.172683,0.38831335,0.26620224,-2.053909,10.37542584,2.107176626,crawl
09/07/2020, 21:37:36,-8.379665,-4.3070807,3.3690944,0.1526389,0.04151778,-1.1270856,10.00602485,1.138131905,crawl
09/07/2020, 21:37:36,-8.487342,-4.2568316,3.4073794,0.1526389,0.04151778,-1.1270856,10.08790475,1.138131905,crawl
09/07/2020, 21:37:36,-8.487342,-4.2568316,3.4073794,0.16851334,0.05250778,-1.1783723,10.08790475,1.191517942,crawl
09/07/2020, 21:37:36,-8.678768,-4.194618,3.4600215,0.16851334,0.05250778,-1.1783723,10.24146413,1.191517942,crawl
09/07/2020, 21:37:36,-8.678768,-4.194618,3.4600215,0.1526389,0.047623336,-1.2247745,10.24146413,1.235167657,crawl
09/07/2020, 21:37:36,-8.834301,-4.1611185,3.4337006,0.1526389,0.047623336,-1.2247745,10.35133232,1.235167657,crawl
09/07/2020, 21:37:36,-8.834301,-4.1611185,3.4337006,0.1306589,0.026864445,-1.2662922,10.35133232,1.273298636,crawl
09/07/2020, 21:37:36,-8.932407,-4.168297,3.3690944,0.1306589,0.026864445,-1.2662922,10.41697638,1.273298636,crawl
09/07/2020, 21:37:36,-8.932407,-4.168297,3.3690944,0.109900005,0.01099,-1.2980411,10.41697638,1.302731554,crawl
09/07/2020, 21:37:36,-8.91805,-4.1491547,3.306881,0.109900005,0.01099,-1.2980411,10.37702069,1.302731554,crawl
09/07/2020, 21:37:36,-8.91805,-4.1491547,3.306881,0.10135223,0.004884445,-1.339559,10.37702069,1.343396567,crawl
09/07/2020, 21:37:36,-8.874979,-4.139583,3.2015967,0.10135223,0.004884445,-1.339559,10.30299095,1.343396567,crawl
09/07/2020, 21:37:36,-8.874979,-4.139583,3.2015967,0.12211112,0.017095556,-1.3700867,10.30299095,1.37562381,crawl
09/07/2020, 21:37:36,-8.831908,-4.1467614,3.1274192,0.12211112,0.017095556,-1.3700867,10.24592525,1.37562381,crawl
09/07/2020, 21:37:36,-8.831908,-4.1467614,3.1274192,0.16607112,0.036633335,-1.4018356,10.24592525,1.412113507,crawl
09/07/2020, 21:37:36,-8.803194,-4.165904,3.0364919,0.16607112,0.036633335,-1.4018356,10.20153247,1.412113507,crawl
09/07/2020, 21:37:36,-8.803194,-4.165904,3.0364919,0.22590557,0.06594,-1.4299212,10.20153247,1.449156963,crawl
09/07/2020, 21:37:36,-8.829515,-4.197011,2.9599216,0.22590557,0.06594,-1.4299212,10.21451812,1.449156963,crawl
09/07/2020, 21:37:36,-8.829515,-4.197011,2.9599216,0.29673,0.08792,-1.4470167,10.21451812,1.47974187,crawl
09/07/2020, 21:37:36,-8.851051,-4.197011,2.8881369,0.29673,0.08792,-1.4470167,10.21260718,1.47974187,crawl
09/07/2020, 21:37:37,-8.422736,-4.017549,3.2590244,-0.23079,-0.014653334,0.74976224,9.884554858,0.78461593,crawl
09/07/2020, 21:37:37,-8.4012,-3.991228,3.2709885,-0.23079,-0.014653334,0.74976224,9.859484454,0.78461593,crawl
09/07/2020, 21:37:37,-8.4012,-3.991228,3.2709885,-0.25277,-0.028085556,0.68260115,9.859484454,0.72844067,crawl
09/07/2020, 21:37:37,-8.276773,-3.9984066,3.3236306,-0.25277,-0.028085556,0.68260115,9.774392804,0.72844067,crawl
09/07/2020, 21:37:37,-8.276773,-3.9984066,3.3236306,-0.27108666,-0.03052778,0.6117767,9.774392804,0.669843763,crawl
09/07/2020, 21:37:37,-8.1738825,-4.034299,3.3260236,-0.27108666,-0.03052778,0.6117767,9.703110599,0.669843763,crawl
09/07/2020, 21:37:37,-8.1738825,-4.034299,3.3260236,-0.25887558,-0.024422223,0.54095227,9.703110599,0.600201936,crawl
09/07/2020, 21:37:37,-8.123632,-4.106084,3.35713,-0.25887558,-0.024422223,0.54095227,9.701734422,0.600201936,crawl
09/07/2020, 21:37:37,-8.123632,-4.106084,3.35713,-0.21980001,-0.014653334,0.4701278,9.701734422,0.519179068,crawl
09/07/2020, 21:37:37,-7.989635,-4.1491547,3.37388,-0.21980001,-0.014653334,0.4701278,9.614198737,0.519179068,crawl
09/07/2020, 21:37:37,-7.989635,-4.1491547,3.37388,-0.15630223,0.001221111,0.38953447,9.614198737,0.419724891,crawl
09/07/2020, 21:37:37,-7.8963146,-4.2161536,3.3906298,-0.15630223,0.001221111,0.38953447,9.572048171,0.419724891,crawl
09/07/2020, 21:37:37,-7.8963146,-4.2161536,3.3906298,-0.085477784,0.023201112,0.31138334,9.572048171,0.323734962,crawl
09/07/2020, 21:37:37,-7.850851,-4.2687955,3.4313076,-0.085477784,0.023201112,0.31138334,9.572478719,0.323734962,crawl
09/07/2020, 21:37:37,-7.850851,-4.2687955,3.4313076,-0.02075889,0.048844445,0.23445335,9.572478719,0.240385284,crawl
09/07/2020, 21:37:37,-7.8484583,-4.223332,3.438486,-0.02075889,0.048844445,0.23445335,9.552906195,0.240385284,crawl
09/07/2020, 21:37:37,-7.8484583,-4.223332,3.438486,0.019537779,0.06349778,0.16729222,9.552906195,0.180001058,crawl
09/07/2020, 21:37:37,-7.9537425,-4.206582,3.4863427,0.019537779,0.06349778,0.16729222,9.649452717,0.180001058,crawl
09/07/2020, 21:37:37,-7.9537425,-4.206582,3.4863427,0.042738892,0.06716111,0.085477784,9.649452717,0.116806163,crawl
09/07/2020, 21:37:37,-8.118847,-4.173083,3.493521,0.042738892,0.06716111,0.085477784,9.774199915,0.116806163,crawl
09/07/2020, 21:37:38,-8.807981,-3.912265,3.141776,-0.16729222,-0.19293556,1.4970822,10.13691748,1.51870538,crawl
09/07/2020, 21:37:38,-8.736196,-3.8907297,3.1226335,-0.16729222,-0.19293556,1.4970822,10.06030467,1.51870538,crawl
09/07/2020, 21:37:38,-8.736196,-3.8907297,3.1226335,-0.15508112,-0.18072446,1.4958612,10.06030467,1.514698693,crawl
09/07/2020, 21:37:38,-8.717052,-3.8620157,3.0675986,-0.15508112,-0.18072446,1.4958612,10.01560433,1.514698693,crawl
09/07/2020, 21:37:38,-8.717052,-3.8620157,3.0675986,-0.14287001,-0.1746189,1.4873134,10.01560433,1.504328661,crawl
09/07/2020, 21:37:38,-8.685946,-3.8691943,3.0747771,-0.14287001,-0.1746189,1.4873134,9.993527138,1.504328661,crawl
09/07/2020, 21:37:38,-8.685946,-3.8691943,3.0747771,-0.12943779,-0.16240779,1.4751023,9.993527138,1.48965004,crawl
09/07/2020, 21:37:38,-8.7266245,-3.885944,3.0795627,-0.12943779,-0.16240779,1.4751023,10.03684418,1.48965004,crawl
09/07/2020, 21:37:38,-8.7266245,-3.885944,3.0795627,-0.12821667,-0.1306589,1.4677756,10.03684418,1.479147195,crawl
09/07/2020, 21:37:38,-8.717052,-3.818945,2.9479575,-0.12821667,-0.1306589,1.4677756,9.963021504,1.479147195,crawl
09/07/2020, 21:37:38,-8.717052,-3.818945,2.9479575,-0.29673,-0.12577444,1.4287001,9.963021504,1.464599555,crawl
09/07/2020, 21:37:38,-8.956335,-3.3164523,2.8833513,-0.29673,-0.12577444,1.4287001,9.976397563,1.464599555,crawl
09/07/2020, 21:37:38,-8.956335,-3.3164523,2.8833513,-0.36755446,-0.37610224,1.35177,9.976397563,1.450459039,crawl
09/07/2020, 21:37:38,-9.315259,-3.9290147,3.3690944,-0.36755446,-0.37610224,1.35177,10.65654743,1.450459039,crawl
09/07/2020, 21:37:38,-9.315259,-3.9290147,3.3690944,-0.3052778,-0.25765446,1.28583,10.65654743,1.346454305,crawl
09/07/2020, 21:37:38,-8.987442,-4.682754,3.5389848,-0.3052778,-0.25765446,1.28583,10.73437062,1.346454305,crawl
09/07/2020, 21:37:38,-8.987442,-4.682754,3.5389848,-0.12821667,-0.12943779,1.27484,10.73437062,1.287792947,crawl
09/07/2020, 21:37:38,-8.69791,-4.508078,3.3547373,-0.12821667,-0.12943779,1.27484,10.35522448,1.287792947,crawl
09/07/2020, 21:37:38,-8.69791,-4.508078,3.3547373,-0.04396,-0.11234222,1.3139156,10.35522448,1.319442112,crawl
09/07/2020, 21:37:38,-8.413164,-3.9074793,3.4169507,-0.04396,-0.11234222,1.3139156,9.885609607,1.319442112,crawl
09/07/2020, 21:37:39,-8.458628,-3.2231321,2.617748,0.017095556,0.035412222,-0.4249467,9.42282166,0.426762203,crawl
09/07/2020, 21:37:39,-8.458628,-3.2231321,2.617748,-0.02198,0.014653334,-0.3614489,9.42282166,0.362412966,crawl
09/07/2020, 21:37:39,-8.458628,-3.2566316,2.6321049,-0.02198,0.014653334,-0.3614489,9.438326552,0.362412966,crawl
09/07/2020, 21:37:39,-8.458628,-3.2566316,2.6321049,-0.05250778,-0.003663334,-0.29306668,9.438326552,0.297755884,crawl
09/07/2020, 21:37:39,-8.439486,-3.2829528,2.6488547,-0.05250778,-0.003663334,-0.29306668,9.434994792,0.297755884,crawl
09/07/2020, 21:37:39,-8.439486,-3.2829528,2.6488547,-0.070824444,-0.007326667,-0.23567446,9.434994792,0.246195514,crawl
09/07/2020, 21:37:39,-8.382058,-3.347559,2.6656044,-0.070824444,-0.007326667,-0.23567446,9.411189956,0.246195514,crawl
09/07/2020, 21:37:39,-8.382058,-3.347559,2.6656044,-0.07448778,-0.013432222,-0.17339778,9.411189956,0.189197369,crawl
09/07/2020, 21:37:39,-8.379665,-3.3619158,2.6751757,-0.07448778,-0.013432222,-0.17339778,9.416890924,0.189197369,crawl
09/07/2020, 21:37:39,-8.379665,-3.3619158,2.6751757,-0.081814446,-0.028085556,-0.10867889,9.416890924,0.138901057,crawl
09/07/2020, 21:37:39,-8.367701,-3.37388,2.6321049,-0.081814446,-0.028085556,-0.10867889,9.398375107,0.138901057,crawl
09/07/2020, 21:37:39,-8.367701,-3.37388,2.6321049,-0.089141116,-0.035412222,-0.046402223,9.398375107,0.106552007,crawl
09/07/2020, 21:37:39,-8.331808,-3.3786657,2.656033,-0.089141116,-0.035412222,-0.046402223,9.374909033,0.106552007,crawl
09/07/2020, 21:37:39,-8.331808,-3.3786657,2.656033,-0.091583334,-0.046402223,0.025643334,9.374909033,0.105821803,crawl
09/07/2020, 21:37:39,-8.260024,-3.3954153,2.672783,-0.091583334,-0.046402223,0.025643334,9.32204973,0.105821803,crawl
09/07/2020, 21:37:39,-8.260024,-3.3954153,2.672783,-0.09036223,-0.042738892,0.098910004,9.32204973,0.140624088,crawl
09/07/2020, 21:37:39,-8.228917,-3.3954153,2.6679974,-0.09036223,-0.042738892,0.098910004,9.293122834,0.140624088,crawl
09/07/2020, 21:37:39,-8.228917,-3.3954153,2.6679974,-0.089141116,-0.04396,0.16485001,9.293122834,0.192494536,crawl
09/07/2020, 21:37:39,-8.219346,-3.4217365,2.6416762,-0.089141116,-0.04396,0.16485001,9.286785399,0.192494536,crawl
09/07/2020, 21:37:39,-8.219346,-3.4217365,2.6416762,-0.07937223,-0.04151778,0.23811668,9.286785399,0.254407607,crawl
09/07/2020, 21:37:40,-9.5760765,-3.9026937,3.1752756,-0.064718895,0.015874445,-1.812129,10.81733029,1.813353832,crawl
09/07/2020, 21:37:40,-9.5760765,-3.9026937,3.1752756,-0.017095556,0.03174889,-1.8304456,10.81733029,1.830800786,crawl
09/07/2020, 21:37:40,-9.530613,-3.9074793,3.1250265,-0.017095556,0.03174889,-1.8304456,10.76414269,1.830800786,crawl
09/07/2020, 21:37:40,-9.530613,-3.9074793,3.1250265,0.034191113,0.047623336,-1.8377723,10.76414269,1.838707116,crawl
09/07/2020, 21:37:40,-9.408579,-3.8476589,3.1154552,0.034191113,0.047623336,-1.8377723,10.63164597,1.838707116,crawl
09/07/2020, 21:37:40,-9.408579,-3.8476589,3.1154552,0.07204556,0.06960334,-1.8438779,10.63164597,1.846597124,crawl
09/07/2020, 21:37:40,-9.272188,-3.790231,3.089134,0.07204556,0.06960334,-1.8438779,10.48246505,1.846597124,crawl
09/07/2020, 21:37:40,-9.272188,-3.790231,3.089134,0.091583334,0.081814446,-1.8389934,10.48246505,1.84308924,crawl
09/07/2020, 21:37:40,-9.183653,-3.7136607,3.0412776,0.091583334,0.081814446,-1.8389934,10.36243822,1.84308924,crawl
09/07/2020, 21:37:40,-9.183653,-3.7136607,3.0412776,0.089141116,0.09036223,-1.8267823,10.36243822,1.831186831,crawl
09/07/2020, 21:37:40,-9.097511,-3.6729827,2.9982069,0.089141116,0.09036223,-1.8267823,10.25888678,1.831186831,crawl
09/07/2020, 21:37:40,-9.097511,-3.6729827,2.9982069,0.06960334,0.10135223,-1.8096868,10.25888678,1.813858633,crawl
09/07/2020, 21:37:40,-9.047262,-3.629912,2.9623144,0.06960334,0.10135223,-1.8096868,10.18845032,1.813858633,crawl
09/07/2020, 21:37:40,-9.047262,-3.629912,2.9623144,0.064718895,0.117226675,-1.7816012,10.18845032,1.786626271,crawl
09/07/2020, 21:37:40,-9.080762,-3.6634114,2.9383862,0.064718895,0.117226675,-1.7816012,10.22325453,1.786626271,crawl
09/07/2020, 21:37:40,-9.080762,-3.6634114,2.9383862,0.07204556,0.11966889,-1.7486312,10.22325453,1.754201361,crawl
09/07/2020, 21:37:40,-9.06162,-3.6466618,2.8977082,0.07204556,0.11966889,-1.7486312,10.18861165,1.754201361,crawl
09/07/2020, 21:37:40,-9.06162,-3.6466618,2.8977082,0.081814446,0.11234222,-1.7181034,10.18861165,1.723715087,crawl
09/07/2020, 21:37:40,-9.016156,-3.6873398,2.9168508,0.081814446,0.11234222,-1.7181034,10.16836102,1.723715087,crawl
09/07/2020, 21:37:40,-9.016156,-3.6873398,2.9168508,0.09036223,0.11966889,-1.6863545,10.16836102,1.693008428,crawl
09/07/2020, 21:37:41,-8.269595,-2.2564318,3.8333018,-0.057392225,0.012211111,-0.32359445,9.38998887,0.328871323,crawl
09/07/2020, 21:37:41,-8.269595,-2.2564318,3.8333018,-0.07448778,-0.001221111,-0.3858711,9.38998887,0.392996738,crawl
09/07/2020, 21:37:41,-8.30788,-2.292324,3.8261235,-0.07448778,-0.001221111,-0.3858711,9.429466965,0.392996738,crawl
09/07/2020, 21:37:41,-8.30788,-2.292324,3.8261235,-0.078151114,-0.017095556,-0.4591378,9.429466965,0.466055117,crawl
09/07/2020, 21:37:41,-8.362915,-2.3234308,3.8333018,-0.078151114,-0.017095556,-0.4591378,9.488460417,0.466055117,crawl
09/07/2020, 21:37:41,-8.362915,-2.3234308,3.8333018,-0.06227667,-0.02198,-0.53851,9.488460417,0.542544515,crawl
09/07/2020, 21:37:41,-8.391629,-2.3545375,3.842873,-0.06227667,-0.02198,-0.53851,9.52528012,0.542544515,crawl
09/07/2020, 21:37:41,-8.391629,-2.3545375,3.842873,-0.037854444,-0.028085556,-0.60933447,9.52528012,0.611154851,crawl
09/07/2020, 21:37:41,-8.403593,-2.400001,3.8644085,-0.037854444,-0.028085556,-0.60933447,9.555837714,0.611154851,crawl
09/07/2020, 21:37:41,-8.403593,-2.400001,3.8644085,-0.007326667,-0.034191113,-0.6838223,9.555837714,0.684715718,crawl
09/07/2020, 21:37:41,-8.410771,-2.4598217,3.8572302,-0.007326667,-0.034191113,-0.6838223,9.574446331,0.684715718,crawl
09/07/2020, 21:37:41,-8.410771,-2.4598217,3.8572302,0.024422223,-0.028085556,-0.77052116,9.574446331,0.771419541,crawl
09/07/2020, 21:37:41,-8.441878,-2.4885356,3.8787656,0.024422223,-0.028085556,-0.77052116,9.617844958,0.771419541,crawl
09/07/2020, 21:37:41,-8.441878,-2.4885356,3.8787656,0.048844445,-0.02198,-0.8498934,9.617844958,0.851579519,crawl
09/07/2020, 21:37:41,-8.46102,-2.5220351,3.8763726,0.048844445,-0.02198,-0.8498934,9.642395599,0.851579519,crawl
09/07/2020, 21:37:41,-8.46102,-2.5220351,3.8763726,0.047623336,-0.03052778,-0.9292656,9.642395599,0.930985777,crawl
09/07/2020, 21:37:41,-8.559127,-2.524428,3.804588,0.047623336,-0.03052778,-0.9292656,9.700839094,0.930985777,crawl
09/07/2020, 21:37:41,-8.559127,-2.524428,3.804588,0.026864445,-0.04151778,-1.0061955,9.700839094,1.007409996,crawl
09/07/2020, 21:37:41,-8.659625,-2.5674987,3.802195,0.026864445,-0.04151778,-1.0061955,9.799889945,1.007409996,crawl
09/07/2020, 21:37:41,-8.659625,-2.5674987,3.802195,0.006105556,-0.05250778,-1.0941156,9.799889945,1.095391858,crawl
09/07/2020, 21:37:42,-9.016156,-2.1511476,4.168297,-0.05617111,0.20392556,1.1295278,10.16332657,1.149162259,crawl
09/07/2020, 21:37:42,-9.016156,-2.1511476,4.168297,-0.18438779,0.19415668,1.075799,10.16332657,1.108620375,crawl
09/07/2020, 21:37:42,-8.965906,-1.9669002,4.194618,-0.18438779,0.19415668,1.075799,10.09212522,1.108620375,crawl
09/07/2020, 21:37:42,-8.965906,-1.9669002,4.194618,-0.34557447,0.15141778,1.0232911,10.09212522,1.09062998,crawl
09/07/2020, 21:37:42,-8.91805,-1.8496519,4.06062,-0.34557447,0.15141778,1.0232911,9.972033802,1.09062998,crawl
09/07/2020, 21:37:42,-8.91805,-1.8496519,4.06062,-0.5189722,0.10135223,0.9646778,9.972033802,1.100094412,crawl
09/07/2020, 21:37:42,-8.793623,-1.7994026,4.0127635,-0.5189722,0.10135223,0.9646778,9.831984823,1.100094412,crawl
09/07/2020, 21:37:42,-8.793623,-1.7994026,4.0127635,-0.6655056,0.06594,0.92316,9.831984823,1.139943063,crawl
09/07/2020, 21:37:42,-8.688339,-1.8592232,3.9290147,-0.6655056,0.06594,0.92316,9.71499388,1.139943063,crawl
09/07/2020, 21:37:42,-8.688339,-1.8592232,3.9290147,-0.7656367,0.046402223,0.8779789,9.71499388,1.165847195,crawl
09/07/2020, 21:37:42,-8.585447,-1.9381863,3.9170506,-0.7656367,0.046402223,0.8779789,9.633782073,1.165847195,crawl
09/07/2020, 21:37:42,-8.585447,-1.9381863,3.9170506,-0.81570226,0.024422223,0.8230289,9.633782073,1.159026845,crawl
09/07/2020, 21:37:42,-8.5016985,-2.0865414,3.95055,-0.81570226,0.024422223,0.8230289,9.604133396,1.159026845,crawl
09/07/2020, 21:37:42,-8.5016985,-2.0865414,3.95055,-0.8205867,0.015874445,0.7570889,9.604133396,1.116601138,crawl
09/07/2020, 21:37:42,-8.4705925,-2.254039,4.063013,-0.8205867,0.015874445,0.7570889,9.661247568,1.116601138,crawl
09/07/2020, 21:37:42,-8.4705925,-2.254039,4.063013,-0.77906895,0.015874445,0.69603336,9.661247568,1.044826712,crawl
09/07/2020, 21:37:42,-8.415557,-2.3856442,4.1515474,-0.77906895,0.015874445,0.69603336,9.682367602,1.044826712,crawl
09/07/2020, 21:37:42,-8.415557,-2.3856442,4.1515474,-0.70580226,0.01099,0.6191034,9.682367602,0.93891778,crawl
09/07/2020, 21:37:42,-8.370093,-2.5435705,4.2281175,-0.70580226,0.01099,0.6191034,9.71623337,0.93891778,crawl
09/07/2020, 21:37:42,-8.370093,-2.5435705,4.2281175,-0.61299783,0.012211111,0.5458367,9.71623337,0.820885583,crawl
09/07/2020, 21:37:43,-8.848659,-3.2015967,3.6849468,-0.20026223,0.059834447,1.174709,10.10583063,1.193158108,crawl
09/07/2020, 21:37:43,-8.939586,-3.1920254,3.7064822,-0.20026223,0.059834447,1.174709,10.19034978,1.193158108,crawl
09/07/2020, 21:37:43,-8.939586,-3.1920254,3.7064822,-0.21003112,0.058613338,1.1954678,10.19034978,1.215192136,crawl
09/07/2020, 21:37:43,-9.013762,-3.1776686,3.6490545,-0.21003112,0.058613338,1.1954678,10.23040031,1.215192136,crawl
09/07/2020, 21:37:43,-9.013762,-3.1776686,3.6490545,-0.21980001,0.06349778,1.2089001,10.23040031,1.230359074,crawl
09/07/2020, 21:37:43,-9.056833,-3.1776686,3.641876,-0.21980001,0.06349778,1.2089001,10.26582033,1.230359074,crawl
09/07/2020, 21:37:43,-9.056833,-3.1776686,3.641876,-0.22102112,0.07570889,1.229659,10.26582033,1.251656235,crawl
09/07/2020, 21:37:43,-9.075976,-3.1513474,3.6179478,-0.22102112,0.07570889,1.229659,10.26615234,1.251656235,crawl
09/07/2020, 21:37:43,-9.075976,-3.1513474,3.6179478,-0.21491556,0.09524667,1.2504178,10.26615234,1.272322825,crawl
09/07/2020, 21:37:43,-9.109476,-3.101098,3.6179478,-0.21491556,0.09524667,1.2504178,10.28051118,1.272322825,crawl
09/07/2020, 21:37:43,-9.109476,-3.101098,3.6179478,-0.21980001,0.11356334,1.2589656,10.28051118,1.28304446,crawl
09/07/2020, 21:37:43,-9.157332,-3.0867412,3.5892339,-0.21980001,0.11356334,1.2589656,10.3086036,1.28304446,crawl
09/07/2020, 21:37:43,-9.157332,-3.0867412,3.5892339,-0.2283478,0.13310112,1.2723979,10.3086036,1.299559532,crawl
09/07/2020, 21:37:43,-9.176475,-2.969493,3.5198421,-0.2283478,0.13310112,1.2723979,10.26717402,1.299559532,crawl
09/07/2020, 21:37:43,-9.176475,-2.969493,3.5198421,-0.25521225,0.15019667,1.284609,10.26717402,1.318299098,crawl
09/07/2020, 21:37:43,-9.21476,-2.900101,3.4528432,-0.25521225,0.15019667,1.284609,10.25887471,1.318299098,crawl
09/07/2020, 21:37:43,-9.21476,-2.900101,3.4528432,-0.29306668,0.14897557,1.2882723,10.25887471,1.329559032,crawl
09/07/2020, 21:37:43,-9.200403,-2.8546374,3.385844,-0.29306668,0.14897557,1.2882723,10.21079397,1.329559032,crawl
09/07/2020, 21:37:43,-9.200403,-2.8546374,3.385844,-0.30161446,0.15141778,1.2785034,10.21079397,1.322297099,crawl
09/07/2020, 21:37:43,-9.195618,-2.8809586,3.4504502,-0.30161446,0.15141778,1.2785034,10.23547327,1.322297099,crawl
09/07/2020, 21:37:44,-7.745567,-3.562913,3.0077782,0.14531223,0.10501556,0.11234222,9.040734698,0.211576674,crawl
09/07/2020, 21:37:44,-7.745567,-3.562913,3.0077782,0.15996556,0.10501556,0.18683001,9.040734698,0.267437287,crawl
09/07/2020, 21:37:44,-7.812566,-3.574877,3.0412776,0.15996556,0.10501556,0.18683001,9.114016672,0.267437287,crawl
09/07/2020, 21:37:44,-7.812566,-3.574877,3.0412776,0.17217667,0.102573335,0.27108666,9.114016672,0.3371262,crawl
09/07/2020, 21:37:44,-7.91785,-3.548556,3.048456,0.17217667,0.102573335,0.27108666,9.196612579,0.3371262,crawl
09/07/2020, 21:37:44,-7.91785,-3.548556,3.048456,0.15874445,0.091583334,0.35900667,9.196612579,0.403079521,crawl
09/07/2020, 21:37:44,-8.068598,-3.481557,3.0077782,0.15874445,0.091583334,0.35900667,9.288177338,0.403079521,crawl
09/07/2020, 21:37:44,-8.068598,-3.481557,3.0077782,0.13188,0.064718895,0.43227336,9.288177338,0.45655353,crawl
09/07/2020, 21:37:44,-8.233703,-3.4432719,2.9742785,0.13188,0.064718895,0.43227336,9.407247897,0.45655353,crawl
09/07/2020, 21:37:44,-8.233703,-3.4432719,2.9742785,0.09036223,0.026864445,0.52019334,9.407247897,0.528666379,crawl
09/07/2020, 21:37:44,-8.322237,-3.3690944,2.9048867,0.09036223,0.026864445,0.52019334,9.436566785,0.528666379,crawl
09/07/2020, 21:37:44,-8.322237,-3.3690944,2.9048867,0.05006556,0.001221111,0.6068922,9.436566785,0.608955029,crawl
09/07/2020, 21:37:44,-8.286345,-3.3092737,2.8498518,0.05006556,0.001221111,0.6068922,9.366773924,0.608955029,crawl
09/07/2020, 21:37:44,-8.286345,-3.3092737,2.8498518,0.017095556,-0.02198,0.69237006,9.366773924,0.692929776,crawl
09/07/2020, 21:37:44,-8.226524,-3.2877383,2.8474588,0.017095556,-0.02198,0.69237006,9.305533196,0.692929776,crawl
09/07/2020, 21:37:44,-8.226524,-3.2877383,2.8474588,-0.017095556,-0.042738892,0.76930004,9.305533196,0.770675955,crawl
09/07/2020, 21:37:44,-8.1738825,-3.2805598,2.8498518,-0.017095556,-0.042738892,0.76930004,9.25721788,0.770675955,crawl
09/07/2020, 21:37:44,-8.1738825,-3.2805598,2.8498518,-0.042738892,-0.05006556,0.84623003,9.25721788,0.848786449,crawl
09/07/2020, 21:37:44,-8.092526,-3.2925239,2.8474588,-0.042738892,-0.05006556,0.84623003,9.188999909,0.848786449,crawl
09/07/2020, 21:37:44,-8.092526,-3.2925239,2.8474588,-0.05617111,-0.051286668,0.9280445,9.188999909,0.931156328,crawl
09/07/2020, 21:37:45,-8.834301,-3.400201,3.17049,0.2820767,0.047623336,-1.5996556,9.9828978,1.625033344,crawl
09/07/2020, 21:37:45,-8.642876,-3.3284163,3.0364919,0.2820767,0.047623336,-1.5996556,9.746688573,1.625033344,crawl
09/07/2020, 21:37:45,-8.642876,-3.3284163,3.0364919,0.27963445,0.059834447,-1.5349368,9.746688573,1.561347662,crawl
09/07/2020, 21:37:45,-8.465807,-3.2446675,2.9240294,0.27963445,0.059834447,-1.5349368,9.526158855,1.561347662,crawl
09/07/2020, 21:37:45,-8.465807,-3.2446675,2.9240294,0.28085557,0.07204556,-1.4702178,9.526158855,1.49853624,crawl
09/07/2020, 21:37:45,-8.298309,-3.2231321,2.8929226,0.28085557,0.07204556,-1.4702178,9.36052989,1.49853624,crawl
09/07/2020, 21:37:45,-8.298309,-3.2231321,2.8929226,0.30161446,0.08059334,-1.4030567,9.36052989,1.43737079,crawl
09/07/2020, 21:37:45,-8.262417,-3.278167,2.969493,0.30161446,0.08059334,-1.4030567,9.371862095,1.43737079,crawl
09/07/2020, 21:37:45,-8.262417,-3.278167,2.969493,0.33214223,0.08303556,-1.3310112,9.371862095,1.374337702,crawl
09/07/2020, 21:37:45,-8.219346,-3.3403804,3.0556345,0.33214223,0.08303556,-1.3310112,9.383639648,1.374337702,crawl
09/07/2020, 21:37:45,-8.219346,-3.3403804,3.0556345,0.3602278,0.089141116,-1.2540811,9.383639648,1.307833966,crawl
09/07/2020, 21:37:45,-8.257631,-3.318845,3.1561332,0.3602278,0.089141116,-1.2540811,9.442689431,1.307833966,crawl
09/07/2020, 21:37:45,-8.257631,-3.318845,3.1561332,0.35900667,0.089141116,-1.1661612,9.442689431,1.223422996,crawl
09/07/2020, 21:37:45,-8.30788,-3.3092737,3.1633115,0.35900667,0.089141116,-1.1661612,9.485710772,1.223422996,crawl
09/07/2020, 21:37:45,-8.30788,-3.3092737,3.1633115,0.33580557,0.06960334,-1.0745778,9.485710772,1.127974941,crawl
09/07/2020, 21:37:45,-8.300702,-3.2685957,3.158526,0.33580557,0.06960334,-1.0745778,9.463702195,1.127974941,crawl
09/07/2020, 21:37:45,-8.300702,-3.2685957,3.158526,0.2869611,0.04396,-0.99398446,9.463702195,1.035511597,crawl
09/07/2020, 21:37:45,-8.221739,-3.2015967,3.101098,0.2869611,0.04396,-0.99398446,9.352220057,1.035511597,crawl
09/07/2020, 21:37:45,-8.221739,-3.2015967,3.101098,0.22590557,0.013432222,-0.90362227,9.352220057,0.931529364,crawl
09/07/2020, 21:37:45,-8.056634,-3.1393833,3.0436704,0.22590557,0.013432222,-0.90362227,9.166733758,0.931529364,crawl
09/07/2020, 21:37:46,-8.2049885,-4.2927237,3.493521,-0.012211111,0.042738892,-0.06716111,9.897171371,0.080537813,crawl
09/07/2020, 21:37:46,-8.252846,-4.23051,3.4504502,-0.012211111,0.042738892,-0.06716111,9.895063745,0.080537813,crawl
09/07/2020, 21:37:46,-8.252846,-4.23051,3.4504502,-0.009768889,0.04029667,-0.13798556,9.895063745,0.144080765,crawl
09/07/2020, 21:37:46,-8.312666,-4.2352962,3.455236,-0.009768889,0.04029667,-0.13798556,9.948708703,0.144080765,crawl
09/07/2020, 21:37:46,-8.312666,-4.2352962,3.455236,-0.01099,0.026864445,-0.21491556,9.948708703,0.216866724,crawl
09/07/2020, 21:37:46,-8.391629,-4.168297,3.4648073,-0.01099,0.026864445,-0.21491556,9.989946382,0.216866724,crawl
09/07/2020, 21:37:46,-8.391629,-4.168297,3.4648073,-0.025643334,0.02198,-0.29306668,9.989946382,0.295006407,crawl
09/07/2020, 21:37:46,-8.46102,-4.130012,3.4432719,-0.025643334,0.02198,-0.29306668,10.02506798,0.295006407,crawl
09/07/2020, 21:37:46,-8.46102,-4.130012,3.4432719,-0.04396,0.008547778,-0.36633334,10.02506798,0.369060509,crawl
09/07/2020, 21:37:46,-8.496913,-4.082155,3.4600215,-0.04396,0.008547778,-0.36633334,10.04157706,0.369060509,crawl
09/07/2020, 21:37:46,-8.496913,-4.082155,3.4600215,-0.06105556,-0.004884445,-0.4493689,10.04157706,0.453524026,crawl
09/07/2020, 21:37:46,-8.46102,-4.048656,3.505485,-0.06105556,-0.004884445,-0.4493689,10.01343638,0.453524026,crawl
09/07/2020, 21:37:46,-8.46102,-4.048656,3.505485,-0.07204556,-0.019537779,-0.5189722,10.01343638,0.524313313,crawl
09/07/2020, 21:37:46,-8.413164,-4.031906,3.505485,-0.07204556,-0.019537779,-0.5189722,9.966244194,0.524313313,crawl
09/07/2020, 21:37:46,-8.413164,-4.031906,3.505485,-0.08303556,-0.026864445,-0.5910178,9.966244194,0.597426666,crawl
09/07/2020, 21:37:46,-8.372486,-4.0414777,3.4624143,-0.08303556,-0.026864445,-0.5910178,9.920704517,0.597426666,crawl
09/07/2020, 21:37:46,-8.372486,-4.0414777,3.4624143,-0.08059334,-0.024422223,-0.64841,9.920704517,0.653855709,crawl
09/07/2020, 21:37:46,-8.329415,-4.06062,3.4049866,-0.08059334,-0.024422223,-0.64841,9.872270605,0.653855709,crawl
09/07/2020, 21:37:46,-8.329415,-4.06062,3.4049866,-0.08059334,-0.026864445,-0.70458114,9.872270605,0.709684134,crawl
09/07/2020, 21:37:46,-8.319844,-4.017549,3.37388,-0.08059334,-0.026864445,-0.70458114,9.835831139,0.709684134,crawl
09/07/2020, 21:37:47,-8.250452,-4.3094735,2.9982069,-0.13676445,0.09768889,0.9194967,9.779098384,0.934730894,crawl
09/07/2020, 21:37:47,-8.250452,-4.3094735,2.9982069,-0.048844445,0.13188,0.8743156,9.779098384,0.885554017,crawl
09/07/2020, 21:37:47,-8.260024,-4.3932223,3.048456,-0.048844445,0.13188,0.8743156,9.839790842,0.885554017,crawl
09/07/2020, 21:37:47,-8.260024,-4.3932223,3.048456,0.019537779,0.15141778,0.83768225,9.839790842,0.851481424,crawl
09/07/2020, 21:37:47,-8.300702,-4.3740797,3.117848,0.019537779,0.15141778,0.83768225,9.88712315,0.851481424,crawl
09/07/2020, 21:37:47,-8.300702,-4.3740797,3.117848,0.06594,0.15386,0.7949434,9.88712315,0.812376748,crawl
09/07/2020, 21:37:47,-8.384451,-4.3070807,3.1728828,0.06594,0.15386,0.7949434,9.945709974,0.812376748,crawl
09/07/2020, 21:37:47,-8.384451,-4.3070807,3.1728828,0.09646778,0.14653334,0.7387723,9.945709974,0.759317143,crawl
09/07/2020, 21:37:47,-8.437093,-4.319045,3.2135608,0.09646778,0.14653334,0.7387723,10.00827947,0.759317143,crawl
09/07/2020, 21:37:47,-8.437093,-4.319045,3.2135608,0.11112112,0.13188,0.6801589,10.00827947,0.701681113,crawl
09/07/2020, 21:37:47,-8.420342,-4.2592244,3.2949169,0.11112112,0.13188,0.6801589,9.994980574,0.701681113,crawl
09/07/2020, 21:37:47,-8.420342,-4.2592244,3.2949169,0.10379445,0.12699556,0.62643003,9.994980574,0.647545943,crawl
09/07/2020, 21:37:47,-8.420342,-4.1635113,3.278167,0.10379445,0.12699556,0.62643003,9.949038747,0.647545943,crawl
09/07/2020, 21:37:47,-8.420342,-4.1635113,3.278167,0.06105556,0.11966889,0.56049,9.949038747,0.576365751,crawl
09/07/2020, 21:37:47,-8.463413,-4.0701914,3.2350962,0.06105556,0.11966889,0.56049,9.932858052,0.576365751,crawl
09/07/2020, 21:37:47,-8.463413,-4.0701914,3.2350962,-0.007326667,0.09402556,0.5018767,9.932858052,0.510661062,crawl
09/07/2020, 21:37:47,-8.482556,-3.9744785,3.2087753,-0.007326667,0.09402556,0.5018767,9.90184226,0.510661062,crawl
09/07/2020, 21:37:47,-8.482556,-3.9744785,3.2087753,-0.07448778,0.06960334,0.42983112,9.90184226,0.441755412,crawl
09/07/2020, 21:37:47,-8.458628,-3.9720855,3.1680973,-0.07448778,0.06960334,0.42983112,9.867253207,0.441755412,crawl
09/07/2020, 21:37:47,-8.458628,-3.9720855,3.1680973,-0.11844778,0.05617111,0.3602278,9.867253207,0.38333945,crawl
09/07/2020, 21:37:48,-9.083155,-4.0438704,3.0077782,0.117226675,0.1856089,1.0635878,10.38765212,1.086007242,crawl
09/07/2020, 21:37:48,-9.346365,-3.9433718,2.9742785,0.117226675,0.1856089,1.0635878,10.57123699,1.086007242,crawl
09/07/2020, 21:37:48,-9.346365,-3.9433718,2.9742785,0.03052778,0.15386,1.0330601,10.57123699,1.044900934,crawl
09/07/2020, 21:37:48,-9.4229355,-3.8620157,2.9718857,0.03052778,0.15386,1.0330601,10.60843924,1.044900934,crawl
09/07/2020, 21:37:48,-9.4229355,-3.8620157,2.9718857,-0.068382226,0.11356334,0.9964267,10.60843924,1.005205915,crawl
09/07/2020, 21:37:48,-9.315259,-3.8237305,2.9623144,-0.068382226,0.11356334,0.9964267,10.49620269,1.005205915,crawl
09/07/2020, 21:37:48,-9.315259,-3.8237305,2.9623144,-0.15386,0.08303556,0.9549089,10.49620269,0.970782584,crawl
09/07/2020, 21:37:48,-9.123833,-3.8261235,2.9192436,-0.15386,0.08303556,0.9549089,10.31530548,0.970782584,crawl
09/07/2020, 21:37:48,-9.123833,-3.8261235,2.9192436,-0.19415668,0.07570889,0.9182756,10.31530548,0.941625572,crawl
09/07/2020, 21:37:48,-8.882157,-3.8739798,2.87378,-0.19415668,0.07570889,0.9182756,10.10737601,0.941625572,crawl
09/07/2020, 21:37:48,-8.882157,-3.8739798,2.87378,-0.19293556,0.09524667,0.8743156,10.10737601,0.900402055,crawl
09/07/2020, 21:37:48,-8.640483,-3.9074793,2.8474588,-0.19293556,0.09524667,0.8743156,9.901230277,0.900402055,crawl
09/07/2020, 21:37:48,-8.640483,-3.9074793,2.8474588,-0.15386,0.12577444,0.8303556,9.901230277,0.853804725,crawl
09/07/2020, 21:37:48,-8.508878,-3.9601214,2.8570302,-0.15386,0.12577444,0.8303556,9.81051392,0.853804725,crawl
09/07/2020, 21:37:48,-8.508878,-3.9601214,2.8570302,-0.098910004,0.16118668,0.7949434,9.81051392,0.817128712,crawl
09/07/2020, 21:37:48,-8.499306,-3.9816568,2.8881369,-0.098910004,0.16118668,0.7949434,9.82003682,0.817128712,crawl
09/07/2020, 21:37:48,-8.499306,-3.9816568,2.8881369,-0.059834447,0.1856089,0.76075226,9.82003682,0.785350129,crawl
09/07/2020, 21:37:48,-8.595019,-4.0127635,2.914458,-0.059834447,0.1856089,0.76075226,9.923240097,0.785350129,crawl
09/07/2020, 21:37:48,-8.595019,-4.0127635,2.914458,-0.036633335,0.19904111,0.7326667,9.923240097,0.760105136,crawl
09/07/2020, 21:37:48,-8.772088,-3.9768713,3.0125637,-0.036633335,0.19904111,0.7326667,10.09160908,0.760105136,crawl
09/07/2020, 21:37:49,-8.087741,-3.7854455,3.1872396,-0.19904111,0.018316668,-0.7619734,9.48154242,0.787753958,crawl
09/07/2020, 21:37:49,-8.087741,-3.7854455,3.1872396,-0.15874445,0.025643334,-0.70336,9.48154242,0.721507243,crawl
09/07/2020, 21:37:49,-8.032705,-3.7830527,3.1896327,-0.15874445,0.025643334,-0.70336,9.434489844,0.721507243,crawl
09/07/2020, 21:37:49,-8.032705,-3.7830527,3.1896327,-0.11478445,0.029306669,-0.6337567,9.434489844,0.644733978,crawl
09/07/2020, 21:37:49,-7.9944205,-3.7854455,3.1944182,-0.11478445,0.029306669,-0.6337567,9.404502349,0.644733978,crawl
09/07/2020, 21:37:49,-7.9944205,-3.7854455,3.1944182,-0.078151114,0.034191113,-0.5568267,9.404502349,0.563322833,crawl
09/07/2020, 21:37:49,-7.958528,-3.7591243,3.1561332,-0.078151114,0.034191113,-0.5568267,9.350420341,0.563322833,crawl
09/07/2020, 21:37:49,-7.958528,-3.7591243,3.1561332,-0.05006556,0.03174889,-0.48600224,9.350420341,0.489604663,crawl
09/07/2020, 21:37:49,-7.9226356,-3.737589,3.1561332,-0.05006556,0.03174889,-0.48600224,9.311224485,0.489604663,crawl
09/07/2020, 21:37:49,-7.9226356,-3.737589,3.1561332,-0.03052778,0.029306669,-0.40296668,9.311224485,0.405182638,crawl
09/07/2020, 21:37:49,-7.8580294,-3.7136607,3.17049,-0.03052778,0.029306669,-0.40296668,9.251589509,0.405182638,crawl
09/07/2020, 21:37:49,-7.8580294,-3.7136607,3.17049,-0.017095556,0.029306669,-0.32359445,9.251589509,0.325368265,crawl
09/07/2020, 21:37:49,-7.8173513,-3.6849468,3.1465619,-0.017095556,0.029306669,-0.32359445,9.197318429,0.325368265,crawl
09/07/2020, 21:37:49,-7.8173513,-3.6849468,3.1465619,-0.013432222,0.03052778,-0.25399113,9.197318429,0.256171549,crawl
09/07/2020, 21:37:49,-7.7742805,-3.6729827,3.1609187,-0.013432222,0.03052778,-0.25399113,9.160875887,0.256171549,crawl
09/07/2020, 21:37:49,-7.7742805,-3.6729827,3.1609187,-0.008547778,0.02075889,-0.16973445,9.160875887,0.171212672,crawl
09/07/2020, 21:37:49,-7.745567,-3.6610186,3.1609187,-0.008547778,0.02075889,-0.16973445,9.131717808,0.171212672,crawl
09/07/2020, 21:37:49,-7.745567,-3.6610186,3.1609187,-0.001221111,0.015874445,-0.08669889,9.131717808,0.088148662,crawl
09/07/2020, 21:37:49,-7.7216387,-3.656233,3.1345978,-0.001221111,0.015874445,-0.08669889,9.100409189,0.088148662,crawl
09/07/2020, 21:37:49,-7.7216387,-3.656233,3.1345978,0,0.012211111,-0.002442222,9.100409189,0.012452939,crawl
09/07/2020, 21:37:50,-9.025727,-3.723232,3.0819557,0.37366003,-0.10867889,-0.8877478,10.23839149,0.969293102,crawl
09/07/2020, 21:37:50,-9.025727,-3.723232,3.0819557,0.29184556,-0.12943779,-0.92560226,10.23839149,0.979115678,crawl
09/07/2020, 21:37:50,-8.9826565,-3.682554,3.0556345,0.29184556,-0.12943779,-0.92560226,10.17773175,0.979115678,crawl
09/07/2020, 21:37:50,-8.9826565,-3.682554,3.0556345,0.23689556,-0.14287001,-0.96712005,10.17773175,1.005908813,crawl
09/07/2020, 21:37:50,-8.913264,-3.7184465,3.0412776,0.23689556,-0.14287001,-0.96712005,10.12533921,1.005908813,crawl
09/07/2020, 21:37:50,-8.913264,-3.7184465,3.0412776,0.20636779,-0.13920668,-1.0061955,10.12533921,1.036530578,crawl
09/07/2020, 21:37:50,-8.879765,-3.7447674,3.0245278,0.20636779,-0.13920668,-1.0061955,10.10055791,1.036530578,crawl
09/07/2020, 21:37:50,-8.879765,-3.7447674,3.0245278,0.20148334,-0.12943779,-1.0367234,10.10055791,1.064023042,crawl
09/07/2020, 21:37:50,-8.8701935,-3.8261235,3.0317063,0.20148334,-0.12943779,-1.0367234,10.12476155,1.064023042,crawl
09/07/2020, 21:37:50,-8.8701935,-3.8261235,3.0317063,0.19782001,-0.123332225,-1.0672512,10.12476155,1.092414175,crawl
09/07/2020, 21:37:50,-8.898908,-3.8931224,3.050849,0.19782001,-0.123332225,-1.0672512,10.18109224,1.092414175,crawl
09/07/2020, 21:37:50,-8.898908,-3.8931224,3.050849,0.20270446,-0.10867889,-1.0941156,10.18109224,1.118029149,crawl
09/07/2020, 21:37:50,-8.992228,-3.9553359,3.07717,0.20270446,-0.10867889,-1.0941156,10.29435829,1.118029149,crawl
09/07/2020, 21:37:50,-8.992228,-3.9553359,3.07717,0.20881,-0.09768889,-1.1246433,10.29435829,1.14802759,crawl
09/07/2020, 21:37:50,-9.150154,-4.005585,3.1872396,0.20881,-0.09768889,-1.1246433,10.48468071,1.14802759,crawl
09/07/2020, 21:37:50,-9.150154,-4.005585,3.1872396,0.21980001,-0.08792,-1.1539501,10.48468071,1.17798251,crawl
09/07/2020, 21:37:50,-9.312865,-3.9625144,3.1944182,0.21980001,-0.08792,-1.1539501,10.6129773,1.17798251,crawl
09/07/2020, 21:37:50,-9.312865,-3.9625144,3.1944182,0.21003112,-0.09402556,-1.1832567,10.6129773,1.205425404,crawl
09/07/2020, 21:37:50,-9.353543,-3.888337,3.1848469,0.21003112,-0.09402556,-1.1832567,10.61843611,1.205425404,crawl
09/07/2020, 21:37:50,-9.353543,-3.888337,3.1848469,0.16851334,-0.102573335,-1.2137845,10.61843611,1.22971165,crawl
09/07/2020, 21:37:51,-8.382058,-3.9146578,3.0675986,-0.3858711,-0.039075557,0.40052447,9.746466319,0.557533195,crawl
09/07/2020, 21:37:51,-8.26481,-3.991228,3.07717,-0.3858711,-0.039075557,0.40052447,9.680183583,0.557533195,crawl
09/07/2020, 21:37:51,-8.26481,-3.991228,3.07717,-0.3174889,-0.015874445,0.35534334,9.680183583,0.476780973,crawl
09/07/2020, 21:37:51,-8.157132,-4.074977,3.0939198,-0.3174889,-0.015874445,0.35534334,9.62894497,0.476780973,crawl
09/07/2020, 21:37:51,-8.157132,-4.074977,3.0939198,-0.24666445,0.003663334,0.30649891,9.62894497,0.393444222,crawl
09/07/2020, 21:37:51,-8.161918,-4.074977,3.1561332,-0.24666445,0.003663334,0.30649891,9.653160821,0.393444222,crawl
09/07/2020, 21:37:51,-8.161918,-4.074977,3.1561332,-0.19293556,0.014653334,0.26864445,9.653160821,0.331072032,crawl
09/07/2020, 21:37:51,-8.233703,-4.0390844,3.2303107,-0.19293556,0.014653334,0.26864445,9.723320916,0.331072032,crawl
09/07/2020, 21:37:51,-8.233703,-4.0390844,3.2303107,-0.16973445,0.015874445,0.2185789,9.723320916,0.277197616,crawl
09/07/2020, 21:37:51,-8.343773,-3.9338005,3.2997024,-0.16973445,0.015874445,0.2185789,9.797008116,0.277197616,crawl
09/07/2020, 21:37:51,-8.343773,-3.9338005,3.2997024,-0.18683001,0.001221111,0.17706113,9.797008116,0.257405492,crawl
09/07/2020, 21:37:51,-8.429914,-3.8261235,3.3427732,-0.18683001,0.001221111,0.17706113,9.842601869,0.257405492,crawl
09/07/2020, 21:37:51,-8.429914,-3.8261235,3.3427732,-0.23445335,-0.02198,0.14164889,9.842601869,0.274801568,crawl
09/07/2020, 21:37:51,-8.46102,-3.7256248,3.3403804,-0.23445335,-0.02198,0.14164889,9.829918054,0.274801568,crawl
09/07/2020, 21:37:51,-8.46102,-3.7256248,3.3403804,-0.2845189,-0.054950003,0.098910004,9.829918054,0.306192251,crawl
09/07/2020, 21:37:51,-8.453842,-3.6275191,3.318845,-0.2845189,-0.054950003,0.098910004,9.77962549,0.306192251,crawl
09/07/2020, 21:37:51,-8.453842,-3.6275191,3.318845,-0.32970002,-0.08059334,0.054950003,9.77962549,0.343826838,crawl
09/07/2020, 21:37:51,-8.410771,-3.5988052,3.2470603,-0.32970002,-0.08059334,0.054950003,9.707516387,0.343826838,crawl
09/07/2020, 21:37:51,-8.410771,-3.5988052,3.2470603,-0.3309211,-0.09768889,0.02075889,9.707516387,0.345662891,crawl
09/07/2020, 21:37:51,-8.319844,-3.641876,3.225525,-0.3309211,-0.09768889,0.02075889,9.637794345,0.345662891,crawl
09/07/2020, 21:37:52,-7.8580294,-3.9744785,3.3284163,0.10501556,-0.12577444,0.8327978,9.414003405,0.848763628,crawl
09/07/2020, 21:37:52,-7.8580294,-3.9744785,3.3284163,0.10013112,-0.12821667,0.8718734,9.414003405,0.886921047,crawl
09/07/2020, 21:37:52,-7.948957,-3.9984066,3.3499517,0.10013112,-0.12821667,0.8718734,9.507646884,0.886921047,crawl
09/07/2020, 21:37:52,-7.948957,-3.9984066,3.3499517,0.098910004,-0.13554333,0.9194967,9.507646884,0.934681439,crawl
09/07/2020, 21:37:52,-8.049456,-4.007978,3.4025939,0.098910004,-0.13554333,0.9194967,9.614326207,0.934681439,crawl
09/07/2020, 21:37:52,-8.049456,-4.007978,3.4025939,0.10135223,-0.13676445,0.9512456,9.614326207,0.966356556,crawl
09/07/2020, 21:37:52,-8.082955,-4.034299,3.385844,0.10135223,-0.13676445,0.9512456,9.647469849,0.966356556,crawl
09/07/2020, 21:37:52,-8.082955,-4.034299,3.385844,0.09768889,-0.13798556,0.97688895,9.647469849,0.991410693,crawl
09/07/2020, 21:37:52,-8.145168,-4.065406,3.3882368,0.09768889,-0.13798556,0.97688895,9.713466927,0.991410693,crawl
09/07/2020, 21:37:52,-8.145168,-4.065406,3.3882368,0.09646778,-0.14042778,1.00009,9.713466927,1.01449791,crawl
09/07/2020, 21:37:52,-8.178668,-4.0414777,3.3523445,0.09646778,-0.14042778,1.00009,9.719175181,1.01449791,crawl
09/07/2020, 21:37:52,-8.178668,-4.0414777,3.3523445,0.08059334,-0.14287001,1.0074167,9.719175181,1.020683881,crawl
09/07/2020, 21:37:52,-8.219346,-4.0127635,3.3355947,0.08059334,-0.14287001,1.0074167,9.735815941,1.020683881,crawl
09/07/2020, 21:37:52,-8.219346,-4.0127635,3.3355947,0.048844445,-0.14531223,1.0159645,9.735815941,1.027465477,crawl
09/07/2020, 21:37:52,-8.252846,-3.9768713,3.3092737,0.048844445,-0.14531223,1.0159645,9.740444585,1.027465477,crawl
09/07/2020, 21:37:52,-8.252846,-3.9768713,3.3092737,0.009768889,-0.14287001,1.0123012,9.740444585,1.022380068,crawl
09/07/2020, 21:37:52,-8.286345,-3.9649072,3.2949169,0.009768889,-0.14287001,1.0123012,9.759122485,1.022380068,crawl
09/07/2020, 21:37:52,-8.286345,-3.9649072,3.2949169,-0.024422223,-0.13798556,1.0049745,9.759122485,1.014697085,crawl
09/07/2020, 21:37:52,-8.374879,-3.9840498,3.3164523,-0.024422223,-0.13798556,1.0049745,9.849370778,1.014697085,crawl
09/07/2020, 21:37:52,-8.374879,-3.9840498,3.3164523,-0.05250778,-0.13798556,1.0025322,9.849370778,1.013344947,crawl
09/07/2020, 21:37:53,-8.980264,-3.912265,3.050849,0.13920668,-0.068382226,-1.1356333,10.25956303,1.146175262,crawl
09/07/2020, 21:37:53,-8.987442,-3.9577286,3.0412776,0.13920668,-0.068382226,-1.1356333,10.28042312,1.146175262,crawl
09/07/2020, 21:37:53,-8.987442,-3.9577286,3.0412776,0.13798556,-0.05372889,-1.1624979,10.28042312,1.171890833,crawl
09/07/2020, 21:37:53,-8.949157,-3.9840498,3.0963125,0.13798556,-0.05372889,-1.1624979,10.27361722,1.171890833,crawl
09/07/2020, 21:37:53,-8.949157,-3.9840498,3.0963125,0.16485001,-0.03174889,-1.18692,10.27361722,1.198733797,crawl
09/07/2020, 21:37:53,-8.930014,-4.005585,3.089134,0.16485001,-0.03174889,-1.18692,10.26316741,1.198733797,crawl
09/07/2020, 21:37:53,-8.930014,-4.005585,3.089134,0.18805112,-0.006105556,-1.2089001,10.26316741,1.223454102,crawl
09/07/2020, 21:37:53,-8.879765,-4.0007997,3.0723844,0.18805112,-0.006105556,-1.2089001,10.21254925,1.223454102,crawl
09/07/2020, 21:37:53,-8.879765,-4.0007997,3.0723844,0.1965989,0.01099,-1.2382067,10.21254925,1.253765468,crawl
09/07/2020, 21:37:53,-8.872586,-3.979264,3.0460632,0.1965989,0.01099,-1.2382067,10.18998674,1.253765468,crawl
09/07/2020, 21:37:53,-8.872586,-3.979264,3.0460632,0.19904111,0.024422223,-1.2479756,10.18998674,1.263984524,crawl
09/07/2020, 21:37:53,-8.874979,-3.9338005,3.0723844,0.19904111,0.024422223,-1.2479756,10.18231724,1.263984524,crawl
09/07/2020, 21:37:53,-8.874979,-3.9338005,3.0723844,0.18072446,0.039075557,-1.2626289,10.18231724,1.276095608,crawl
09/07/2020, 21:37:53,-8.9108715,-3.818945,3.129812,0.18072446,0.039075557,-1.2626289,10.18742826,1.276095608,crawl
09/07/2020, 21:37:53,-8.9108715,-3.818945,3.129812,0.15019667,0.035412222,-1.2675134,10.18742826,1.276872457,crawl
09/07/2020, 21:37:53,-8.997013,-3.7328033,3.1848469,0.15019667,0.035412222,-1.2675134,10.24808836,1.276872457,crawl
09/07/2020, 21:37:53,-8.997013,-3.7328033,3.1848469,0.11112112,0.03297,-1.284609,10.24808836,1.289827548,crawl
09/07/2020, 21:37:53,-9.044869,-3.7088752,3.1369905,0.11112112,0.03297,-1.284609,10.26674864,1.289827548,crawl
09/07/2020, 21:37:53,-9.044869,-3.7088752,3.1369905,0.057392225,0.028085556,-1.2931567,10.26674864,1.294734346,crawl
09/07/2020, 21:37:53,-9.049655,-3.6586258,3.1274192,0.057392225,0.028085556,-1.2931567,10.25000239,1.294734346,crawl
09/07/2020, 21:37:54,-8.279166,-3.9361932,3.979264,0.014653334,0.064718895,0.06594,9.993635605,0.093548592,crawl
09/07/2020, 21:37:54,-8.279166,-3.9361932,3.979264,0.015874445,0.057392225,-0.02198,9.993635605,0.063474293,crawl
09/07/2020, 21:37:54,-8.303095,-3.9170506,4.0007997,0.015874445,0.057392225,-0.02198,10.01454281,0.063474293,crawl
09/07/2020, 21:37:54,-8.303095,-3.9170506,4.0007997,0.002442222,0.045181114,-0.12455334,10.01454281,0.132517287,crawl
09/07/2020, 21:37:54,-8.327023,-3.9146578,3.9984066,0.002442222,0.045181114,-0.12455334,10.03250249,0.132517287,crawl
09/07/2020, 21:37:54,-8.327023,-3.9146578,3.9984066,-0.014653334,0.034191113,-0.22102112,10.03250249,0.224129619,crawl
09/07/2020, 21:37:54,-8.300702,-3.8835511,3.9601214,-0.014653334,0.034191113,-0.22102112,9.983295349,0.224129619,crawl
09/07/2020, 21:37:54,-8.300702,-3.8835511,3.9601214,-0.025643334,0.023201112,-0.3162678,9.983295349,0.318152772,crawl
09/07/2020, 21:37:54,-8.367701,-3.8261235,3.9744785,-0.025643334,0.023201112,-0.3162678,10.02267993,0.318152772,crawl
09/07/2020, 21:37:54,-8.367701,-3.8261235,3.9744785,-0.03297,0.019537779,-0.4163989,10.02267993,0.418158822,crawl
09/07/2020, 21:37:54,-8.379665,-3.7878382,4.0007997,-0.03297,0.019537779,-0.4163989,10.02860449,0.418158822,crawl
09/07/2020, 21:37:54,-8.379665,-3.7878382,4.0007997,-0.04029667,0.019537779,-0.51775116,10.02860449,0.519684334,crawl
09/07/2020, 21:37:54,-8.439486,-3.751946,3.9864426,-0.04029667,0.019537779,-0.51775116,10.05950989,0.519684334,crawl
09/07/2020, 21:37:54,-8.439486,-3.751946,3.9864426,-0.059834447,0.002442222,-0.60933447,10.05950989,0.612270055,crawl
09/07/2020, 21:37:54,-8.496913,-3.7304106,3.9673,-0.059834447,0.002442222,-0.60933447,10.09222283,0.612270055,crawl
09/07/2020, 21:37:54,-8.496913,-3.7304106,3.9673,-0.07448778,-0.02075889,-0.6935911,10.09222283,0.697888243,crawl
09/07/2020, 21:37:54,-8.5112705,-3.739982,3.9601214,-0.07448778,-0.02075889,-0.6935911,10.10503597,0.697888243,crawl
09/07/2020, 21:37:54,-8.5112705,-3.739982,3.9601214,-0.08303556,-0.035412222,-0.77906895,10.10503597,0.784281425,crawl
09/07/2020, 21:37:54,-8.504091,-3.7878382,3.9242291,-0.08303556,-0.035412222,-0.77906895,10.10281451,0.784281425,crawl
09/07/2020, 21:37:54,-8.504091,-3.7878382,3.9242291,-0.07448778,-0.04029667,-0.8486723,10.10281451,0.852887375,crawl
09/07/2020, 21:37:55,-8.145168,-3.6227336,4.2041893,-0.04151778,-0.13798556,0.56049,9.856123633,0.578716506,crawl
09/07/2020, 21:37:55,-8.200203,-3.6514473,4.213761,-0.04151778,-0.13798556,0.56049,9.916258174,0.578716506,crawl
09/07/2020, 21:37:55,-8.200203,-3.6514473,4.213761,-0.07448778,-0.15508112,0.6068922,9.916258174,0.630806437,crawl
09/07/2020, 21:37:55,-8.255239,-3.6993039,4.194618,-0.07448778,-0.15508112,0.6068922,9.971390795,0.630806437,crawl
09/07/2020, 21:37:55,-8.255239,-3.6993039,4.194618,-0.09768889,-0.17584,0.6435256,9.971390795,0.674231433,crawl
09/07/2020, 21:37:55,-8.34138,-3.7663028,4.194618,-0.09768889,-0.17584,0.6435256,10.06769494,0.674231433,crawl
09/07/2020, 21:37:55,-8.34138,-3.7663028,4.194618,-0.11356334,-0.20148334,0.67283225,10.06769494,0.711474107,crawl
09/07/2020, 21:37:55,-8.350951,-3.790231,4.139583,-0.11356334,-0.20148334,0.67283225,10.06182812,0.711474107,crawl
09/07/2020, 21:37:55,-8.350951,-3.790231,4.139583,-0.12089001,-0.23079,0.71435004,10.06182812,0.760377805,crawl
09/07/2020, 21:37:55,-8.331808,-3.8237305,4.0965123,-0.12089001,-0.23079,0.71435004,10.04098371,0.760377805,crawl
09/07/2020, 21:37:55,-8.331808,-3.8237305,4.0965123,-0.12577444,-0.24666445,0.7424356,10.04098371,0.792384467,crawl
09/07/2020, 21:37:55,-8.279166,-3.8117664,4.0366917,-0.12577444,-0.24666445,0.7424356,9.968401873,0.792384467,crawl
09/07/2020, 21:37:55,-8.279166,-3.8117664,4.0366917,-0.12577444,-0.25399113,0.7668578,9.968401873,0.817558312,crawl
09/07/2020, 21:37:55,-8.19781,-3.8380876,4.0031924,-0.12577444,-0.25399113,0.7668578,9.897502581,0.817558312,crawl
09/07/2020, 21:37:55,-8.19781,-3.8380876,4.0031924,-0.10867889,-0.2625389,0.7937223,9.897502581,0.843049717,crawl
09/07/2020, 21:37:55,-8.181061,-3.8237305,3.9481573,-0.10867889,-0.2625389,0.7937223,9.855892477,0.843049717,crawl
09/07/2020, 21:37:55,-8.181061,-3.8237305,3.9481573,-0.091583334,-0.2613178,0.8218078,9.855892477,0.867203873,crawl
09/07/2020, 21:37:55,-8.228917,-3.8261235,3.9194436,-0.091583334,-0.2613178,0.8218078,9.885157361,0.867203873,crawl
09/07/2020, 21:37:55,-8.228917,-3.8261235,3.9194436,-0.085477784,-0.26498112,0.8425667,9.885157361,0.887378238,crawl
09/07/2020, 21:37:55,-8.305488,-3.8213377,3.8404803,-0.085477784,-0.26498112,0.8425667,9.916301517,0.887378238,crawl
09/07/2020, 21:37:56,-8.224132,-3.35713,3.3930225,-0.09280445,0.024422223,-0.67283225,9.508904481,0.679641338,crawl
09/07/2020, 21:37:56,-8.224132,-3.35713,3.3930225,-0.10501556,0.029306669,-0.63742,9.508904481,0.646677202,crawl
09/07/2020, 21:37:56,-8.152347,-3.3116665,3.3930225,-0.10501556,0.029306669,-0.63742,9.430826694,0.646677202,crawl
09/07/2020, 21:37:56,-8.152347,-3.3116665,3.3930225,-0.12211112,0.023201112,-0.59834445,9.430826694,0.611118231,crawl
09/07/2020, 21:37:56,-8.092526,-3.2614172,3.4097722,-0.12211112,0.023201112,-0.59834445,9.367623611,0.611118231,crawl
09/07/2020, 21:37:56,-8.092526,-3.2614172,3.4097722,-0.14409111,0.019537779,-0.5641534,9.367623611,0.582591626,crawl
09/07/2020, 21:37:56,-8.082955,-3.2422748,3.4480574,-0.14409111,0.019537779,-0.5641534,9.36672904,0.582591626,crawl
09/07/2020, 21:37:56,-8.082955,-3.2422748,3.4480574,-0.15874445,0.018316668,-0.52141446,9.36672904,0.545351575,crawl
09/07/2020, 21:37:56,-8.1020975,-3.2853456,3.5126636,-0.15874445,0.018316668,-0.52141446,9.422116805,0.545351575,crawl
09/07/2020, 21:37:56,-8.1020975,-3.2853456,3.5126636,-0.15630223,0.013432222,-0.4701278,9.422116805,0.495611694,crawl
09/07/2020, 21:37:56,-8.087741,-3.278167,3.5653057,-0.15630223,0.013432222,-0.4701278,9.427053441,0.495611694,crawl
09/07/2020, 21:37:56,-8.087741,-3.278167,3.5653057,-0.14164889,0.017095556,-0.4249467,9.427053441,0.448259255,crawl
09/07/2020, 21:37:56,-8.054241,-3.330809,3.6681972,-0.14164889,0.017095556,-0.4249467,9.456255111,0.448259255,crawl
09/07/2020, 21:37:56,-8.054241,-3.330809,3.6681972,-0.11844778,0.03174889,-0.37488112,9.456255111,0.394428348,crawl
09/07/2020, 21:37:56,-7.9944205,-3.3762727,3.7974095,-0.11844778,0.03174889,-0.37488112,9.472607664,0.394428348,crawl
09/07/2020, 21:37:56,-7.9944205,-3.3762727,3.7974095,-0.08059334,0.037854444,-0.32359445,9.472607664,0.335621236,crawl
09/07/2020, 21:37:56,-7.9633136,-3.4121652,3.8476589,-0.08059334,0.037854444,-0.32359445,9.479541818,0.335621236,crawl
09/07/2020, 21:37:56,-7.9633136,-3.4121652,3.8476589,-0.037854444,0.05006556,-0.26620224,9.479541818,0.27350165,crawl
09/07/2020, 21:37:56,-7.9513497,-3.4456646,3.897908,-0.037854444,0.05006556,-0.26620224,9.502118396,0.27350165,crawl
09/07/2020, 21:37:56,-7.9513497,-3.4456646,3.897908,0,0.057392225,-0.21003112,9.502118396,0.217731347,crawl
09/07/2020, 21:37:57,-8.283952,-4.017549,3.3427732,0.61544,0.24300112,-1.13197,9.794829742,1.311172048,crawl
09/07/2020, 21:37:57,-8.2145605,-4.1036906,3.3044882,0.61544,0.24300112,-1.13197,9.759043152,1.311172048,crawl
09/07/2020, 21:37:57,-8.2145605,-4.1036906,3.3044882,0.75831,0.2869611,-1.1283067,9.759043152,1.389408823,crawl
09/07/2020, 21:37:57,-8.147561,-4.173083,3.2877383,0.75831,0.2869611,-1.1283067,9.726592159,1.389408823,crawl
09/07/2020, 21:37:57,-8.147561,-4.173083,3.2877383,0.9280445,0.34069002,-1.1356333,9.726592159,1.505655798,crawl
09/07/2020, 21:37:57,-8.126026,-4.2999024,3.2542388,0.9280445,0.34069002,-1.1356333,9.752514162,1.505655798,crawl
09/07/2020, 21:37:57,-8.126026,-4.2999024,3.2542388,1.1136534,0.39686114,-1.1356333,9.752514162,1.639324803,crawl
09/07/2020, 21:37:57,-8.135597,-4.3501515,3.2877383,1.1136534,0.39686114,-1.1356333,9.793925871,1.639324803,crawl
09/07/2020, 21:37:57,-8.135597,-4.3501515,3.2877383,1.3090311,0.46280113,-1.1295278,9.793925871,1.789854868,crawl
09/07/2020, 21:37:57,-8.176275,-4.359723,3.2542388,1.3090311,0.46280113,-1.1295278,9.820831579,1.789854868,crawl
09/07/2020, 21:37:57,-8.176275,-4.359723,3.2542388,1.4726601,0.5104245,-1.1283067,9.820831579,1.92414577,crawl
09/07/2020, 21:37:57,-8.185846,-4.2951164,3.1944182,1.4726601,0.5104245,-1.1283067,9.780614132,1.92414577,crawl
09/07/2020, 21:37:57,-8.185846,-4.2951164,3.1944182,1.6020979,0.5470578,-1.1270856,9.780614132,2.033792443,crawl
09/07/2020, 21:37:57,-8.276773,-4.208975,3.1154552,1.6020979,0.5470578,-1.1270856,9.79420792,2.033792443,crawl
09/07/2020, 21:37:57,-8.276773,-4.208975,3.1154552,1.7034501,0.57514334,-1.10999,9.79420792,2.112962339,crawl
09/07/2020, 21:37:57,-8.3581295,-4.1228333,3.048456,1.7034501,0.57514334,-1.10999,9.805568137,2.112962339,crawl
09/07/2020, 21:37:57,-8.3581295,-4.1228333,3.048456,1.7779379,0.5800278,-1.1051056,9.805568137,2.172269293,crawl
09/07/2020, 21:37:57,-8.46102,-3.993621,3.1106694,1.7779379,0.5800278,-1.1051056,9.859723167,2.172269293,crawl
09/07/2020, 21:37:57,-8.46102,-3.993621,3.1106694,1.8328879,0.5678167,-1.0977789,9.859723167,2.210658801,crawl
09/07/2020, 21:37:57,-8.559127,-3.8691943,3.1513474,1.8328879,0.5678167,-1.0977789,9.907588366,2.210658801,crawl
09/07/2020, 21:37:58,-8.52802,-2.7996025,3.1274192,0.02198,0.21247335,0.7558678,9.505032813,0.785470651,crawl
09/07/2020, 21:37:58,-8.52802,-2.7996025,3.1274192,-0.048844445,0.18072446,0.72411895,9.505032813,0.747927376,crawl
09/07/2020, 21:37:58,-8.516056,-2.8187451,3.1944182,-0.048844445,0.18072446,0.72411895,9.522228865,0.747927376,crawl
09/07/2020, 21:37:58,-8.516056,-2.8187451,3.1944182,-0.09646778,0.16118668,0.68504333,9.522228865,0.710331999,crawl
09/07/2020, 21:37:58,-8.458628,-2.8713872,3.290131,-0.09646778,0.16118668,0.68504333,9.519359741,0.710331999,crawl
09/07/2020, 21:37:58,-8.458628,-2.8713872,3.290131,-0.12577444,0.14897557,0.63742,9.519359741,0.666571215,crawl
09/07/2020, 21:37:58,-8.437093,-2.9647074,3.3762727,-0.12577444,0.14897557,0.63742,9.558935171,0.666571215,crawl
09/07/2020, 21:37:58,-8.437093,-2.9647074,3.3762727,-0.13554333,0.13798556,0.57270116,9.558935171,0.604482111,crawl
09/07/2020, 21:37:58,-8.4347,-3.0388846,3.4504502,-0.13554333,0.13798556,0.57270116,9.606486902,0.604482111,crawl
09/07/2020, 21:37:58,-8.4347,-3.0388846,3.4504502,-0.12821667,0.12943779,0.5140878,9.606486902,0.545417196,crawl
09/07/2020, 21:37:58,-8.398808,-3.1345978,3.5413775,-0.12821667,0.12943779,0.5140878,9.638829078,0.545417196,crawl
09/07/2020, 21:37:58,-8.398808,-3.1345978,3.5413775,-0.10379445,0.12699556,0.44570556,9.638829078,0.474925899,crawl
09/07/2020, 21:37:58,-8.396415,-3.2733815,3.5892339,-0.10379445,0.12699556,0.44570556,9.700381788,0.474925899,crawl
09/07/2020, 21:37:58,-8.396415,-3.2733815,3.5892339,-0.06716111,0.123332225,0.37732336,9.700381788,0.402609451,crawl
09/07/2020, 21:37:58,-8.427522,-3.3810585,3.7016966,-0.06716111,0.123332225,0.37732336,9.805979622,0.402609451,crawl
09/07/2020, 21:37:58,-8.427522,-3.3810585,3.7016966,-0.018316668,0.12577444,0.30039334,9.805979622,0.326176135,crawl
09/07/2020, 21:37:58,-8.465807,-3.4600215,3.792624,-0.018316668,0.12577444,0.30039334,9.900789516,0.326176135,crawl
09/07/2020, 21:37:58,-8.465807,-3.4600215,3.792624,0.034191113,0.12455334,0.2185789,9.900789516,0.253888369,crawl
09/07/2020, 21:37:58,-8.566305,-3.5006995,3.845266,0.034191113,0.12455334,0.2185789,10.02110536,0.253888369,crawl
09/07/2020, 21:37:58,-8.566305,-3.5006995,3.845266,0.07693,0.11234222,0.14164889,10.02110536,0.1964775,crawl
09/07/2020, 21:37:59,-7.9800634,-3.225525,3.6203406,-0.54461557,-0.045181114,0.6203245,9.337681154,0.826710303,crawl
09/07/2020, 21:37:59,-7.987242,-3.2829528,3.5844483,-0.54461557,-0.045181114,0.6203245,9.349977924,0.826710303,crawl
09/07/2020, 21:37:59,-7.987242,-3.2829528,3.5844483,-0.5153089,-0.047623336,0.6874856,9.349977924,0.860492695,crawl
09/07/2020, 21:37:59,-7.9968133,-3.266203,3.5509489,-0.5153089,-0.047623336,0.6874856,9.339504391,0.860492695,crawl
09/07/2020, 21:37:59,-7.9968133,-3.266203,3.5509489,-0.4823389,-0.05006556,0.7485411,9.339504391,0.891891912,crawl
09/07/2020, 21:37:59,-8.049456,-3.2709885,3.5294135,-0.4823389,-0.05006556,0.7485411,9.378158724,0.891891912,crawl
09/07/2020, 21:37:59,-8.049456,-3.2709885,3.5294135,-0.4493689,-0.054950003,0.80471224,9.378158724,0.923316678,crawl
09/07/2020, 21:37:59,-8.142776,-3.290131,3.5365918,-0.4493689,-0.054950003,0.80471224,9.467694406,0.923316678,crawl
09/07/2020, 21:37:59,-8.142776,-3.290131,3.5365918,-0.42372558,-0.057392225,0.8523356,9.467694406,0.953579131,crawl
09/07/2020, 21:37:59,-8.221739,-3.2614172,3.548556,-0.42372558,-0.057392225,0.8523356,9.530271837,0.953579131,crawl
09/07/2020, 21:37:59,-8.221739,-3.2614172,3.548556,-0.41395667,-0.05250778,0.8975167,9.530271837,0.989774454,crawl
09/07/2020, 21:37:59,-8.29113,-3.2063823,3.4911282,-0.41395667,-0.05250778,0.8975167,9.550481727,0.989774454,crawl
09/07/2020, 21:37:59,-8.29113,-3.2063823,3.4911282,-0.42250445,-0.068382226,0.9402556,9.550481727,1.03308601,crawl
09/07/2020, 21:37:59,-8.382058,-3.2039895,3.4767714,-0.42250445,-0.068382226,0.9402556,9.623532955,1.03308601,crawl
09/07/2020, 21:37:59,-8.382058,-3.2039895,3.4767714,-0.42861003,-0.07937223,0.98055226,9.623532955,1.073074663,crawl
09/07/2020, 21:37:59,-8.477771,-3.199204,3.4624143,-0.42861003,-0.07937223,0.98055226,9.70029981,1.073074663,crawl
09/07/2020, 21:37:59,-8.477771,-3.199204,3.4624143,-0.43471557,-0.07937223,1.0159645,9.70029981,1.107908596,crawl
09/07/2020, 21:37:59,-8.547162,-3.196811,3.4528432,-0.43471557,-0.07937223,1.0159645,9.756828666,1.107908596,crawl
09/07/2020, 21:37:59,-8.547162,-3.196811,3.4528432,-0.4383789,-0.081814446,1.0501556,9.756828666,1.140919161,crawl
09/07/2020, 21:37:59,-8.673982,-3.2087753,3.495914,-0.4383789,-0.081814446,1.0501556,9.88714374,1.140919161,crawl
09/07/2020, 21:38:00,-9.068798,-1.9980069,3.4097722,0.80471224,-0.16729222,-1.1563922,9.892506065,1.418728807,crawl
09/07/2020, 21:38:00,-8.977871,-1.9286151,3.4073794,0.80471224,-0.16729222,-1.1563922,9.794486057,1.418728807,crawl
09/07/2020, 21:38:00,-8.977871,-1.9286151,3.4073794,0.7021389,-0.17950334,-1.10999,9.794486057,1.325631278,crawl
09/07/2020, 21:38:00,-8.932407,-1.8999012,3.3619158,0.7021389,-0.17950334,-1.10999,9.731392706,1.325631278,crawl
09/07/2020, 21:38:00,-8.932407,-1.8999012,3.3619158,0.61544,-0.1965989,-1.064809,9.731392706,1.245486117,crawl
09/07/2020, 21:38:00,-8.865408,-1.9645073,3.3427732,0.61544,-0.1965989,-1.064809,9.676201722,1.245486117,crawl
09/07/2020, 21:38:00,-8.865408,-1.9645073,3.3427732,0.57270116,-0.19782001,-1.0245123,9.676201722,1.190270895,crawl
09/07/2020, 21:38:00,-8.817552,-2.0697916,3.4169507,0.57270116,-0.19782001,-1.0245123,9.680330864,1.190270895,crawl
09/07/2020, 21:38:00,-8.817552,-2.0697916,3.4169507,0.5788067,-0.17217667,-0.97933114,9.680330864,1.150543991,crawl
09/07/2020, 21:38:00,-8.841479,-2.1559331,3.4695928,0.5788067,-0.17217667,-0.97933114,9.739500922,1.150543991,crawl
09/07/2020, 21:38:00,-8.841479,-2.1559331,3.4695928,0.61666113,-0.14775445,-0.9268234,9.739500922,1.122988825,crawl
09/07/2020, 21:38:00,-8.836694,-2.1463618,3.5413775,0.61666113,-0.14775445,-0.9268234,9.758861649,1.122988825,crawl
09/07/2020, 21:38:00,-8.836694,-2.1463618,3.5413775,0.6325356,-0.14164889,-0.8779789,9.758861649,1.09133526,crawl
09/07/2020, 21:38:00,-8.807981,-2.050649,3.5509489,0.6325356,-0.14164889,-0.8779789,9.715704811,1.09133526,crawl
09/07/2020, 21:38:00,-8.807981,-2.050649,3.5509489,0.63619894,-0.14531223,-0.8437878,9.715704811,1.066697036,crawl
09/07/2020, 21:38:00,-8.702696,-1.969293,3.5509489,0.63619894,-0.14531223,-0.8437878,9.603346693,1.066697036,crawl
09/07/2020, 21:38:00,-8.702696,-1.969293,3.5509489,0.63131446,-0.14409111,-0.79616445,9.603346693,1.026254368,crawl
09/07/2020, 21:38:00,-8.6141615,-1.969293,3.5581272,0.63131446,-0.14409111,-0.79616445,9.525868046,1.026254368,crawl
09/07/2020, 21:38:00,-8.6141615,-1.969293,3.5581272,0.64963114,-0.12699556,-0.7448778,9.525868046,0.996489566,crawl
09/07/2020, 21:38:00,-8.5016985,-2.0267208,3.5437703,0.64963114,-0.12699556,-0.7448778,9.431054149,0.996489566,crawl
09/07/2020, 21:38:01,-8.82473,-1.174876,4.4339004,1.1392968,-0.27475002,-0.41151446,9.945635428,1.242106621,crawl
09/07/2020, 21:38:01,-8.922835,-1.0025927,4.3836513,1.1392968,-0.27475002,-0.41151446,9.991925796,1.242106621,crawl
09/07/2020, 21:38:01,-8.922835,-1.0025927,4.3836513,1.1624979,-0.33458444,-0.47745445,9.991925796,1.300504065,crawl
09/07/2020, 21:38:01,-9.049655,-1.0815558,4.3118663,1.1624979,-0.33458444,-0.47745445,10.08256955,1.300504065,crawl
09/07/2020, 21:38:01,-9.049655,-1.0815558,4.3118663,1.2162267,-0.36633334,-0.52141446,10.08256955,1.373055181,crawl
09/07/2020, 21:38:01,-9.085547,-1.2323036,4.2568316,1.2162267,-0.36633334,-0.52141446,10.10872694,1.373055181,crawl
09/07/2020, 21:38:01,-9.085547,-1.2323036,4.2568316,1.2723979,-0.37976557,-0.53118336,10.10872694,1.430165727,crawl
09/07/2020, 21:38:01,-9.020942,-1.2107682,4.206582,1.2723979,-0.37976557,-0.53118336,10.02689793,1.430165727,crawl
09/07/2020, 21:38:01,-9.020942,-1.2107682,4.206582,1.284609,-0.37854445,-0.51164556,10.02689793,1.433630795,crawl
09/07/2020, 21:38:01,-8.941978,-0.9834501,4.1874394,1.284609,-0.37854445,-0.51164556,9.922741652,1.433630795,crawl
09/07/2020, 21:38:01,-8.941978,-0.9834501,4.1874394,1.2491968,-0.41395667,-0.50676113,9.922741652,1.410198404,crawl
09/07/2020, 21:38:01,-8.963513,-0.6867401,4.1850467,1.2491968,-0.41395667,-0.50676113,9.916188765,1.410198404,crawl
09/07/2020, 21:38:01,-8.963513,-0.6867401,4.1850467,1.2223322,-0.46158,-0.5360678,9.916188765,1.412275071,crawl
09/07/2020, 21:38:01,-9.004191,-0.56470615,4.063013,1.2223322,-0.46158,-0.5360678,9.894565733,1.412275071,crawl
09/07/2020, 21:38:01,-9.004191,-0.56470615,4.063013,1.2186689,-0.48844448,-0.5836911,9.894565733,1.436811508,crawl
09/07/2020, 21:38:01,-8.980264,-0.61016977,3.9720855,1.2186689,-0.48844448,-0.5836911,9.838440246,1.436811508,crawl
09/07/2020, 21:38:01,-8.980264,-0.61016977,3.9720855,1.2052367,-0.5018767,-0.60811335,9.838440246,1.44023523,crawl
09/07/2020, 21:38:01,-8.937193,-0.66759753,3.940979,1.2052367,-0.5018767,-0.60811335,9.790322733,1.44023523,crawl
09/07/2020, 21:38:01,-8.937193,-0.66759753,3.940979,1.1881411,-0.5250778,-0.6227667,9.790322733,1.440563896,crawl
09/07/2020, 21:38:01,-8.920443,-0.6628119,4.0031924,1.1881411,-0.5250778,-0.6227667,9.799957399,1.440563896,crawl
09/07/2020, 21:38:02,-8.894122,0.05503492,3.952943,-3.3873622,0.4261678,0.6935911,9.733149348,3.483806909,crawl
09/07/2020, 21:38:02,-8.894122,0.05503492,3.952943,-3.7304945,0.41151446,0.7070234,9.733149348,3.819138047,crawl
09/07/2020, 21:38:02,-8.906086,-0.0741775,3.7974095,-3.7304945,0.41151446,0.7070234,9.682158269,3.819138047,crawl
09/07/2020, 21:38:02,-8.906086,-0.0741775,3.7974095,-4.0272245,0.36999667,0.7216767,9.682158269,4.108071604,crawl
09/07/2020, 21:38:02,-8.9826565,-0.25842485,3.6490545,-4.0272245,0.36999667,0.7216767,9.698994781,4.108071604,crawl
09/07/2020, 21:38:02,-8.9826565,-0.25842485,3.6490545,-4.2006226,0.30894113,0.73633003,9.698994781,4.275845696,crawl
09/07/2020, 21:38:02,-9.083155,-0.61016977,3.6203406,-4.2006226,0.30894113,0.73633003,9.797084873,4.275845696,crawl
09/07/2020, 21:38:02,-9.083155,-0.61016977,3.6203406,-4.244582,0.2820767,0.7485411,9.797084873,4.319300743,crawl
09/07/2020, 21:38:02,-9.12144,-1.0552348,3.6921253,-4.244582,0.2820767,0.7485411,9.896765952,4.319300743,crawl
09/07/2020, 21:38:02,-9.12144,-1.0552348,3.6921253,-4.2042856,0.29184556,0.7717422,9.896765952,4.284481005,crawl
09/07/2020, 21:38:02,-9.049655,-1.4452649,3.7136607,-4.2042856,0.29184556,0.7717422,9.888191016,4.284481005,crawl
09/07/2020, 21:38:02,-9.049655,-1.4452649,3.7136607,-4.106597,0.31504667,0.80227005,9.888191016,4.196073179,crawl
09/07/2020, 21:38:02,-8.953942,-1.713261,3.694518,-4.106597,0.31504667,0.80227005,9.836554777,4.196073179,crawl
09/07/2020, 21:38:02,-8.953942,-1.713261,3.694518,-3.9832647,0.34435335,0.84745115,9.836554777,4.086948768,crawl
09/07/2020, 21:38:02,-8.841479,-1.861616,3.6179478,-3.9832647,0.34435335,0.84745115,9.732775392,4.086948768,crawl
09/07/2020, 21:38:02,-8.841479,-1.861616,3.6179478,-3.8294046,0.37488112,0.8865267,9.732775392,3.948519341,crawl
09/07/2020, 21:38:02,-8.752945,-1.9740787,3.5198421,-3.8294046,0.37488112,0.8865267,9.638481235,3.948519341,crawl
09/07/2020, 21:38:02,-8.752945,-1.9740787,3.5198421,-3.6499012,0.40785113,0.9060645,9.638481235,3.782733649,crawl
09/07/2020, 21:38:02,-8.760123,-2.1128623,3.3906298,-3.6499012,0.40785113,0.9060645,9.62810038,3.782733649,crawl
09/07/2020, 21:38:02,-8.760123,-2.1128623,3.3906298,-3.4655135,0.42250445,0.9268234,9.62810038,3.612103983,crawl
09/07/2020, 21:38:03,-8.135597,-1.8376877,4.3764725,0.2613178,0.08303556,0.085477784,9.419052488,0.287207839,crawl
09/07/2020, 21:38:03,-8.135597,-1.8376877,4.3764725,0.24788557,0.089141116,0.11356334,9.419052488,0.286862381,crawl
09/07/2020, 21:38:03,-8.106883,-1.8017955,4.35733,0.24788557,0.089141116,0.11356334,9.378397684,0.286862381,crawl
09/07/2020, 21:38:03,-8.106883,-1.8017955,4.35733,0.2295689,0.09646778,0.13798556,9.378397684,0.284689173,crawl
09/07/2020, 21:38:03,-8.114061,-1.7635103,4.3740797,0.2295689,0.09646778,0.13798556,9.385122998,0.284689173,crawl
09/07/2020, 21:38:03,-8.114061,-1.7635103,4.3740797,0.20026223,0.11356334,0.15996556,9.385122998,0.280340104,crawl
09/07/2020, 21:38:03,-8.200203,-1.7228323,4.2999024,0.20026223,0.11356334,0.15996556,9.418101745,0.280340104,crawl
09/07/2020, 21:38:03,-8.200203,-1.7228323,4.2999024,0.16607112,0.13676445,0.17950334,9.418101745,0.280188471,crawl
09/07/2020, 21:38:03,-8.384451,-1.6749759,4.1347976,0.16607112,0.13676445,0.17950334,9.497426612,0.280188471,crawl
09/07/2020, 21:38:03,-8.384451,-1.6749759,4.1347976,0.12455334,0.13554333,0.19415668,9.497426612,0.267548769,crawl
09/07/2020, 21:38:03,-8.523234,-1.5768701,3.9361932,0.12455334,0.13554333,0.19415668,9.519751072,0.267548769,crawl
09/07/2020, 21:38:03,-8.523234,-1.5768701,3.9361932,0.08059334,0.123332225,0.2185789,9.519751072,0.26359602,crawl
09/07/2020, 21:38:03,-8.556734,-1.4691931,3.8524444,0.08059334,0.123332225,0.2185789,9.498292189,0.26359602,crawl
09/07/2020, 21:38:03,-8.556734,-1.4691931,3.8524444,0.02075889,0.13310112,0.23079,9.498292189,0.267228116,crawl
09/07/2020, 21:38:03,-8.465807,-1.4356936,3.7998023,0.02075889,0.13310112,0.23079,9.389866944,0.267228116,crawl
09/07/2020, 21:38:03,-8.465807,-1.4356936,3.7998023,-0.013432222,0.16118668,0.2503278,9.389866944,0.298036199,crawl
09/07/2020, 21:38:03,-8.384451,-1.3950156,3.8165522,-0.013432222,0.16118668,0.2503278,9.317250454,0.298036199,crawl
09/07/2020, 21:38:03,-8.384451,-1.3950156,3.8165522,-0.018316668,0.20148334,0.27719223,9.317250454,0.343171344,crawl
09/07/2020, 21:38:03,-8.384451,-1.3423735,3.830909,-0.018316668,0.20148334,0.27719223,9.315409146,0.343171344,crawl
09/07/2020, 21:38:03,-8.384451,-1.3423735,3.830909,-0.017095556,0.25521225,0.3284789,9.315409146,0.416321917,crawl
09/07/2020, 21:38:04,-8.879765,-0.8662018,3.2015967,0.32115224,-0.5556056,-0.7570889,9.478963332,0.992481705,crawl
09/07/2020, 21:38:04,-8.834301,-0.8446664,3.3020952,0.32115224,-0.5556056,-0.7570889,9.469010929,0.992481705,crawl
09/07/2020, 21:38:04,-8.834301,-0.8446664,3.3020952,0.37610224,-0.5018767,-0.7228978,9.469010929,0.957034167,crawl
09/07/2020, 21:38:04,-8.915657,-0.8255238,3.3236306,0.37610224,-0.5018767,-0.7228978,9.550756526,0.957034167,crawl
09/07/2020, 21:38:04,-8.915657,-0.8255238,3.3236306,0.41029334,-0.46280113,-0.6777167,9.550756526,0.917510435,crawl
09/07/2020, 21:38:04,-9.040084,-0.8135597,3.2685957,0.41029334,-0.46280113,-0.6777167,9.647212752,0.917510435,crawl
09/07/2020, 21:38:04,-9.040084,-0.8135597,3.2685957,0.4249467,-0.44448447,-0.64841,9.647212752,0.893633984,crawl
09/07/2020, 21:38:04,-9.138189,-0.7848458,3.2303107,0.4249467,-0.44448447,-0.64841,9.72406263,0.893633984,crawl
09/07/2020, 21:38:04,-9.138189,-0.7848458,3.2303107,0.4163989,-0.43960002,-0.6105556,9.72406263,0.859892063,crawl
09/07/2020, 21:38:04,-9.042477,-0.7680961,3.225525,0.4163989,-0.43960002,-0.6105556,9.631218331,0.859892063,crawl
09/07/2020, 21:38:04,-9.042477,-0.7680961,3.225525,0.39686114,-0.42128336,-0.58124894,9.631218331,0.820261399,crawl
09/07/2020, 21:38:04,-8.886943,-0.7752745,3.2805598,0.39686114,-0.42128336,-0.58124894,9.50478177,0.820261399,crawl
09/07/2020, 21:38:04,-8.886943,-0.7752745,3.2805598,0.39808223,-0.39197668,-0.55438447,9.50478177,0.78705611,crawl
09/07/2020, 21:38:04,-8.7266245,-0.78723866,3.3523445,0.39808223,-0.39197668,-0.55438447,9.381467551,0.78705611,crawl
09/07/2020, 21:38:04,-8.7266245,-0.78723866,3.3523445,0.41273558,-0.3602278,-0.53851,9.381467551,0.768184724,crawl
09/07/2020, 21:38:04,-8.633304,-0.79441714,3.4169507,0.41273558,-0.3602278,-0.53851,9.318829459,0.768184724,crawl
09/07/2020, 21:38:04,-8.633304,-0.79441714,3.4169507,0.44448447,-0.33336335,-0.5250778,9.318829459,0.764463399,crawl
09/07/2020, 21:38:04,-8.5423765,-0.78723866,3.4911282,0.44448447,-0.33336335,-0.5250778,9.261744838,0.764463399,crawl
09/07/2020, 21:38:04,-8.5423765,-0.78723866,3.4911282,0.4713489,-0.3162678,-0.5189722,9.261744838,0.769108103,crawl
09/07/2020, 21:38:04,-8.46102,-0.8063812,3.5796626,0.4713489,-0.3162678,-0.5189722,9.222423875,0.769108103,crawl
09/07/2020, 21:38:05,-8.82473,-0.77766734,4.8215375,0.048844445,-0.006105556,-0.10013112,10.08602243,0.111576423,crawl
09/07/2020, 21:38:05,-8.76491,-0.7369894,4.8239303,0.048844445,-0.006105556,-0.10013112,10.03180439,0.111576423,crawl
09/07/2020, 21:38:05,-8.76491,-0.7369894,4.8239303,0.06227667,-0.054950003,-0.12943779,10.03180439,0.153792157,crawl
09/07/2020, 21:38:05,-8.719446,-0.6652047,4.855037,0.06227667,-0.054950003,-0.12943779,10.00213104,0.153792157,crawl
09/07/2020, 21:38:05,-8.719446,-0.6652047,4.855037,0.054950003,-0.10013112,-0.15874445,10.00213104,0.195564683,crawl
09/07/2020, 21:38:05,-8.71466,-0.6149554,4.843073,0.054950003,-0.10013112,-0.15874445,9.988934815,0.195564683,crawl
09/07/2020, 21:38:05,-8.71466,-0.6149554,4.843073,0.035412222,-0.15019667,-0.18194556,9.988934815,0.238573371,crawl
09/07/2020, 21:38:05,-8.781659,-0.59581286,4.8358946,0.035412222,-0.15019667,-0.18194556,10.04282861,0.238573371,crawl
09/07/2020, 21:38:05,-8.781659,-0.59581286,4.8358946,0.007326667,-0.20881,-0.20514667,10.04282861,0.292814708,crawl
09/07/2020, 21:38:05,-8.843872,-0.5838487,4.8047876,0.007326667,-0.20881,-0.20514667,10.08171299,0.292814708,crawl
09/07/2020, 21:38:05,-8.843872,-0.5838487,4.8047876,-0.02075889,-0.26986557,-0.23323223,10.08171299,0.357289283,crawl
09/07/2020, 21:38:05,-8.9013,-0.6125626,4.7401814,-0.02075889,-0.26986557,-0.23323223,10.10335105,0.357289283,crawl
09/07/2020, 21:38:05,-8.9013,-0.6125626,4.7401814,-0.04029667,-0.3309211,-0.25399113,10.10335105,0.41909915,crawl
09/07/2020, 21:38:05,-8.9826565,-0.64606214,4.6229334,-0.04029667,-0.3309211,-0.25399113,10.12309374,0.41909915,crawl
09/07/2020, 21:38:05,-8.9826565,-0.64606214,4.6229334,-0.06349778,-0.3834289,-0.28329778,10.12309374,0.480944198,crawl
09/07/2020, 21:38:05,-9.020942,-0.66999036,4.575077,-0.06349778,-0.3834289,-0.28329778,10.13694268,0.480944198,crawl
09/07/2020, 21:38:05,-9.020942,-0.66999036,4.575077,-0.08425667,-0.4383789,-0.32237336,10.13694268,0.550635842,crawl
09/07/2020, 21:38:05,-9.059227,-0.6652047,4.505685,-0.08425667,-0.4383789,-0.32237336,10.1396887,0.550635842,crawl
09/07/2020, 21:38:05,-9.059227,-0.6652047,4.505685,-0.09646778,-0.48966557,-0.35778558,10.1396887,0.614075666,crawl
09/07/2020, 21:38:05,-9.066405,-0.64845496,4.421936,-0.09646778,-0.48966557,-0.35778558,10.10810156,0.614075666,crawl
09/07/2020, 21:38:06,-8.449057,-1.4548361,4.4075794,-0.4493689,0.3614489,0.45425335,9.640013609,0.734114312,crawl
09/07/2020, 21:38:06,-8.489735,-1.4117653,4.3740797,-0.4493689,0.3614489,0.45425335,9.654079399,0.734114312,crawl
09/07/2020, 21:38:06,-8.489735,-1.4117653,4.3740797,-0.5140878,0.3370267,0.46524334,9.654079399,0.770924519,crawl
09/07/2020, 21:38:06,-8.535198,-1.3926228,4.3405805,-0.5140878,0.3370267,0.46524334,9.676241296,0.770924519,crawl
09/07/2020, 21:38:06,-8.535198,-1.3926228,4.3405805,-0.59468114,0.30405667,0.47501224,9.676241296,0.819593042,crawl
09/07/2020, 21:38:06,-8.599805,-1.4069797,4.254439,-0.59468114,0.30405667,0.47501224,9.69724115,0.819593042,crawl
09/07/2020, 21:38:06,-8.599805,-1.4069797,4.254439,-0.67161113,0.27475002,0.48722336,9.69724115,0.874034144,crawl
09/07/2020, 21:38:06,-8.652447,-1.3782659,4.206582,-0.67161113,0.27475002,0.48722336,9.719042349,0.874034144,crawl
09/07/2020, 21:38:06,-8.652447,-1.3782659,4.206582,-0.7351089,0.24300112,0.4798967,9.719042349,0.910898179,crawl
09/07/2020, 21:38:06,-8.633304,-1.416551,4.1898327,-0.7351089,0.24300112,0.4798967,9.700270432,0.910898179,crawl
09/07/2020, 21:38:06,-8.633304,-1.416551,4.1898327,-0.78029,0.21980001,0.4823389,9.700270432,0.943300249,crawl
09/07/2020, 21:38:06,-8.6141615,-1.5026926,4.1347976,-0.78029,0.21980001,0.4823389,9.672559856,0.943300249,crawl
09/07/2020, 21:38:06,-8.6141615,-1.5026926,4.1347976,-0.80227005,0.20636779,0.47745445,9.672559856,0.956131613,crawl
09/07/2020, 21:38:06,-8.556734,-1.5984055,4.1467614,-0.80227005,0.20636779,0.47745445,9.642003347,0.956131613,crawl
09/07/2020, 21:38:06,-8.556734,-1.5984055,4.1467614,-0.79128003,0.2075889,0.4701278,9.642003347,0.943523915,crawl
09/07/2020, 21:38:06,-8.496913,-1.7252251,4.1491547,-0.79128003,0.2075889,0.4701278,9.611941314,0.943523915,crawl
09/07/2020, 21:38:06,-8.496913,-1.7252251,4.1491547,-0.7680789,0.21125223,0.46524334,9.611941314,0.922509675,crawl
09/07/2020, 21:38:06,-8.46102,-1.8544376,4.173083,-0.7680789,0.21125223,0.46524334,9.614698459,0.922509675,crawl
09/07/2020, 21:38:06,-8.46102,-1.8544376,4.173083,-0.72778225,0.22224224,0.4493689,9.614698459,0.883736962,crawl
09/07/2020, 21:38:06,-8.446664,-1.9525433,4.1898327,-0.72778225,0.22224224,0.4493689,9.628772166,0.883736962,crawl
09/07/2020, 21:38:07,-8.1738825,-2.658426,3.6634114,0.48478112,-0.19171445,-0.58124894,9.34345583,0.780780053,crawl
09/07/2020, 21:38:07,-8.216953,-2.6321049,3.6801612,0.48478112,-0.19171445,-0.58124894,9.380292318,0.780780053,crawl
09/07/2020, 21:38:07,-8.216953,-2.6321049,3.6801612,0.48966557,-0.18072446,-0.55438447,9.380292318,0.761430127,crawl
09/07/2020, 21:38:07,-8.279166,-2.589034,3.656233,0.48966557,-0.18072446,-0.55438447,9.413592889,0.761430127,crawl
09/07/2020, 21:38:07,-8.279166,-2.589034,3.656233,0.47623336,-0.17950334,-0.52019334,9.413592889,0.727750488,crawl
09/07/2020, 21:38:07,-8.315059,-2.4909284,3.6394832,0.47623336,-0.17950334,-0.52019334,9.412266663,0.727750488,crawl
09/07/2020, 21:38:07,-8.315059,-2.4909284,3.6394832,0.43349445,-0.18072446,-0.4921078,9.412266663,0.680256468,crawl
09/07/2020, 21:38:07,-8.293523,-2.4311078,3.5605202,0.43349445,-0.18072446,-0.4921078,9.347197968,0.680256468,crawl
09/07/2020, 21:38:07,-8.293523,-2.4311078,3.5605202,0.37976557,-0.17706113,-0.45547447,9.347197968,0.618893787,crawl
09/07/2020, 21:38:07,-8.30788,-2.3712873,3.5437703,0.37976557,-0.17706113,-0.45547447,9.338211203,0.618893787,crawl
09/07/2020, 21:38:07,-8.30788,-2.3712873,3.5437703,0.31993112,-0.17706113,-0.4163989,9.338211203,0.554161184,crawl
09/07/2020, 21:38:07,-8.30788,-2.3425734,3.5006995,0.31993112,-0.17706113,-0.4163989,9.314688618,0.554161184,crawl
09/07/2020, 21:38:07,-8.30788,-2.3425734,3.5006995,0.2735289,-0.16973445,-0.39197668,9.314688618,0.507221416,crawl
09/07/2020, 21:38:07,-8.32463,-2.2971098,3.507878,0.2735289,-0.16973445,-0.39197668,9.321018355,0.507221416,crawl
09/07/2020, 21:38:07,-8.32463,-2.2971098,3.507878,0.23323223,-0.15874445,-0.35168,9.321018355,0.450861292,crawl
09/07/2020, 21:38:07,-8.286345,-2.2971098,3.5150564,0.23323223,-0.15874445,-0.35168,9.289555456,0.450861292,crawl
09/07/2020, 21:38:07,-8.286345,-2.2971098,3.5150564,0.19782001,-0.14042778,-0.31871,9.289555456,0.400535618,crawl
09/07/2020, 21:38:07,-8.295917,-2.347359,3.5318062,0.19782001,-0.14042778,-0.31871,9.316972726,0.400535618,crawl
09/07/2020, 21:38:07,-8.295917,-2.347359,3.5318062,0.18072446,-0.11966889,-0.28085557,9.316972726,0.354770098,crawl
09/07/2020, 21:38:07,-8.319844,-2.3688943,3.5389848,0.18072446,-0.11966889,-0.28085557,9.346436856,0.354770098,crawl
09/07/2020, 21:38:08,-8.717052,-2.2229323,3.9984066,-0.14042778,-0.18072446,-0.18438779,9.844576552,0.293904998,crawl
09/07/2020, 21:38:08,-8.69791,-2.2444677,4.019942,-0.14042778,-0.18072446,-0.18438779,9.8413013,0.293904998,crawl
09/07/2020, 21:38:08,-8.69791,-2.2444677,4.019942,-0.11966889,-0.19782001,-0.21980001,9.8413013,0.319006966,crawl
09/07/2020, 21:38:08,-8.69791,-2.321038,4.034299,-0.11966889,-0.19782001,-0.21980001,9.864908959,0.319006966,crawl
09/07/2020, 21:38:08,-8.69791,-2.321038,4.034299,-0.081814446,-0.21613668,-0.2503278,9.864908959,0.340694398,crawl
09/07/2020, 21:38:08,-8.707481,-2.3904297,4.0438704,-0.081814446,-0.21613668,-0.2503278,9.893799805,0.340694398,crawl
09/07/2020, 21:38:08,-8.707481,-2.3904297,4.0438704,-0.042738892,-0.23811668,-0.27963445,9.893799805,0.369758827,crawl
09/07/2020, 21:38:08,-8.740981,-2.4095724,4.0390844,-0.042738892,-0.23811668,-0.27963445,9.925975653,0.369758827,crawl
09/07/2020, 21:38:08,-8.740981,-2.4095724,4.0390844,-0.014653334,-0.25765446,-0.31138334,9.925975653,0.40442567,crawl
09/07/2020, 21:38:08,-8.774481,-2.4047868,4.0366917,-0.014653334,-0.25765446,-0.31138334,9.953360886,0.40442567,crawl
09/07/2020, 21:38:08,-8.774481,-2.4047868,4.0366917,0.019537779,-0.27719223,-0.33458444,9.953360886,0.434929892,crawl
09/07/2020, 21:38:08,-8.827123,-2.3784657,4.031906,0.019537779,-0.27719223,-0.33458444,9.991569488,0.434929892,crawl
09/07/2020, 21:38:08,-8.827123,-2.3784657,4.031906,0.068382226,-0.29673,-0.34801668,9.991569488,0.462428846,crawl
09/07/2020, 21:38:08,-8.896515,-2.333002,4.034299,0.068382226,-0.29673,-0.34801668,10.04322874,0.462428846,crawl
09/07/2020, 21:38:08,-8.896515,-2.333002,4.034299,0.117226675,-0.31260446,-0.35778558,10.04322874,0.489360974,crawl
09/07/2020, 21:38:08,-8.949157,-2.2899313,4.019942,0.117226675,-0.31260446,-0.35778558,10.07428033,0.489360974,crawl
09/07/2020, 21:38:08,-8.949157,-2.2899313,4.019942,0.13554333,-0.3382478,-0.39075556,10.07428033,0.534297187,crawl
09/07/2020, 21:38:08,-8.932407,-2.2372892,3.991228,0.13554333,-0.3382478,-0.39075556,10.03609816,0.534297187,crawl
09/07/2020, 21:38:08,-8.932407,-2.2372892,3.991228,0.13920668,-0.35656446,-0.41151446,10.03609816,0.562015006,crawl
09/07/2020, 21:38:08,-8.9108715,-2.2061825,3.952943,0.13920668,-0.35656446,-0.41151446,9.994830222,0.562015006,crawl
09/07/2020, 21:38:09,-8.5423765,-3.0053852,3.5581272,-0.21613668,0.35656446,0.88408446,9.729584033,0.977475635,crawl
09/07/2020, 21:38:09,-8.5423765,-3.0053852,3.5581272,-0.20148334,0.3602278,0.8755367,9.729584033,0.967948386,crawl
09/07/2020, 21:38:09,-8.580662,-2.9790642,3.5437703,-0.20148334,0.3602278,0.8755367,9.749917342,0.967948386,crawl
09/07/2020, 21:38:09,-8.580662,-2.9790642,3.5437703,-0.19904111,0.3614489,0.8621045,9.749917342,0.955765038,crawl
09/07/2020, 21:38:09,-8.580662,-2.914458,3.5557344,-0.19904111,0.3614489,0.8621045,9.73473519,0.955765038,crawl
09/07/2020, 21:38:09,-8.580662,-2.914458,3.5557344,-0.18927222,0.36755446,0.8523356,9.73473519,0.947309971,crawl
09/07/2020, 21:38:09,-8.539984,-2.900101,3.574877,-0.18927222,0.36755446,0.8523356,9.701631495,0.947309971,crawl
09/07/2020, 21:38:09,-8.539984,-2.900101,3.574877,-0.18683001,0.3724389,0.8327978,9.701631495,0.931218778,crawl
09/07/2020, 21:38:09,-8.504091,-2.9192436,3.5389848,-0.18683001,0.3724389,0.8327978,9.662606506,0.931218778,crawl
09/07/2020, 21:38:09,-8.504091,-2.9192436,3.5389848,-0.18683001,0.37854445,0.8205867,9.662606506,0.922802176,crawl
09/07/2020, 21:38:09,-8.506484,-2.9168508,3.534199,-0.18683001,0.37854445,0.8205867,9.662238445,0.922802176,crawl
09/07/2020, 21:38:09,-8.506484,-2.9168508,3.534199,-0.17828223,0.38220778,0.8095967,9.662238445,0.912860442,crawl
09/07/2020, 21:38:09,-8.530413,-2.9072795,3.5294135,-0.17828223,0.38220778,0.8095967,9.678686575,0.912860442,crawl
09/07/2020, 21:38:09,-8.530413,-2.9072795,3.5294135,-0.16851334,0.3858711,0.7998278,9.678686575,0.903890366,crawl
09/07/2020, 21:38:09,-8.530413,-2.8785655,3.5365918,-0.16851334,0.3858711,0.7998278,9.672722541,0.903890366,crawl
09/07/2020, 21:38:09,-8.530413,-2.8785655,3.5365918,-0.16240779,0.38709223,0.7766267,9.672722541,0.882816927,crawl
09/07/2020, 21:38:09,-8.554341,-2.9048867,3.5605202,-0.16240779,0.38709223,0.7766267,9.71042873,0.882816927,crawl
09/07/2020, 21:38:09,-8.554341,-2.9048867,3.5605202,-0.14164889,0.3931978,0.7558678,9.71042873,0.863715822,crawl
09/07/2020, 21:38:09,-8.590233,-2.9359934,3.6179478,-0.14164889,0.3931978,0.7558678,9.772497339,0.863715822,crawl
09/07/2020, 21:38:09,-8.590233,-2.9359934,3.6179478,-0.10379445,0.3944189,0.7314456,9.772497339,0.837467751,crawl
09/07/2020, 21:38:10,-8.30788,-2.6751757,3.711268,-0.12455334,-0.09646778,-0.65085226,9.48424754,0.669647844,crawl
09/07/2020, 21:38:10,-8.255239,-2.6392834,3.7471602,-0.12455334,-0.09646778,-0.65085226,9.442244952,0.669647844,crawl
09/07/2020, 21:38:10,-8.255239,-2.6392834,3.7471602,-0.123332225,-0.08669889,-0.6007867,9.442244952,0.619412768,crawl
09/07/2020, 21:38:10,-8.200203,-2.5914268,3.7734814,-0.123332225,-0.08669889,-0.6007867,9.391378123,0.619412768,crawl
09/07/2020, 21:38:10,-8.200203,-2.5914268,3.7734814,-0.12089001,-0.078151114,-0.5372889,9.391378123,0.556238579,crawl
09/07/2020, 21:38:10,-8.140383,-2.5603201,3.7686956,-0.12089001,-0.078151114,-0.5372889,9.328672857,0.556238579,crawl
09/07/2020, 21:38:10,-8.140383,-2.5603201,3.7686956,-0.117226675,-0.058613338,-0.47257003,9.328672857,0.490408046,crawl
09/07/2020, 21:38:10,-8.087741,-2.5459633,3.8213377,-0.117226675,-0.058613338,-0.47257003,9.300328151,0.490408046,crawl
09/07/2020, 21:38:10,-8.087741,-2.5459633,3.8213377,-0.10867889,-0.048844445,-0.40052447,9.300328151,0.417871667,crawl
09/07/2020, 21:38:10,-8.037491,-2.5196424,3.8380876,-0.10867889,-0.048844445,-0.40052447,9.256390915,0.417871667,crawl
09/07/2020, 21:38:10,-8.037491,-2.5196424,3.8380876,-0.09402556,-0.04029667,-0.33336335,9.256390915,0.348705826,crawl
09/07/2020, 21:38:10,-8.006385,-2.498107,3.8404803,-0.09402556,-0.04029667,-0.33336335,9.224533911,0.348705826,crawl
09/07/2020, 21:38:10,-8.006385,-2.498107,3.8404803,-0.08425667,-0.026864445,-0.2625389,9.224533911,0.277033508,crawl
09/07/2020, 21:38:10,-7.9800634,-2.4837499,3.8380876,-0.08425667,-0.026864445,-0.2625389,9.196811512,0.277033508,crawl
09/07/2020, 21:38:10,-7.9800634,-2.4837499,3.8380876,-0.068382226,-0.006105556,-0.18316667,9.196811512,0.195610416,crawl
09/07/2020, 21:38:10,-7.9346,-2.4765713,3.8572302,-0.068382226,-0.006105556,-0.18316667,9.163487623,0.195610416,crawl
09/07/2020, 21:38:10,-7.9346,-2.4765713,3.8572302,-0.042738892,0.01099,-0.10745778,9.163487623,0.11616612,crawl
09/07/2020, 21:38:10,-7.893922,-2.4765713,3.8763726,-0.042738892,0.01099,-0.10745778,9.136392727,0.11616612,crawl
09/07/2020, 21:38:10,-7.893922,-2.4765713,3.8763726,-0.023201112,0.034191113,-0.035412222,9.136392727,0.054418281,crawl
09/07/2020, 21:38:10,-7.8628154,-2.4909284,3.8931224,-0.023201112,0.034191113,-0.035412222,9.120580702,0.054418281,crawl
09/07/2020, 21:38:11,-8.796016,-2.8307092,3.3667014,0.10867889,-0.36755446,-0.9842156,9.83450485,1.05621388,crawl
09/07/2020, 21:38:11,-8.796016,-2.8307092,3.3667014,0.08669889,-0.3602278,-0.9854367,9.83450485,1.052789726,crawl
09/07/2020, 21:38:11,-8.7577305,-2.8977082,3.3667014,0.08669889,-0.3602278,-0.9854367,9.819838797,1.052789726,crawl
09/07/2020, 21:38:11,-8.7577305,-2.8977082,3.3667014,0.08303556,-0.35412225,-0.9732256,9.819838797,1.038973305,crawl
09/07/2020, 21:38:11,-8.729017,-2.9503503,3.3882368,0.08303556,-0.35412225,-0.9732256,9.81735491,1.038973305,crawl
09/07/2020, 21:38:11,-8.729017,-2.9503503,3.3882368,0.085477784,-0.33458444,-0.9646778,9.81735491,1.024625044,crawl
09/07/2020, 21:38:11,-8.669196,-2.9862428,3.438486,0.085477784,-0.33458444,-0.9646778,9.79263979,1.024625044,crawl
09/07/2020, 21:38:11,-8.669196,-2.9862428,3.438486,0.10013112,-0.3174889,-0.9414767,9.79263979,0.998600936,crawl
09/07/2020, 21:38:11,-8.657232,-3.0388846,3.4672,0.10013112,-0.3174889,-0.9414767,9.808362086,0.998600936,crawl
09/07/2020, 21:38:11,-8.657232,-3.0388846,3.4672,0.12577444,-0.30283555,-0.9194967,9.808362086,0.976218619,crawl
09/07/2020, 21:38:11,-8.650054,-3.048456,3.4791641,0.12577444,-0.30283555,-0.9194967,9.809235471,0.976218619,crawl
09/07/2020, 21:38:11,-8.650054,-3.048456,3.4791641,0.14287001,-0.2942878,-0.8950745,9.809235471,0.952982416,crawl
09/07/2020, 21:38:11,-8.609376,-3.0412776,3.481557,0.14287001,-0.2942878,-0.8950745,9.771998896,0.952982416,crawl
09/07/2020, 21:38:11,-8.609376,-3.0412776,3.481557,0.15630223,-0.28085557,-0.8755367,9.771998896,0.932670743,crawl
09/07/2020, 21:38:11,-8.504091,-3.010171,3.4480574,0.15630223,-0.28085557,-0.8755367,9.657628964,0.932670743,crawl
09/07/2020, 21:38:11,-8.504091,-3.010171,3.4480574,0.15630223,-0.26376,-0.84623003,9.657628964,0.900058325,crawl
09/07/2020, 21:38:11,-8.4012,-2.9982069,3.4289148,0.15630223,-0.26376,-0.84623003,9.55650916,0.900058325,crawl
09/07/2020, 21:38:11,-8.4012,-2.9982069,3.4289148,0.15386,-0.24788557,-0.81326,9.55650916,0.864009268,crawl
09/07/2020, 21:38:11,-8.334201,-2.9647074,3.3762727,0.15386,-0.24788557,-0.81326,9.468242233,0.864009268,crawl
09/07/2020, 21:38:11,-8.334201,-2.9647074,3.3762727,0.14775445,-0.23567446,-0.77418447,9.468242233,0.822639296,crawl
09/07/2020, 21:38:12,-8.671589,-3.0532417,3.7734814,0.09646778,0.24300112,0.21491556,9.937700977,0.338443899,crawl
09/07/2020, 21:38:12,-8.666803,-3.0029924,3.830909,0.09646778,0.24300112,0.21491556,9.9401865,0.338443899,crawl
09/07/2020, 21:38:12,-8.666803,-3.0029924,3.830909,0.07937223,0.2075889,0.17828223,9.9401865,0.284916925,crawl
09/07/2020, 21:38:12,-8.709874,-2.9216363,3.9242291,0.07937223,0.2075889,0.17828223,9.989866919,0.284916925,crawl
09/07/2020, 21:38:12,-8.709874,-2.9216363,3.9242291,0.06349778,0.16851334,0.14164889,9.989866919,0.229113777,crawl
09/07/2020, 21:38:12,-8.717052,-2.8594232,3.9146578,0.06349778,0.16851334,0.14164889,9.974359645,0.229113777,crawl
09/07/2020, 21:38:12,-8.717052,-2.8594232,3.9146578,0.036633335,0.12455334,0.10501556,9.974359645,0.16698444,crawl
09/07/2020, 21:38:12,-8.693125,-2.8402805,3.912265,0.036633335,0.12455334,0.10501556,9.947031201,0.16698444,crawl
09/07/2020, 21:38:12,-8.693125,-2.8402805,3.912265,0,0.08059334,0.064718895,9.947031201,0.103362574,crawl
09/07/2020, 21:38:12,-8.681161,-2.7708886,3.9338005,0,0.08059334,0.064718895,9.92548057,0.103362574,crawl
09/07/2020, 21:38:12,-8.681161,-2.7708886,3.9338005,-0.035412222,0.037854444,0.035412222,9.92548057,0.062777463,crawl
09/07/2020, 21:38:12,-8.695518,-2.7230322,3.9290147,-0.035412222,0.037854444,0.035412222,9.922907146,0.062777463,crawl
09/07/2020, 21:38:12,-8.695518,-2.7230322,3.9290147,-0.07326667,-0.006105556,0.002442222,9.922907146,0.07356118,crawl
09/07/2020, 21:38:12,-8.688339,-2.658426,3.9649072,-0.07326667,-0.006105556,0.002442222,9.913372612,0.07356118,crawl
09/07/2020, 21:38:12,-8.688339,-2.658426,3.9649072,-0.10379445,-0.05250778,-0.035412222,9.913372612,0.121591036,crawl
09/07/2020, 21:38:12,-8.681161,-2.6249263,3.9816568,-0.10379445,-0.05250778,-0.035412222,9.904866686,0.121591036,crawl
09/07/2020, 21:38:12,-8.681161,-2.6249263,3.9816568,-0.10135223,-0.09280445,-0.07204556,9.904866686,0.155162825,crawl
09/07/2020, 21:38:12,-8.669196,-2.6416762,3.9553359,-0.10135223,-0.09280445,-0.07204556,9.888280757,0.155162825,crawl
09/07/2020, 21:38:12,-8.669196,-2.6416762,3.9553359,-0.07570889,-0.12699556,-0.11478445,9.888280757,0.187176865,crawl
09/07/2020, 21:38:12,-8.671589,-2.696711,3.9553359,-0.07570889,-0.12699556,-0.11478445,9.905220154,0.187176865,crawl
09/07/2020, 21:38:13,-8.4347,-3.182454,3.8380876,-0.14409111,0.12455334,0.69481224,9.798116889,0.720444189,crawl
09/07/2020, 21:38:13,-8.4347,-3.182454,3.8380876,-0.15752333,0.12089001,0.7009178,9.798116889,0.728501015,crawl
09/07/2020, 21:38:13,-8.446664,-3.196811,3.8069808,-0.15752333,0.12089001,0.7009178,9.800960861,0.728501015,crawl
09/07/2020, 21:38:13,-8.446664,-3.196811,3.8069808,-0.15996556,0.123332225,0.7021389,9.800960861,0.730615394,crawl
09/07/2020, 21:38:13,-8.463413,-3.1848469,3.7950168,-0.15996556,0.123332225,0.7021389,9.806873382,0.730615394,crawl
09/07/2020, 21:38:13,-8.463413,-3.1848469,3.7950168,-0.16362889,0.12455334,0.70336,9.806873382,0.732805068,crawl
09/07/2020, 21:38:13,-8.499306,-3.2015967,3.7758741,-0.16362889,0.12455334,0.70336,9.835936406,0.732805068,crawl
09/07/2020, 21:38:13,-8.499306,-3.2015967,3.7758741,-0.16729222,0.11966889,0.7070234,9.835936406,0.73633511,crawl
09/07/2020, 21:38:13,-8.568698,-3.2303107,3.7567315,-0.16729222,0.11966889,0.7070234,9.898006007,0.73633511,crawl
09/07/2020, 21:38:13,-8.568698,-3.2303107,3.7567315,-0.1856089,0.11112112,0.6996967,9.898006007,0.73237563,crawl
09/07/2020, 21:38:13,-8.568698,-3.2327034,3.7160535,-0.1856089,0.11112112,0.6996967,9.883420931,0.73237563,crawl
09/07/2020, 21:38:13,-8.568698,-3.2327034,3.7160535,-0.20392556,0.10745778,0.6874856,9.883420931,0.72509946,crawl
09/07/2020, 21:38:13,-8.571091,-3.237489,3.7256248,-0.20392556,0.10745778,0.6874856,9.890662811,0.72509946,crawl
09/07/2020, 21:38:13,-8.571091,-3.237489,3.7256248,-0.22102112,0.10501556,0.6789378,9.890662811,0.72168908,crawl
09/07/2020, 21:38:13,-8.549556,-3.2231321,3.7471602,-0.22102112,0.10501556,0.6789378,9.875459194,0.72168908,crawl
09/07/2020, 21:38:13,-8.549556,-3.2231321,3.7471602,-0.23567446,0.098910004,0.6679478,9.875459194,0.715178257,crawl
09/07/2020, 21:38:13,-8.556734,-3.2063823,3.739982,-0.23567446,0.098910004,0.6679478,9.87350242,0.715178257,crawl
09/07/2020, 21:38:13,-8.556734,-3.2063823,3.739982,-0.24788557,0.09524667,0.6618422,9.87350242,0.713129945,crawl
09/07/2020, 21:38:13,-8.602198,-3.2422748,3.6993039,-0.24788557,0.09524667,0.6618422,9.909338983,0.713129945,crawl
09/07/2020, 21:38:13,-8.602198,-3.2422748,3.6993039,-0.25643334,0.089141116,0.64963114,9.909338983,0.70407728,crawl
09/07/2020, 21:38:14,-8.724232,-3.0293136,3.333202,0.17339778,-0.17706113,-0.6972545,9.818309151,0.739987325,crawl
09/07/2020, 21:38:14,-8.683554,-2.9982069,3.3164523,0.17339778,-0.17706113,-0.6972545,9.766893301,0.739987325,crawl
09/07/2020, 21:38:14,-8.683554,-2.9982069,3.3164523,0.15874445,-0.16485001,-0.6935911,9.766893301,0.730372485,crawl
09/07/2020, 21:38:14,-8.62134,-2.9718857,3.3092737,0.15874445,-0.16485001,-0.6935911,9.701077103,0.730372485,crawl
09/07/2020, 21:38:14,-8.62134,-2.9718857,3.3092737,0.15386,-0.15386,-0.6935911,9.701077103,0.726921206,crawl
09/07/2020, 21:38:14,-8.597412,-2.9790642,3.2853456,0.15386,-0.15386,-0.6935911,9.673872754,0.726921206,crawl
09/07/2020, 21:38:14,-8.597412,-2.9790642,3.2853456,0.1526389,-0.14042778,-0.6972545,9.673872754,0.727449245,crawl
09/07/2020, 21:38:14,-8.559127,-2.9886355,3.3092737,0.1526389,-0.14042778,-0.6972545,9.651004479,0.727449245,crawl
09/07/2020, 21:38:14,-8.559127,-2.9886355,3.3092737,0.14775445,-0.13188,-0.68626446,9.651004479,0.714270686,crawl
09/07/2020, 21:38:14,-8.532805,-3.010171,3.2829528,0.14775445,-0.13188,-0.68626446,9.625366319,0.714270686,crawl
09/07/2020, 21:38:14,-8.532805,-3.010171,3.2829528,0.13432223,-0.11966889,-0.68626446,9.625366319,0.709451906,crawl
09/07/2020, 21:38:14,-8.496913,-3.0149565,3.2638102,0.13432223,-0.11966889,-0.68626446,9.588532165,0.709451906,crawl
09/07/2020, 21:38:14,-8.496913,-3.0149565,3.2638102,0.11600556,-0.11112112,-0.6691689,9.588532165,0.688180351,crawl
09/07/2020, 21:38:14,-8.5016985,-3.0125637,3.278167,0.11600556,-0.11112112,-0.6691689,9.596915979,0.688180351,crawl
09/07/2020, 21:38:14,-8.5016985,-3.0125637,3.278167,0.10501556,-0.10135223,-0.6459678,9.596915979,0.66224989,crawl
09/07/2020, 21:38:14,-8.523234,-2.952743,3.290131,0.10501556,-0.10135223,-0.6459678,9.601519579,0.66224989,crawl
09/07/2020, 21:38:14,-8.523234,-2.952743,3.290131,0.089141116,-0.09524667,-0.6349778,9.601519579,0.648239844,crawl
09/07/2020, 21:38:14,-8.52802,-2.955136,3.2470603,0.089141116,-0.09524667,-0.6349778,9.591837844,0.648239844,crawl
09/07/2020, 21:38:14,-8.52802,-2.955136,3.2470603,0.07570889,-0.09036223,-0.6142189,9.591837844,0.625429463,crawl
09/07/2020, 21:38:14,-8.516056,-2.9455647,3.2853456,0.07570889,-0.09036223,-0.6142189,9.591301159,0.625429463,crawl
09/07/2020, 21:38:15,-8.446664,-2.8378878,3.888337,0.13554333,-0.16118668,-0.49577114,9.722083166,0.53864846,crawl
09/07/2020, 21:38:15,-8.465807,-2.8761728,3.9050865,0.13554333,-0.16118668,-0.49577114,9.756636617,0.53864846,crawl
09/07/2020, 21:38:15,-8.465807,-2.8761728,3.9050865,0.16485001,-0.15874445,-0.50676113,9.756636617,0.556041522,crawl
09/07/2020, 21:38:15,-8.463413,-2.9192436,3.9146578,0.16485001,-0.15874445,-0.50676113,9.771176624,0.556041522,crawl
09/07/2020, 21:38:15,-8.463413,-2.9192436,3.9146578,0.19293556,-0.16362889,-0.51775116,9.771176624,0.576250643,crawl
09/07/2020, 21:38:15,-8.4682,-2.9575288,3.8811584,0.19293556,-0.16362889,-0.51775116,9.773472955,0.576250643,crawl
09/07/2020, 21:38:15,-8.4682,-2.9575288,3.8811584,0.22224224,-0.16851334,-0.5250778,9.773472955,0.594554518,crawl
09/07/2020, 21:38:15,-8.4347,-2.9886355,3.8524444,0.22224224,-0.16851334,-0.5250778,9.74255791,0.594554518,crawl
09/07/2020, 21:38:15,-8.4347,-2.9886355,3.8524444,0.24910668,-0.16729222,-0.5324045,9.74255791,0.611142664,crawl
09/07/2020, 21:38:15,-8.441878,-2.9958138,3.8476589,0.24910668,-0.16729222,-0.5324045,9.74908657,0.611142664,crawl
09/07/2020, 21:38:15,-8.441878,-2.9958138,3.8476589,0.2735289,-0.16240779,-0.5360678,9.74908657,0.623348232,crawl
09/07/2020, 21:38:15,-8.437093,-3.0125637,3.8237305,0.2735289,-0.16240779,-0.5360678,9.740687315,0.623348232,crawl
09/07/2020, 21:38:15,-8.437093,-3.0125637,3.8237305,0.30283555,-0.15752333,-0.53973114,9.740687315,0.63861779,crawl
09/07/2020, 21:38:15,-8.46102,-3.048456,3.7806597,0.30283555,-0.15752333,-0.53973114,9.755784882,0.63861779,crawl
09/07/2020, 21:38:15,-8.46102,-3.048456,3.7806597,0.32481557,-0.15630223,-0.5458367,9.755784882,0.654120196,crawl
09/07/2020, 21:38:15,-8.520842,-3.0460632,3.7304106,0.32481557,-0.15630223,-0.5458367,9.787706858,0.654120196,crawl
09/07/2020, 21:38:15,-8.520842,-3.0460632,3.7304106,0.34435335,-0.15630223,-0.5519422,9.787706858,0.669066394,crawl
09/07/2020, 21:38:15,-8.547162,-3.050849,3.711268,0.34435335,-0.15630223,-0.5519422,9.804854327,0.669066394,crawl
09/07/2020, 21:38:15,-8.547162,-3.050849,3.711268,0.35778558,-0.16118668,-0.5653745,9.804854327,0.688215073,crawl
09/07/2020, 21:38:15,-8.595019,-3.0604203,3.7136607,0.35778558,-0.16118668,-0.5653745,9.850472356,0.688215073,crawl
09/07/2020, 21:38:16,-8.463413,-2.7038896,3.3834512,-0.4701278,0.09524667,0.6423045,9.507266949,0.801652739,crawl
09/07/2020, 21:38:16,-8.463413,-2.7038896,3.3834512,-0.4371578,0.11478445,0.63742,9.507266949,0.781400458,crawl
09/07/2020, 21:38:16,-8.56152,-2.7996025,3.4169507,-0.4371578,0.11478445,0.63742,9.633947507,0.781400458,crawl
09/07/2020, 21:38:16,-8.56152,-2.7996025,3.4169507,-0.39197668,0.13676445,0.6252089,9.633947507,0.750490788,crawl
09/07/2020, 21:38:16,-8.6141615,-2.821138,3.4624143,-0.39197668,0.13676445,0.6252089,9.703139173,0.750490788,crawl
09/07/2020, 21:38:16,-8.6141615,-2.821138,3.4624143,-0.35290113,0.14775445,0.6191034,9.703139173,0.727777143,crawl
09/07/2020, 21:38:16,-8.657232,-2.8115666,3.4480574,-0.35290113,0.14775445,0.6191034,9.733533657,0.727777143,crawl
09/07/2020, 21:38:16,-8.657232,-2.8115666,3.4480574,-0.31382558,0.15996556,0.6032289,9.733533657,0.698541775,crawl
09/07/2020, 21:38:16,-8.678768,-2.845066,3.4193435,-0.31382558,0.15996556,0.6032289,9.752298573,0.698541775,crawl
09/07/2020, 21:38:16,-8.678768,-2.845066,3.4193435,-0.27108666,0.16851334,0.5885756,9.752298573,0.669556543,crawl
09/07/2020, 21:38:16,-8.630911,-2.833102,3.3834512,-0.27108666,0.16851334,0.5885756,9.693649032,0.669556543,crawl
09/07/2020, 21:38:16,-8.630911,-2.833102,3.3834512,-0.20881,0.18683001,0.5690378,9.693649032,0.634279972,crawl
09/07/2020, 21:38:16,-8.544769,-2.7900312,3.3714871,-0.20881,0.18683001,0.5690378,9.600223007,0.634279972,crawl
09/07/2020, 21:38:16,-8.544769,-2.7900312,3.3714871,-0.14653334,0.2075889,0.5458367,9.600223007,0.602082103,crawl
09/07/2020, 21:38:16,-8.458628,-2.766103,3.3355947,-0.14653334,0.2075889,0.5458367,9.50399391,0.602082103,crawl
09/07/2020, 21:38:16,-8.458628,-2.766103,3.3355947,-0.08792,0.23567446,0.51164556,9.50399391,0.570134677,crawl
09/07/2020, 21:38:16,-8.386844,-2.7613173,3.3212378,-0.08792,0.23567446,0.51164556,9.433697072,0.570134677,crawl
09/07/2020, 21:38:16,-8.386844,-2.7613173,3.3212378,-0.023201112,0.26742333,0.5006556,9.433697072,0.568075304,crawl
09/07/2020, 21:38:16,-8.34138,-2.7493532,3.333202,-0.023201112,0.26742333,0.5006556,9.394030017,0.568075304,crawl
09/07/2020, 21:38:16,-8.34138,-2.7493532,3.333202,0.035412222,0.29062447,0.4798967,9.394030017,0.562154289,crawl
09/07/2020, 21:38:17,-8.0614195,-2.6608188,3.8356948,-0.037854444,0.059834447,-0.23689556,9.315524432,0.24725013,crawl
09/07/2020, 21:38:17,-8.0614195,-2.6608188,3.8356948,-0.034191113,0.06716111,-0.17706113,9.315524432,0.192432558,crawl
09/07/2020, 21:38:17,-8.039884,-2.6656044,3.8548372,-0.034191113,0.06716111,-0.17706113,9.306177774,0.192432558,crawl
09/07/2020, 21:38:17,-8.039884,-2.6656044,3.8548372,-0.042738892,0.07204556,-0.11356334,9.306177774,0.141116287,crawl
09/07/2020, 21:38:17,-8.037491,-2.672783,3.8811584,-0.042738892,0.07204556,-0.11356334,9.317103501,0.141116287,crawl
09/07/2020, 21:38:17,-8.037491,-2.672783,3.8811584,-0.047623336,0.07326667,-0.051286668,9.317103501,0.101322798,crawl
09/07/2020, 21:38:17,-8.037491,-2.672783,3.912265,-0.047623336,0.07326667,-0.051286668,9.330104255,0.101322798,crawl
09/07/2020, 21:38:17,-8.037491,-2.672783,3.912265,-0.042738892,0.078151114,0.012211111,9.330104255,0.08990729,crawl
09/07/2020, 21:38:17,-8.008778,-2.6991038,3.9625144,-0.042738892,0.078151114,0.012211111,9.334195242,0.08990729,crawl
09/07/2020, 21:38:17,-8.008778,-2.6991038,3.9625144,-0.04151778,0.08669889,0.07448778,9.334195242,0.121609429,crawl
09/07/2020, 21:38:17,-8.02792,-2.713461,3.9361932,-0.04151778,0.08669889,0.07448778,9.34366005,0.121609429,crawl
09/07/2020, 21:38:17,-8.02792,-2.713461,3.9361932,-0.039075557,0.089141116,0.13676445,9.34366005,0.167861708,crawl
09/07/2020, 21:38:17,-8.013563,-2.713461,3.9457645,-0.039075557,0.089141116,0.13676445,9.335369433,0.167861708,crawl
09/07/2020, 21:38:17,-8.013563,-2.713461,3.9457645,-0.03174889,0.09036223,0.20148334,9.335369433,0.223089355,crawl
09/07/2020, 21:38:17,-8.032705,-2.7589245,3.9601214,-0.03174889,0.09036223,0.20148334,9.371156829,0.223089355,crawl
09/07/2020, 21:38:17,-8.032705,-2.7589245,3.9601214,-0.025643334,0.09646778,0.2503278,9.371156829,0.269495117,crawl
09/07/2020, 21:38:17,-8.0614195,-2.7852457,3.9888353,-0.025643334,0.09646778,0.2503278,9.415672299,0.269495117,crawl
09/07/2020, 21:38:17,-8.0614195,-2.7852457,3.9888353,-0.013432222,0.10013112,0.30649891,9.415672299,0.32272008,crawl
09/07/2020, 21:38:17,-8.099705,-2.8259234,4.0031924,-0.013432222,0.10013112,0.30649891,9.466604978,0.32272008,crawl
09/07/2020, 21:38:17,-8.099705,-2.8259234,4.0031924,-0.006105556,0.098910004,0.3492378,9.466604978,0.363025491,crawl
09/07/2020, 21:38:18,-8.63809,-3.3164523,3.6586258,0.22102112,-0.12211112,-0.71435004,9.949924614,0.757665787,crawl
09/07/2020, 21:38:18,-8.63809,-3.3164523,3.6586258,0.22224224,-0.11356334,-0.73755115,9.949924614,0.778633383,crawl
09/07/2020, 21:38:18,-8.606983,-3.278167,3.603591,0.22224224,-0.11356334,-0.73755115,9.890015487,0.778633383,crawl
09/07/2020, 21:38:18,-8.606983,-3.278167,3.603591,0.22590557,-0.109900005,-0.7570889,9.890015487,0.797680975,crawl
09/07/2020, 21:38:18,-8.633304,-3.278167,3.615555,0.22590557,-0.109900005,-0.7570889,9.917285366,0.797680975,crawl
09/07/2020, 21:38:18,-8.633304,-3.278167,3.615555,0.21491556,-0.11234222,-0.7717422,9.917285366,0.808947176,crawl
09/07/2020, 21:38:18,-8.640483,-3.2087753,3.6346977,0.21491556,-0.11234222,-0.7717422,9.907835828,0.808947176,crawl
09/07/2020, 21:38:18,-8.640483,-3.2087753,3.6346977,0.19171445,-0.10745778,-0.7900589,9.907835828,0.820057734,crawl
09/07/2020, 21:38:18,-8.647661,-3.1609187,3.6346977,0.19171445,-0.10745778,-0.7900589,9.898710961,0.820057734,crawl
09/07/2020, 21:38:18,-8.647661,-3.1609187,3.6346977,0.16973445,-0.109900005,-0.80227005,9.898710961,0.827360281,crawl
09/07/2020, 21:38:18,-8.650054,-3.1202407,3.603591,0.16973445,-0.109900005,-0.80227005,9.876497538,0.827360281,crawl
09/07/2020, 21:38:18,-8.650054,-3.1202407,3.603591,0.14775445,-0.117226675,-0.81326,9.876497538,0.834844493,crawl
09/07/2020, 21:38:18,-8.62134,-3.101098,3.5940197,0.14775445,-0.117226675,-0.81326,9.841813164,0.834844493,crawl
09/07/2020, 21:38:18,-8.62134,-3.101098,3.5940197,0.12821667,-0.12211112,-0.81570226,9.841813164,0.834698039,crawl
09/07/2020, 21:38:18,-8.575876,-3.0915267,3.5844483,0.12821667,-0.12211112,-0.81570226,9.795481648,0.834698039,crawl
09/07/2020, 21:38:18,-8.575876,-3.0915267,3.5844483,0.10867889,-0.12089001,-0.81448114,9.795481648,0.830545015,crawl
09/07/2020, 21:38:18,-8.508878,-3.0867412,3.6083765,0.10867889,-0.12089001,-0.81448114,9.744195858,0.830545015,crawl
09/07/2020, 21:38:18,-8.508878,-3.0867412,3.6083765,0.10867889,-0.11112112,-0.81326,9.744195858,0.827979989,crawl
09/07/2020, 21:38:18,-8.5112705,-3.0723844,3.5844483,0.10867889,-0.11112112,-0.81326,9.732910225,0.827979989,crawl
09/07/2020, 21:38:18,-8.5112705,-3.0723844,3.5844483,0.117226675,-0.10501556,-0.80104893,9.732910225,0.816363741,crawl
09/07/2020, 21:38:19,-8.597412,-2.2205393,4.1036906,-0.20392556,0.18927222,0.2759711,9.781951065,0.391879659,crawl
09/07/2020, 21:38:19,-8.597412,-2.2205393,4.1036906,-0.1856089,0.1856089,0.23201112,9.781951065,0.350329109,crawl
09/07/2020, 21:38:19,-8.642876,-2.2707887,4.220939,-0.1856089,0.1856089,0.23201112,9.882920036,0.350329109,crawl
09/07/2020, 21:38:19,-8.642876,-2.2707887,4.220939,-0.18927222,0.17706113,0.17950334,9.882920036,0.315271415,crawl
09/07/2020, 21:38:19,-8.666803,-2.306681,4.2927237,-0.18927222,0.17706113,0.17950334,9.942923801,0.315271415,crawl
09/07/2020, 21:38:19,-8.666803,-2.306681,4.2927237,-0.19537778,0.16485001,0.12699556,9.942923801,0.285439796,crawl
09/07/2020, 21:38:19,-8.688339,-2.3138595,4.3357944,-0.19537778,0.16485001,0.12699556,9.981998685,0.285439796,crawl
09/07/2020, 21:38:19,-8.688339,-2.3138595,4.3357944,-0.21491556,0.15386,0.08059334,9.981998685,0.276327495,crawl
09/07/2020, 21:38:19,-8.662018,-2.2995026,4.338187,-0.21491556,0.15386,0.08059334,9.956813413,0.276327495,crawl
09/07/2020, 21:38:19,-8.662018,-2.2995026,4.338187,-0.22224224,0.12455334,0.037854444,9.956813413,0.257561846,crawl
09/07/2020, 21:38:19,-8.681161,-2.306681,4.3764725,-0.22224224,0.12455334,0.037854444,9.99183883,0.257561846,crawl
09/07/2020, 21:38:19,-8.681161,-2.306681,4.3764725,-0.20148334,0.10379445,-0.007326667,9.99183883,0.226765305,crawl
09/07/2020, 21:38:19,-8.630911,-2.3042881,4.45065,-0.20148334,0.10379445,-0.007326667,9.9805137,0.226765305,crawl
09/07/2020, 21:38:19,-8.630911,-2.3042881,4.45065,-0.18438779,0.10379445,-0.057392225,9.9805137,0.219239621,crawl
09/07/2020, 21:38:19,-8.592627,-2.2660031,4.453043,-0.18438779,0.10379445,-0.057392225,9.939697853,0.219239621,crawl
