DATE,TIME,ax,ay,az,gx,gy,gz,ma,mg,label
27/03/2021, 15:27:35,2.3854396,5.613926,7.7239385,0.0244346,0.03176498,0.06475169,9.842038003,0.07615015,crawl
27/03/2021, 15:27:35,2.4045997,5.719307,7.817344,0.0244346,0.03176498,0.06475169,9.980152387,0.07615015,crawl
27/03/2021, 15:27:35,2.4045997,5.719307,7.817344,0.021991141,0.05375612,0.06963861,9.980152387,0.090680025,crawl
27/03/2021, 15:27:35,2.4141798,5.7312818,7.807764,0.021991141,0.05375612,0.06963861,9.981835213,0.090680025,crawl
27/03/2021, 15:27:35,2.4141798,5.7312818,7.807764,-0.101403594,0.24678947,0.12461646,9.981835213,0.294477492,crawl
27/03/2021, 15:27:35,2.5698562,5.740862,7.9634404,-0.101403594,0.24678947,0.12461646,10.14780958,0.294477492,crawl
27/03/2021, 15:27:35,2.5698562,5.740862,7.9634404,-0.17715086,0.1832595,0.15515971,10.14780958,0.2983974,crawl
27/03/2021, 15:27:35,2.572251,5.807923,6.5551686,-0.17715086,0.1832595,0.15515971,9.127906611,0.2983974,crawl
27/03/2021, 15:27:35,2.572251,5.807923,6.5551686,0.08307764,0.0244346,0.13316858,9.127906611,0.1588484,crawl
27/03/2021, 15:27:35,4.5577226,5.9564137,9.134604,0.08307764,0.0244346,0.13316858,11.81916656,0.1588484,crawl
27/03/2021, 15:27:35,4.5577226,5.9564137,9.134604,0.040317092,0.22357659,0.087964565,11.81916656,0.243617988,crawl
27/03/2021, 15:27:35,0.4742139,5.2187476,3.5254688,0.040317092,0.22357659,0.087964565,6.315784666,0.243617988,crawl
27/03/2021, 15:27:35,0.4742139,5.2187476,3.5254688,0.095294945,0.3408627,0.06963861,6.315784666,0.360718778,crawl
27/03/2021, 15:27:35,-0.7209009,4.7062135,8.5119,0.095294945,0.3408627,0.06963861,9.752978216,0.360718778,crawl
27/03/2021, 15:27:35,-0.7209009,4.7062135,8.5119,0.18936816,0.34697133,0.05742131,9.752978216,0.399432864,crawl
27/03/2021, 15:27:35,-1.219065,4.512217,8.178992,0.18936816,0.34697133,0.05742131,9.420304485,0.399432864,crawl
27/03/2021, 15:27:35,-1.219065,4.512217,8.178992,0.07208207,0.3995057,0.043982282,9.420304485,0.408332064,crawl
27/03/2021, 15:27:35,-1.101709,4.9505057,3.1566358,0.07208207,0.3995057,0.043982282,5.973744143,0.408332064,crawl
27/03/2021, 15:27:35,-1.101709,4.9505057,3.1566358,0.20525065,0.366519,0.07574726,5.973744143,0.426850861,crawl
27/03/2021, 15:27:35,2.7470875,5.839058,-0.18920656,0.20525065,0.366519,0.07574726,6.455763793,0.426850861,crawl
27/03/2021, 15:27:36,2.8859987,-7.577842,4.5696974,-3.9083145,0.07941245,0.50579625,9.307782536,3.941707518,crawl
27/03/2021, 15:27:36,2.8859987,-7.577842,4.5696974,-4.045148,0.04153882,0.4508184,9.307782536,4.070403444,crawl
27/03/2021, 15:27:36,2.3758595,-7.460486,4.1074586,-4.045148,0.04153882,0.4508184,8.841650006,4.070403444,crawl
27/03/2021, 15:27:36,2.3758595,-7.460486,4.1074586,-3.9180882,0.01710422,0.45326185,8.841650006,3.944255822,crawl
27/03/2021, 15:27:36,2.074087,-7.5083866,3.8799317,-3.9180882,0.01710422,0.45326185,8.702389092,3.944255822,crawl
27/03/2021, 15:27:36,2.074087,-7.5083866,3.8799317,-3.6529727,0.05742131,0.4679226,8.702389092,3.68326734,crawl
27/03/2021, 15:27:36,1.8561403,-7.302415,3.5829494,-3.6529727,0.05742131,0.4679226,8.343143672,3.68326734,crawl
27/03/2021, 15:27:36,1.8561403,-7.302415,3.5829494,-3.6712987,0.09285148,0.41783166,8.343143672,3.696165466,crawl
27/03/2021, 15:27:36,1.6429834,-8.078402,2.682422,-3.6712987,0.09285148,0.41783166,8.669218754,3.696165466,crawl
27/03/2021, 15:27:36,1.6429834,-8.078402,2.682422,-3.7299418,0.07696899,0.3824015,8.669218754,3.750282829,crawl
27/03/2021, 15:27:36,1.6429834,-8.078402,2.682422,-3.6493075,0.04642574,0.43982282,8.669218754,3.676009333,crawl
27/03/2021, 15:27:36,1.1999048,-8.406519,2.4812403,-3.6493075,0.04642574,0.43982282,8.846800859,3.676009333,crawl
27/03/2021, 15:27:36,0.97956306,-8.473579,2.2704787,-3.6493075,0.04642574,0.43982282,8.82701339,3.676009333,crawl
27/03/2021, 15:27:36,0.97956306,-8.473579,2.2704787,-3.4855957,0.01954768,0.5277874,8.82701339,3.525382113,crawl
27/03/2021, 15:27:36,0.91010743,-8.904683,1.9782863,-3.4855957,0.01954768,0.5277874,9.167076603,3.525382113,crawl
27/03/2021, 15:27:36,0.91010743,-8.904683,1.9782863,-3.3548706,-0.00366519,0.58887386,9.167076603,3.406162404,crawl
27/03/2021, 15:27:36,0.7951465,-9.15616,1.6884888,-3.3548706,-0.00366519,0.58887386,9.344438185,3.406162404,crawl
27/03/2021, 15:27:36,0.7951465,-9.15616,1.6884888,-3.2241457,-0.03909536,0.6316344,9.344438185,3.285666699,crawl
27/03/2021, 15:27:36,0.70174074,-9.3309965,1.5663428,-3.2241457,-0.03909536,0.6316344,9.487537397,3.285666699,crawl
27/03/2021, 15:27:36,0.70174074,-9.3309965,1.5663428,-3.067764,-0.08185591,0.67683846,9.487537397,3.142608298,crawl
27/03/2021, 15:27:37,-3.6883302,-9.412427,-1.0250684,-0.9407321,-0.02076941,-0.51801354,10.16111833,1.074125839,crawl
27/03/2021, 15:27:37,-3.558999,-9.201666,-1.2382251,-0.9407321,-0.02076941,-0.51801354,9.943356106,1.074125839,crawl
27/03/2021, 15:27:37,-3.558999,-9.201666,-1.2382251,-0.9248496,0.014660761,-0.53633946,9.943356106,1.069215504,crawl
27/03/2021, 15:27:37,-3.530259,-9.096285,-1.3962965,-0.9248496,0.014660761,-0.53633946,9.856711934,1.069215504,crawl
27/03/2021, 15:27:37,-3.530259,-9.096285,-1.3962965,-0.9016368,0.0244346,-0.5253439,9.856711934,1.043806562,crawl
27/03/2021, 15:27:37,-3.5829494,-8.931028,-1.5304176,-0.9016368,0.0244346,-0.5253439,9.743868431,1.043806562,crawl
27/03/2021, 15:27:37,-3.5829494,-8.931028,-1.5304176,-0.84177196,0.02687806,-0.50335276,9.743868431,0.981155679,crawl
27/03/2021, 15:27:37,-3.5925295,-8.842413,-1.6429834,-0.84177196,0.02687806,-0.50335276,9.684726624,0.981155679,crawl
27/03/2021, 15:27:37,-3.5925295,-8.842413,-1.6429834,-0.7611378,0.02809979,-0.4605922,9.684726624,0.890092977,crawl
27/03/2021, 15:27:37,-3.532654,-8.847202,-1.7747096,-0.7611378,0.02809979,-0.4605922,9.69031616,0.890092977,crawl
27/03/2021, 15:27:37,-3.532654,-8.847202,-1.7747096,-0.6780602,0.036651902,-0.41172302,9.69031616,0.794118886,crawl
27/03/2021, 15:27:37,-3.535049,-8.808882,-1.9064356,-0.6780602,0.036651902,-0.41172302,9.681294632,0.794118886,crawl
27/03/2021, 15:27:37,-3.535049,-8.808882,-1.9064356,-0.5742131,0.043982282,-0.37262765,9.681294632,0.685934744,crawl
27/03/2021, 15:27:37,-3.5254688,-8.749006,-1.9854712,-0.5742131,0.043982282,-0.37262765,9.6393017,0.685934744,crawl
27/03/2021, 15:27:37,-3.5254688,-8.749006,-1.9854712,-0.4361576,0.04520401,-0.32009327,9.6393017,0.542896464,crawl
27/03/2021, 15:27:37,-3.547024,-8.885523,-1.961521,-0.4361576,0.04520401,-0.32009327,9.766343239,0.542896464,crawl
27/03/2021, 15:27:37,-3.547024,-8.885523,-1.961521,-0.26022848,0.04153882,-0.2638937,9.766343239,0.372939968,crawl
27/03/2021, 15:27:37,-3.5973196,-8.988508,-1.8992506,-0.26022848,0.04153882,-0.2638937,9.86616143,0.372939968,crawl
27/03/2021, 15:27:37,-3.5973196,-8.988508,-1.8992506,-0.05619958,0.04276055,-0.19792026,9.86616143,0.210141114,crawl
27/03/2021, 15:27:37,-3.657195,-9.081915,-1.947151,-0.05619958,0.04276055,-0.19792026,9.982367005,0.210141114,crawl
27/03/2021, 15:27:38,-5.350474,-9.948912,2.2944288,-0.28221965,-0.5791,-2.1160364,11.52704723,2.211925601,crawl
27/03/2021, 15:27:38,-5.8103175,-9.821976,2.6177564,-0.28221965,-0.5791,-2.1160364,11.7082725,2.211925601,crawl
27/03/2021, 15:27:38,-5.8103175,-9.821976,2.6177564,-0.44715318,-0.8222243,-2.0708325,11.7082725,2.272519748,crawl
27/03/2021, 15:27:38,-5.4055595,-9.80521,2.2561085,-0.44715318,-0.8222243,-2.0708325,11.42156929,2.272519748,crawl
27/03/2021, 15:27:38,-5.4055595,-9.80521,2.2561085,-0.44837493,-0.94195384,-2.307848,11.42156929,2.532682252,crawl
27/03/2021, 15:27:38,-5.6498513,-11.395503,1.5495777,-0.44837493,-0.94195384,-2.307848,12.81325488,2.532682252,crawl
27/03/2021, 15:27:38,-5.6498513,-11.395503,1.5495777,-0.20525065,-0.91141057,-2.4556773,12.81325488,2.627384235,crawl
27/03/2021, 15:27:38,-4.87626,-12.482842,1.0083033,-0.20525065,-0.91141057,-2.4556773,13.43934302,2.627384235,crawl
27/03/2021, 15:27:38,-4.87626,-12.482842,1.0083033,0.073303804,-0.94928426,-2.37993,13.43934302,2.563314445,crawl
27/03/2021, 15:27:38,-4.3062453,-13.004956,0.62510014,0.073303804,-0.94928426,-2.37993,13.71362045,2.563314445,crawl
27/03/2021, 15:27:38,-4.3062453,-13.004956,0.62510014,0.3494148,-0.96150154,-2.3738215,13.71362045,2.58487996,crawl
27/03/2021, 15:27:38,-3.2620168,-12.336746,0.79993653,0.3494148,-0.96150154,-2.3738215,12.78577174,2.58487996,crawl
27/03/2021, 15:27:38,-3.2620168,-12.336746,0.79993653,0.50701797,-0.8662066,-2.3151784,12.78577174,2.523377116,crawl
27/03/2021, 15:27:38,-2.083667,-11.539205,0.15328126,0.50701797,-0.8662066,-2.3151784,11.72682422,2.523377116,crawl
27/03/2021, 15:27:38,-2.083667,-11.539205,0.15328126,0.49846584,-0.87353694,-2.2284355,11.72682422,2.444884421,crawl
27/03/2021, 15:27:38,-2.0381618,-11.156001,0.43349856,0.49846584,-0.87353694,-2.2284355,11.3489376,2.444884421,crawl
27/03/2021, 15:27:38,-2.0381618,-11.156001,0.43349856,0.4349359,-0.7855724,-2.1966705,11.3489376,2.373110759,crawl
27/03/2021, 15:27:38,-2.44292,-11.8002615,0.1101709,0.4349359,-0.7855724,-2.1966705,12.05098199,2.373110759,crawl
27/03/2021, 15:27:38,-2.44292,-11.8002615,0.1101709,0.47403124,-0.6914992,-2.18934,12.05098199,2.344373447,crawl
27/03/2021, 15:27:38,-2.4501052,-11.58471,-0.033530276,0.47403124,-0.6914992,-2.18934,11.84101551,2.344373447,crawl
27/03/2021, 15:27:39,-2.2632935,-0.09340577,10.150093,2.9394825,-0.18203777,0.56932616,10.39978902,2.999637829,crawl
27/03/2021, 15:27:39,-1.710044,0.3161426,10.655442,2.9394825,-0.18203777,0.56932616,10.7964182,2.999637829,crawl
27/03/2021, 15:27:39,-1.710044,0.3161426,10.655442,3.2913406,-0.109955706,0.7000513,10.7964182,3.366761792,crawl
27/03/2021, 15:27:39,-1.590293,0.98914313,10.150093,3.2913406,-0.109955706,0.7000513,10.32142556,3.366761792,crawl
27/03/2021, 15:27:39,-1.590293,0.98914313,10.150093,3.5918863,-0.04153882,0.9248496,10.32142556,3.709274777,crawl
27/03/2021, 15:27:39,-1.947151,2.7279274,10.277029,3.5918863,-0.04153882,0.9248496,10.80973223,3.709274777,crawl
27/03/2021, 15:27:39,-1.947151,2.7279274,10.277029,3.7629285,-0.00977384,1.0458009,10.80973223,3.905563454,crawl
27/03/2021, 15:27:39,-1.5807129,4.1170387,9.874666,3.7629285,-0.00977384,1.0458009,10.81469806,3.905563454,crawl
27/03/2021, 15:27:39,-1.5807129,4.1170387,9.874666,3.7103941,0.05009093,1.027475,10.81469806,3.850355656,crawl
27/03/2021, 15:27:39,-1.9303858,4.663103,10.406361,3.7103941,0.05009093,1.027475,11.56560684,3.850355656,crawl
27/03/2021, 15:27:39,-1.9303858,4.663103,10.406361,3.6126556,0.14660761,1.0897832,11.56560684,3.77629474,crawl
27/03/2021, 15:27:39,-2.6488917,4.519402,10.782378,3.6126556,0.14660761,1.0897832,11.98754777,3.77629474,crawl
27/03/2021, 15:27:39,-2.6488917,4.519402,10.782378,3.3060014,0.21868968,1.2058475,11.98754777,3.525838736,crawl
27/03/2021, 15:27:39,-1.8776954,5.637876,10.245894,3.3060014,0.21868968,1.2058475,11.84439695,3.525838736,crawl
27/03/2021, 15:27:39,-1.8776954,5.637876,10.245894,2.9309304,0.16371182,1.2058475,11.84439695,3.173518966,crawl
27/03/2021, 15:27:39,-1.7268091,6.9168167,9.865086,2.9309304,0.16371182,1.2058475,12.17144762,3.173518966,crawl
27/03/2021, 15:27:39,-1.7268091,6.9168167,9.865086,2.7659967,0.04642574,1.3377944,12.17144762,3.072879266,crawl
27/03/2021, 15:27:39,-1.0609937,7.460486,9.148975,2.7659967,0.04642574,1.3377944,11.8527764,3.072879266,crawl
27/03/2021, 15:27:39,-1.0609937,7.460486,9.148975,2.7635534,0.010995571,1.63834,11.8527764,3.212710092,crawl
27/03/2021, 15:27:39,-0.8143067,8.147857,10.145303,2.7635534,0.010995571,1.63834,13.03755471,3.212710092,crawl
27/03/2021, 15:27:40,-7.9873905,9.5561285,-4.3469605,0.48258337,0.8662066,-2.411695,13.19143909,2.60757998,crawl
27/03/2021, 15:27:40,-6.1073003,11.333233,-4.4643164,0.48258337,0.8662066,-2.411695,13.62612949,2.60757998,crawl
27/03/2021, 15:27:40,-6.1073003,11.333233,-4.4643164,0.44837493,0.9676102,-2.4556773,13.62612949,2.677248661,crawl
27/03/2021, 15:27:40,-3.67875,9.635164,-5.240303,0.44837493,0.9676102,-2.4556773,11.5685076,2.677248661,crawl
27/03/2021, 15:27:40,-3.67875,9.635164,-5.240303,0.29077175,0.9382887,-3.054325,11.5685076,3.208400803,crawl
27/03/2021, 15:27:40,-3.7122805,8.442444,-4.624783,0.29077175,0.9382887,-3.054325,10.31719453,3.208400803,crawl
27/03/2021, 15:27:40,-3.7122805,8.442444,-4.624783,0.31520635,1.1972954,-2.9138262,10.31719453,3.16595241,crawl
27/03/2021, 15:27:40,-4.4475513,7.3000197,-4.387676,0.31520635,1.1972954,-2.9138262,9.608470166,3.16595241,crawl
27/03/2021, 15:27:40,-4.4475513,7.3000197,-4.387676,0.21991141,1.5528189,-2.4727817,9.608470166,2.92818317,crawl
27/03/2021, 15:27:40,-4.7325587,8.377779,-5.721702,0.21991141,1.5528189,-2.4727817,11.19473841,2.92818317,crawl
27/03/2021, 15:27:40,-4.7325587,8.377779,-5.721702,-0.0244346,1.7238611,-2.5277593,11.19473841,3.059715883,crawl
27/03/2021, 15:27:40,-6.318062,9.261541,-5.6785917,-0.0244346,1.7238611,-2.5277593,12.5674364,3.059715883,crawl
27/03/2021, 15:27:40,-6.318062,9.261541,-5.6785917,-0.5412264,1.6639963,-2.7391188,12.5674364,3.250320245,crawl
27/03/2021, 15:27:40,-6.816226,8.854387,-6.952742,-0.5412264,1.6639963,-2.7391188,13.16061297,3.250320245,crawl
27/03/2021, 15:27:40,-6.816226,8.854387,-6.952742,-1.5369364,1.375668,-2.8710656,13.16061297,3.535202096,crawl
27/03/2021, 15:27:40,-6.2510014,7.046148,-6.248606,-1.5369364,1.375668,-2.8710656,11.30346392,3.535202096,crawl
27/03/2021, 15:27:40,-6.2510014,7.046148,-6.248606,-2.580294,0.94561905,-2.8209746,11.30346392,3.938274951,crawl
27/03/2021, 15:27:40,-6.327642,5.206773,-5.7791824,-2.580294,0.94561905,-2.8209746,10.02738677,3.938274951,crawl
27/03/2021, 15:27:40,-6.327642,5.206773,-5.7791824,-3.507587,0.55100024,-2.8979437,10.02738677,4.583104342,crawl
27/03/2021, 15:27:40,-4.711004,4.1888895,-5.3408937,-3.507587,0.55100024,-2.8979437,8.262293743,4.583104342,crawl
27/03/2021, 15:27:41,-4.5888577,6.248606,2.684817,4.3017116,1.3878853,1.63834,8.204324273,4.807817174,crawl
27/03/2021, 15:27:41,-5.1660576,9.261541,2.3758595,4.3017116,1.3878853,1.63834,10.86779683,4.807817174,crawl
27/03/2021, 15:27:41,-5.1660576,9.261541,2.3758595,3.6468642,1.4587456,1.6615528,10.86779683,4.264776044,crawl
27/03/2021, 15:27:41,-5.640271,11.57034,2.7015822,3.6468642,1.4587456,1.6615528,13.15233731,4.264776044,crawl
27/03/2021, 15:27:41,-5.640271,11.57034,2.7015822,2.79654,1.3732245,1.6395617,13.15233731,3.520588591,crawl
27/03/2021, 15:27:41,-6.071375,11.697276,3.7242556,2.79654,1.3732245,1.6395617,13.69517948,3.520588591,crawl
27/03/2021, 15:27:41,-6.071375,11.697276,3.7242556,2.1209233,1.2877034,1.5955794,13.69517948,2.949977826,crawl
27/03/2021, 15:27:41,-6.0498195,9.77168,4.0595584,2.1209233,1.2877034,1.5955794,12.18876768,2.949977826,crawl
27/03/2021, 15:27:41,-6.0498195,9.77168,4.0595584,1.6615528,1.2143997,1.5320494,12.18876768,2.56567724,crawl
27/03/2021, 15:27:41,-6.0306597,8.954978,3.8655617,1.6615528,1.2143997,1.5320494,11.46747812,2.56567724,crawl
27/03/2021, 15:27:41,-6.0306597,8.954978,3.8655617,1.5418233,1.1740825,1.4990628,11.46747812,2.450077133,crawl
27/03/2021, 15:27:41,-5.5780005,8.059241,3.908672,1.5418233,1.1740825,1.4990628,10.55192769,2.450077133,crawl
27/03/2021, 15:27:41,-5.5780005,8.059241,3.908672,1.569923,1.2046258,1.3988808,10.55192769,2.423354987,crawl
27/03/2021, 15:27:41,-5.52052,7.189849,2.215393,1.569923,1.2046258,1.3988808,9.33156134,2.423354987,crawl
27/03/2021, 15:27:41,-5.52052,7.189849,2.215393,1.6823223,1.2339473,1.3475683,9.33156134,2.48370174,crawl
27/03/2021, 15:27:41,-5.3001785,8.202942,2.574646,1.6823223,1.2339473,1.3475683,10.09994803,2.48370174,crawl
27/03/2021, 15:27:41,-5.3001785,8.202942,2.574646,1.8680252,1.3475683,1.2925904,10.09994803,2.641258834,crawl
27/03/2021, 15:27:41,-4.2104445,9.551338,2.6704469,1.8680252,1.3475683,1.2925904,10.77437656,2.641258834,crawl
27/03/2021, 15:27:41,-4.2104445,9.551338,2.6704469,1.9633201,1.534493,1.208291,10.77437656,2.769343226,crawl
27/03/2021, 15:27:41,-4.397256,9.630374,1.6621436,1.9633201,1.534493,1.208291,10.71646785,2.769343226,crawl
27/03/2021, 15:27:42,-9.6686945,0.6179151,-4.3014555,-0.9834927,0.97982746,-2.483777,10.60037696,2.845429337,crawl
27/03/2021, 15:27:42,-8.152647,0.6490503,-5.0415163,-0.9834927,0.97982746,-2.483777,9.607486994,2.845429337,crawl
27/03/2021, 15:27:42,-8.152647,0.6490503,-5.0415163,-0.12950338,1.2278386,-2.737897,9.607486994,3.003404465,crawl
27/03/2021, 15:27:42,-6.8928666,-0.30895755,-6.7611403,-0.12950338,1.2278386,-2.737897,9.660232071,3.003404465,crawl
27/03/2021, 15:27:42,-6.8928666,-0.30895755,-6.7611403,0.45814875,1.1826347,-3.34021,9.660232071,3.572887868,crawl
27/03/2021, 15:27:42,-7.486831,-0.07903565,-7.424561,0.45814875,1.1826347,-3.34021,10.5443347,3.572887868,crawl
27/03/2021, 15:27:42,-7.486831,-0.07903565,-7.424561,0.33597577,1.09467,-3.484374,10.5443347,3.667702925,crawl
27/03/2021, 15:27:42,-9.393267,0.6179151,-7.951465,0.33597577,1.09467,-3.484374,12.32238109,3.667702925,crawl
27/03/2021, 15:27:42,-9.393267,0.6179151,-7.951465,0.17959431,0.8014549,-3.3585358,12.32238109,3.457505831,crawl
27/03/2021, 15:27:42,-12.006233,0.51013917,-7.34313,0.17959431,0.8014549,-3.3585358,14.08301949,3.457505831,crawl
27/03/2021, 15:27:42,-12.006233,0.51013917,-7.34313,0.122173004,0.2651154,-3.4000747,14.08301949,3.412582677,crawl
27/03/2021, 15:27:42,-13.273199,-1.4202466,-6.246211,0.122173004,0.2651154,-3.4000747,14.73804827,3.412582677,crawl
27/03/2021, 15:27:42,-13.273199,-1.4202466,-6.246211,-0.06963861,0.16493355,-3.773924,14.73804827,3.778168315,crawl
27/03/2021, 15:27:42,-12.221786,1.096919,-6.0833497,-0.06963861,0.16493355,-3.773924,13.69607304,3.778168315,crawl
27/03/2021, 15:27:42,-12.221786,1.096919,-6.0833497,-0.55100024,0.3054325,-4.0402613,13.69607304,4.089083197,crawl
27/03/2021, 15:27:42,-10.94524,4.27032,-6.598279,-0.55100024,0.3054325,-4.0402613,13.4748357,4.089083197,crawl
27/03/2021, 15:27:42,-10.94524,4.27032,-6.598279,-1.4306458,-0.074525535,-4.2821636,13.4748357,4.515443145,crawl
27/03/2021, 15:27:42,-10.638678,3.3051271,-7.599397,-1.4306458,-0.074525535,-4.2821636,13.48540559,4.515443145,crawl
27/03/2021, 15:27:42,-10.638678,3.3051271,-7.599397,-2.0744977,-0.7770203,-4.4642015,13.48540559,4.983612726,crawl
27/03/2021, 15:27:42,-9.4507475,2.8955786,-5.738467,-2.0744977,-0.7770203,-4.4642015,11.42939236,4.983612726,crawl
27/03/2021, 15:27:43,-0.5987549,7.5874224,5.125342,3.6004384,1.2449429,1.4770716,9.175871357,4.085924599,crawl
27/03/2021, 15:27:43,-2.191443,8.092772,4.773274,3.6004384,1.2449429,1.4770716,9.647772669,4.085924599,crawl
27/03/2021, 15:27:43,-2.191443,8.092772,4.773274,3.516139,1.2718209,1.3707811,9.647772669,3.982436794,crawl
27/03/2021, 15:27:43,-3.0608351,8.703502,3.9853127,3.516139,1.2718209,1.3707811,10.04999357,3.982436794,crawl
27/03/2021, 15:27:43,-3.0608351,8.703502,3.9853127,3.1703894,1.2925904,1.3121381,10.04999357,3.666587687,crawl
27/03/2021, 15:27:43,-2.6057813,9.323812,3.1494508,3.1703894,1.2925904,1.3121381,10.18050087,3.666587687,crawl
27/03/2021, 15:27:43,-2.6057813,9.323812,3.1494508,2.5851808,1.3695594,1.2644906,10.18050087,3.187128648,crawl
27/03/2021, 15:27:43,-2.3016138,10.602752,1.9040406,2.5851808,1.3695594,1.2644906,11.01549549,3.187128648,crawl
27/03/2021, 15:27:43,-2.3016138,10.602752,1.9040406,2.0757194,1.3781115,1.2156214,11.01549549,2.772280176,crawl
27/03/2021, 15:27:43,-2.4812403,10.36325,1.5950831,2.0757194,1.3781115,1.2156214,10.77486842,2.772280176,crawl
27/03/2021, 15:27:43,-2.4812403,10.36325,1.5950831,1.760513,1.3414595,1.1459827,10.77486842,2.492427714,crawl
27/03/2021, 15:27:43,-3.420088,8.322693,0.44786867,1.760513,1.3414595,1.1459827,9.009151196,2.492427714,crawl
27/03/2021, 15:27:43,-3.420088,8.322693,0.44786867,1.7006482,1.393994,1.1801912,9.009151196,2.495651144,crawl
27/03/2021, 15:27:43,-3.1446607,9.029224,1.8848804,1.7006482,1.393994,1.1801912,9.745181291,2.495651144,crawl
27/03/2021, 15:27:43,-3.1446607,9.029224,1.8848804,2.1050408,1.4746281,1.2449429,9.745181291,2.855802437,crawl
27/03/2021, 15:27:43,-3.032095,9.565708,1.0394385,2.1050408,1.4746281,1.2449429,10.08844908,2.855802437,crawl
27/03/2021, 15:27:43,-3.032095,9.565708,1.0394385,2.4740033,1.6187923,1.12277,10.08844908,3.162561187,crawl
27/03/2021, 15:27:43,-2.1603076,9.319021,1.0753639,2.4740033,1.6187923,1.12277,9.626395648,3.162561187,crawl
27/03/2021, 15:27:43,-2.1603076,9.319021,1.0753639,2.7305665,1.7971649,0.9712754,9.626395648,3.41015704,crawl
27/03/2021, 15:27:43,-2.2680836,7.7359133,0.6849756,2.7305665,1.7971649,0.9712754,8.090596327,3.41015704,crawl
27/03/2021, 15:27:44,-10.585987,-10.152488,-6.9886675,-1.4770716,1.6090184,-6.602229,16.24738759,6.954143393,crawl
27/03/2021, 15:27:44,-10.585987,-10.152488,-6.9886675,-1.3768897,1.7861693,-6.372544,16.24738759,6.759847678,crawl
27/03/2021, 15:27:44,-11.196717,-12.478052,-3.9781277,-1.3768897,1.7861693,-6.372544,17.23060541,6.759847678,crawl
27/03/2021, 15:27:44,-11.196717,-12.478052,-3.9781277,-0.597426,2.1526883,-6.458065,17.23060541,6.833563387,crawl
27/03/2021, 15:27:44,-11.512859,-11.263778,-3.6116896,-0.597426,2.1526883,-6.458065,16.50645088,6.833563387,crawl
27/03/2021, 15:27:44,-11.512859,-11.263778,-3.6116896,0.5619958,2.5094335,-5.909508,16.50645088,6.444795056,crawl
27/03/2021, 15:27:44,-13.682747,-12.952266,-5.997129,0.5619958,2.5094335,-5.909508,19.7723116,6.444795056,crawl
27/03/2021, 15:27:44,-13.682747,-12.952266,-5.997129,1.2376125,2.63405,-5.7494617,19.7723116,6.444083548,crawl
27/03/2021, 15:27:44,-11.723621,-13.083992,-6.1240654,1.2376125,2.63405,-5.7494617,18.60479298,6.444083548,crawl
27/03/2021, 15:27:44,-11.723621,-13.083992,-6.1240654,1.9132292,2.8307486,-5.8618608,18.60479298,6.784909355,crawl
27/03/2021, 15:27:44,-14.523399,-14.161751,-6.0737696,1.9132292,2.8307486,-5.8618608,21.17486697,6.784909355,crawl
27/03/2021, 15:27:44,-14.523399,-14.161751,-6.0737696,2.4459035,3.0176733,-5.302308,21.17486697,6.572919214,crawl
27/03/2021, 15:27:44,-13.768968,-12.861256,-10.6817875,2.4459035,3.0176733,-5.302308,21.65864609,6.572919214,crawl
27/03/2021, 15:27:44,-13.768968,-12.861256,-10.6817875,2.4874423,2.7354536,-5.434255,21.65864609,6.572762292,crawl
27/03/2021, 15:27:44,-12.9115505,-11.529625,-11.484119,2.4874423,2.7354536,-5.434255,20.77318914,6.572762292,crawl
27/03/2021, 15:27:44,-12.9115505,-11.529625,-11.484119,2.4544556,2.8002052,-5.4501376,20.77318914,6.600719788,crawl
27/03/2021, 15:27:44,-11.373948,-9.601634,-13.119918,2.4544556,2.8002052,-5.4501376,19.84163089,6.600719788,crawl
27/03/2021, 15:27:44,-11.373948,-9.601634,-13.119918,2.2149966,2.9223783,-5.1471486,19.84163089,6.319781925,crawl
27/03/2021, 15:27:44,-11.5751295,-9.625584,-13.050462,2.2149966,2.9223783,-5.1471486,19.923605,6.319781925,crawl
27/03/2021, 15:27:44,-11.5751295,-9.625584,-13.050462,1.9339986,2.9248216,-4.9834366,19.923605,6.093403991,crawl
27/03/2021, 15:27:45,-6.847361,1.1256592,4.505032,-1.0580182,2.9272652,-0.3298671,8.273377572,3.13003134,crawl
27/03/2021, 15:27:45,-7.556287,0.92208254,5.376819,-1.0580182,2.9272652,-0.3298671,9.319758076,3.13003134,crawl
27/03/2021, 15:27:45,-7.556287,0.92208254,5.376819,-0.50701797,3.2424715,-0.366519,9.319758076,3.302275662,crawl
27/03/2021, 15:27:45,-6.75156,4.4595265,4.976851,-0.50701797,3.2424715,-0.366519,9.499473037,3.302275662,crawl
27/03/2021, 15:27:45,-6.75156,4.4595265,4.976851,-0.565661,3.4269526,-0.5668827,9.499473037,3.519280116,crawl
27/03/2021, 15:27:45,-6.967112,6.222261,4.7062135,-0.565661,3.4269526,-0.5668827,10.45971449,3.519280116,crawl
27/03/2021, 15:27:45,-6.967112,6.222261,4.7062135,-1.4220937,3.4684916,-0.79534626,10.45971449,3.832148218,crawl
27/03/2021, 15:27:45,-8.334668,5.621111,5.3001785,-1.4220937,3.4684916,-0.79534626,11.36465898,3.832148218,crawl
27/03/2021, 15:27:45,-8.334668,5.621111,5.3001785,-2.3945909,3.4648263,-0.91385406,11.36465898,4.309781458,crawl
27/03/2021, 15:27:45,-9.477093,3.7050953,5.3049684,-2.3945909,3.4648263,-0.91385406,11.47543931,4.309781458,crawl
27/03/2021, 15:27:45,-9.477093,3.7050953,5.3049684,-2.9382608,3.434283,-0.9150758,11.47543931,4.611403259,crawl
27/03/2021, 15:27:45,-9.201666,2.069297,4.754114,-2.9382608,3.434283,-0.9150758,10.56192438,4.611403259,crawl
27/03/2021, 15:27:45,-9.201666,2.069297,4.754114,-3.1300724,3.3915226,-0.94195384,10.56192438,4.710313773,crawl
27/03/2021, 15:27:45,-8.049661,0.92926764,5.8103175,-3.1300724,3.3915226,-0.94195384,9.970976136,4.710313773,crawl
27/03/2021, 15:27:45,-8.049661,0.92926764,5.8103175,-2.9089391,3.4293962,-0.85765445,9.970976136,4.57801878,crawl
27/03/2021, 15:27:45,-7.90117,1.951941,5.3145485,-2.9089391,3.4293962,-0.85765445,9.720235761,4.57801878,crawl
27/03/2021, 15:27:45,-7.90117,1.951941,5.3145485,-2.3115132,3.5039217,-0.8026766,9.720235761,4.273739647,crawl
27/03/2021, 15:27:45,-8.897498,1.6836988,4.2367897,-2.3115132,3.5039217,-0.8026766,9.997534773,4.273739647,crawl
27/03/2021, 15:27:45,-8.897498,1.6836988,4.2367897,-1.7397436,3.5918863,-0.77579856,9.997534773,4.065737107,crawl
27/03/2021, 15:27:45,-9.2328005,1.2382251,4.878655,-1.7397436,3.5918863,-0.77579856,10.51565882,4.065737107,crawl
27/03/2021, 15:27:46,2.2632935,-10.250684,1.1663746,0.6462952,-0.55466545,-1.9046772,10.56217048,2.086419489,crawl
27/03/2021, 15:27:46,2.9578493,-9.975257,1.951941,0.6462952,-0.55466545,-1.9046772,10.58606143,2.086419489,crawl
27/03/2021, 15:27:46,2.9578493,-9.975257,1.951941,0.8588762,-0.5803218,-1.9498811,10.58606143,2.208274885,crawl
27/03/2021, 15:27:46,3.7170706,-10.715318,3.0704153,0.8588762,-0.5803218,-1.9498811,11.74998287,2.208274885,crawl
27/03/2021, 15:27:46,3.7170706,-10.715318,3.0704153,1.0934484,-0.46181396,-1.6261227,11.74998287,2.013250261,crawl
27/03/2021, 15:27:46,2.572251,-9.905801,2.44771,1.0934484,-0.46181396,-1.6261227,10.52295823,2.013250261,crawl
27/03/2021, 15:27:46,2.572251,-9.905801,2.44771,1.0824528,-0.60719985,-1.3707811,10.52295823,1.849171812,crawl
27/03/2021, 15:27:46,3.6212697,-8.361013,2.555486,1.0824528,-0.60719985,-1.3707811,9.463120419,1.849171812,crawl
27/03/2021, 15:27:46,3.6212697,-8.361013,2.555486,0.80878526,-0.8539893,-1.4013244,9.463120419,1.829519439,crawl
27/03/2021, 15:27:46,4.591253,-8.090376,3.903882,0.80878526,-0.8539893,-1.4013244,10.088314,1.829519439,crawl
27/03/2021, 15:27:46,4.591253,-8.090376,3.903882,0.5461133,-0.86865,-1.2657123,10.088314,1.629361879,crawl
27/03/2021, 15:27:46,4.7157936,-8.933423,4.5625124,0.5461133,-0.86865,-1.2657123,11.08428058,1.629361879,crawl
27/03/2021, 15:27:46,4.7157936,-8.933423,4.5625124,0.52045697,-0.7855724,-0.8491024,11.08428058,1.268453514,crawl
27/03/2021, 15:27:46,4.646338,-9.457932,4.394861,0.52045697,-0.7855724,-0.8491024,11.4173442,1.268453514,crawl
27/03/2021, 15:27:46,4.646338,-9.457932,4.394861,0.5778783,-0.7843507,-0.62430406,11.4173442,1.157110578,crawl
27/03/2021, 15:27:46,5.6690116,-9.319021,3.8392165,0.5778783,-0.7843507,-0.62430406,11.56379834,1.157110578,crawl
27/03/2021, 15:27:46,5.6690116,-9.319021,3.8392165,0.60353464,-0.7281511,-0.45326185,11.56379834,1.048763256,crawl
27/03/2021, 15:27:46,4.6822634,-8.947793,3.7601807,0.60353464,-0.7281511,-0.45326185,10.7761565,1.048763256,crawl
27/03/2021, 15:27:46,4.6822634,-8.947793,3.7601807,0.5412264,-0.687834,-0.22724178,10.7761565,0.904256864,crawl
27/03/2021, 15:27:46,4.164939,-7.3862405,2.926714,0.5412264,-0.687834,-0.22724178,8.970446992,0.904256864,crawl
27/03/2021, 15:27:47,-10.868599,-13.608501,11.989469,-2.5741851,2.8747308,-1.7409652,21.14391427,4.233375297,crawl
27/03/2021, 15:27:47,-10.868599,-13.608501,11.989469,-3.035999,2.620611,-1.7849475,21.14391427,4.389866705,crawl
27/03/2021, 15:27:47,-8.382568,-11.663746,11.831397,-3.035999,2.620611,-1.7849475,18.60893271,4.389866705,crawl
27/03/2021, 15:27:47,-8.382568,-11.663746,11.831397,-3.6407554,2.403143,-2.1306973,18.60893271,4.854901307,crawl
27/03/2021, 15:27:47,-7.8556643,-11.524835,12.736714,-3.6407554,2.403143,-2.1306973,18.88801649,4.854901307,crawl
27/03/2021, 15:27:47,-7.8556643,-11.524835,12.736714,-4.0084963,2.2809699,-2.244318,18.88801649,5.129115838,crawl
27/03/2021, 15:27:47,-9.618399,-13.098362,12.71995,-4.0084963,2.2809699,-2.244318,20.63680693,5.129115838,crawl
27/03/2021, 15:27:47,-9.618399,-13.098362,12.71995,-3.8032455,2.3139567,-2.108706,20.63680693,4.9260241,crawl
27/03/2021, 15:27:47,-10.008787,-10.624307,13.44085,-3.8032455,2.3139567,-2.108706,19.84208075,4.9260241,crawl
27/03/2021, 15:27:47,-10.008787,-10.624307,13.44085,-3.2730148,2.0940452,-2.204001,19.84208075,4.467132313,crawl
27/03/2021, 15:27:47,-9.972861,-10.418335,12.470867,-3.2730148,2.0940452,-2.204001,19.06625798,4.467132313,crawl
27/03/2021, 15:27:47,-9.972861,-10.418335,12.470867,-2.9077175,1.6212357,-2.1954489,19.06625798,3.987884391,crawl
27/03/2021, 15:27:47,-8.447234,-9.83874,14.427598,-2.9077175,1.6212357,-2.1954489,19.39876698,3.987884391,crawl
27/03/2021, 15:27:47,-8.447234,-9.83874,14.427598,-2.4495687,1.4086547,-2.0842714,19.39876698,3.511250844,crawl
27/03/2021, 15:27:47,-6.806646,-9.8866415,14.168936,-2.4495687,1.4086547,-2.0842714,18.56972938,3.511250844,crawl
27/03/2021, 15:27:47,-6.806646,-9.8866415,14.168936,-2.1978924,1.4282024,-2.0439544,18.56972938,3.323889689,crawl
27/03/2021, 15:27:47,-6.0186844,-8.811277,13.778548,-2.1978924,1.4282024,-2.0439544,17.4273223,3.323889689,crawl
27/03/2021, 15:27:47,-6.0186844,-8.811277,13.778548,-2.086715,1.4685194,-2.0097458,17.4273223,3.24807745,crawl
27/03/2021, 15:27:47,-7.3000197,-7.1778736,13.658797,-2.086715,1.4685194,-2.0097458,17.0697071,3.24807745,crawl
27/03/2021, 15:27:47,-7.3000197,-7.1778736,13.658797,-2.0158546,1.4110981,-1.9291117,17.0697071,3.126713881,crawl
27/03/2021, 15:27:48,-3.4847536,-5.364844,5.5875807,4.9052463,-0.7281511,1.4892889,8.493886923,5.177801305,crawl
27/03/2021, 15:27:48,-3.2524366,-6.2821364,6.6557593,4.9052463,-0.7281511,1.4892889,9.713017794,5.177801305,crawl
27/03/2021, 15:27:48,-3.2524366,-6.2821364,6.6557593,5.177692,-0.6914992,1.3976592,9.713017794,5.407413068,crawl
27/03/2021, 15:27:48,-3.1997461,-8.363408,6.940767,5.177692,-0.6914992,1.3976592,11.32957255,5.407413068,crawl
27/03/2021, 15:27:48,-3.1997461,-8.363408,6.940767,5.601632,-0.65729076,1.389107,11.32957255,5.808608418,crawl
27/03/2021, 15:27:48,-2.792593,-7.9921803,8.631651,5.601632,-0.65729076,1.389107,12.09044747,5.808608418,crawl
27/03/2021, 15:27:48,-2.792593,-7.9921803,8.631651,6.258923,-0.46181396,1.4159851,12.09044747,6.433692855,crawl
27/03/2021, 15:27:48,-1.8345851,-6.847361,8.363408,6.258923,-0.46181396,1.4159851,10.96351454,6.433692855,crawl
27/03/2021, 15:27:48,-1.8345851,-6.847361,8.363408,6.839245,-0.3054325,1.5137235,10.96351454,7.011413398,crawl
27/03/2021, 15:27:48,-1.4226416,-6.006709,8.365804,6.839245,-0.3054325,1.5137235,10.39668867,7.011413398,crawl
27/03/2021, 15:27:48,-1.4226416,-6.006709,8.365804,7.141012,-0.30787596,1.6077967,10.39668867,7.326244117,crawl
27/03/2021, 15:27:48,0.100590825,-3.5925295,7.9347,7.141012,-0.30787596,1.6077967,8.710674558,7.326244117,crawl
27/03/2021, 15:27:48,0.100590825,-3.5925295,7.9347,7.1495643,-0.30054557,1.5809187,8.710674558,7.328430983,crawl
27/03/2021, 15:27:48,0.15328126,-1.0059083,8.176597,7.1495643,-0.30054557,1.5809187,8.239664993,7.328430983,crawl
27/03/2021, 15:27:48,0.15328126,-1.0059083,8.176597,6.896666,-0.34452787,1.5503753,8.239664993,7.077172158,crawl
27/03/2021, 15:27:48,-1.6765138,0.023950197,8.198153,6.896666,-0.34452787,1.5503753,8.367853799,7.077172158,crawl
27/03/2021, 15:27:48,-1.6765138,0.023950197,8.198153,6.337114,-0.4361576,1.5662578,8.367853799,6.542355012,crawl
27/03/2021, 15:27:48,-3.7003052,-0.102985844,8.789722,6.337114,-0.4361576,1.5662578,9.537404545,6.542355012,crawl
27/03/2021, 15:27:48,-3.7003052,-0.102985844,8.789722,5.964486,-0.4520401,1.5882491,9.537404545,6.188858548,crawl
27/03/2021, 15:27:48,-3.911067,0.050295413,9.520203,5.964486,-0.4520401,1.5882491,10.29238714,6.188858548,crawl
27/03/2021, 15:27:49,-11.656561,4.2343946,1.6860938,-1.5100583,2.6316066,-1.4758499,12.51592671,3.373983111,crawl
27/03/2021, 15:27:49,-13.036092,5.3863993,0.8167017,-1.5100583,2.6316066,-1.4758499,14.12869379,3.373983111,crawl
27/03/2021, 15:27:49,-13.036092,5.3863993,0.8167017,-1.5259408,2.7525578,-1.4233155,14.12869379,3.454112987,crawl
27/03/2021, 15:27:49,-13.093573,6.6509695,1.5328126,-1.5259408,2.7525578,-1.4233155,14.76572225,3.454112987,crawl
27/03/2021, 15:27:49,-13.093573,6.6509695,1.5328126,-1.5259408,2.7892096,-1.4734064,14.76572225,3.504156387,crawl
27/03/2021, 15:27:49,-15.189215,4.1888895,1.8489552,-1.5259408,2.7892096,-1.4734064,15.8643523,3.504156387,crawl
27/03/2021, 15:27:49,-15.189215,4.1888895,1.8489552,-1.28526,2.809979,-1.4428631,15.8643523,3.410238831,crawl
27/03/2021, 15:27:49,-14.039605,4.8044095,3.1542408,-1.28526,2.809979,-1.4428631,15.17043501,3.410238831,crawl
27/03/2021, 15:27:49,-14.039605,4.8044095,3.1542408,-0.9761623,2.7085755,-1.1838564,15.17043501,3.113003362,crawl
27/03/2021, 15:27:49,-14.865887,5.470225,3.410508,-0.9761623,2.7085755,-1.1838564,16.20337962,3.113003362,crawl
27/03/2021, 15:27:49,-14.865887,5.470225,3.410508,-0.62308234,2.4740033,-0.9883796,16.20337962,2.736022338,crawl
27/03/2021, 15:27:49,-14.897022,4.385281,3.2524366,-0.62308234,2.4740033,-0.9883796,15.86601103,2.736022338,crawl
27/03/2021, 15:27:49,-14.897022,4.385281,3.2524366,-0.24678947,2.2968524,-0.99082303,15.86601103,2.513596236,crawl
27/03/2021, 15:27:49,-13.589341,4.5625124,3.1111305,-0.24678947,2.2968524,-0.99082303,14.66853249,2.513596236,crawl
27/03/2021, 15:27:49,-13.589341,4.5625124,3.1111305,0.01343903,2.4006996,-1.1007787,14.66853249,2.641070426,crawl
27/03/2021, 15:27:49,-12.688814,4.6774735,2.4908204,0.01343903,2.4006996,-1.1007787,13.75096178,2.641070426,crawl
27/03/2021, 15:27:49,-12.688814,4.6774735,2.4908204,-0.06352996,2.4251342,-1.067792,13.75096178,2.650564418,crawl
27/03/2021, 15:27:49,-12.456497,5.9324636,1.6166383,-0.06352996,2.4251342,-1.067792,13.89143501,2.650564418,crawl
27/03/2021, 15:27:49,-12.456497,5.9324636,1.6166383,-0.35552344,2.0879366,-0.9077454,13.89143501,2.304317269,crawl
27/03/2021, 15:27:49,-12.593013,4.902605,1.947151,-0.35552344,2.0879366,-0.9077454,13.65323789,2.304317269,crawl
27/03/2021, 15:27:50,3.3865578,-10.066268,-0.28740236,0.6120867,-1.2620472,0.18081604,10.62455292,1.414251621,crawl
27/03/2021, 15:27:50,3.3865578,-10.066268,-0.28740236,0.6658429,-1.2815948,0.47403124,10.62455292,1.520045224,crawl
27/03/2021, 15:27:50,2.1746778,-9.414823,0.20597169,0.6658429,-1.2815948,0.47403124,9.664912429,1.520045224,crawl
27/03/2021, 15:27:50,2.1746778,-9.414823,0.20597169,0.89674985,-1.2791513,0.7476988,9.664912429,1.731889683,crawl
27/03/2021, 15:27:50,1.6118482,-10.066268,-0.7951465,0.89674985,-1.2791513,0.7476988,10.22546153,1.731889683,crawl
27/03/2021, 15:27:50,1.6118482,-10.066268,-0.7951465,1.0848962,-1.3487899,0.8307764,10.22546153,1.920006112,crawl
27/03/2021, 15:27:50,0.4263135,-9.352551,-0.5724097,1.0848962,-1.3487899,0.8307764,9.379744925,1.920006112,crawl
27/03/2021, 15:27:50,0.4263135,-9.352551,-0.5724097,1.2803731,-1.3976592,0.9932665,9.379744925,2.139949729,crawl
27/03/2021, 15:27:50,0.05508545,-9.671089,-1.4202466,1.2803731,-1.3976592,0.9932665,9.774973176,2.139949729,crawl
27/03/2021, 15:27:50,0.05508545,-9.671089,-1.4202466,1.4501935,-1.63834,1.0787876,9.774973176,2.439467526,crawl
27/03/2021, 15:27:50,2.6441016,-8.689131,-1.092129,1.4501935,-1.63834,1.0787876,9.147951294,2.439467526,crawl
27/03/2021, 15:27:50,2.6441016,-8.689131,-1.092129,1.6933178,-1.4758499,1.362229,9.147951294,2.626999376,crawl
27/03/2021, 15:27:50,2.4932153,-9.546548,-0.74006104,1.6933178,-1.4758499,1.362229,9.894462573,2.626999376,crawl
27/03/2021, 15:27:50,2.4932153,-9.546548,-0.74006104,1.9401072,-1.3683376,1.4831803,9.894462573,2.799319146,crawl
27/03/2021, 15:27:50,2.196233,-10.418335,0.2778223,1.9401072,-1.3683376,1.4831803,10.65093086,2.799319146,crawl
27/03/2021, 15:27:50,2.196233,-10.418335,0.2778223,2.4385731,-1.3781115,1.4868455,10.65093086,3.171204763,crawl
27/03/2021, 15:27:50,0.6730005,-10.281819,0.26584718,2.4385731,-1.3781115,1.4868455,10.30725053,3.171204763,crawl
27/03/2021, 15:27:50,0.6730005,-10.281819,0.26584718,2.9712474,-1.362229,1.6322314,10.30725053,3.653513149,crawl
27/03/2021, 15:27:50,-0.4143384,-10.071057,1.331631,2.9712474,-1.362229,1.6322314,10.16715854,3.653513149,crawl
27/03/2021, 15:27:50,-0.4143384,-10.071057,1.331631,3.189937,-1.1545348,1.877799,10.16715854,3.877470651,crawl
27/03/2021, 15:27:51,-12.1379595,-4.2176294,2.7686427,-2.714684,3.9535184,-0.7452553,13.14472672,4.85337227,crawl
27/03/2021, 15:27:51,-12.1379595,-4.2176294,2.7686427,-2.4556773,4.054922,-0.701273,13.14472672,4.792131883,crawl
27/03/2021, 15:27:51,-12.676839,-5.0510964,3.2069314,-2.4556773,4.054922,-0.701273,14.01785389,4.792131883,crawl
27/03/2021, 15:27:51,-12.676839,-5.0510964,3.2069314,-2.307848,4.167321,-0.687834,14.01785389,4.813090894,crawl
27/03/2021, 15:27:51,-12.183465,-3.5853443,3.9278321,-2.307848,4.167321,-0.687834,13.29358411,4.813090894,crawl
27/03/2021, 15:27:51,-12.183465,-3.5853443,3.9278321,-2.331061,4.1954207,-0.7354815,13.29358411,4.855546632,crawl
27/03/2021, 15:27:51,-13.081597,-3.8847218,4.703819,-2.331061,4.1954207,-0.7354815,14.43416652,4.855546632,crawl
27/03/2021, 15:27:51,-13.081597,-3.8847218,4.703819,-2.4862206,4.1844254,-0.73914665,14.43416652,4.923113464,crawl
27/03/2021, 15:27:51,-12.216995,-3.0871804,3.9278321,-2.4862206,4.1844254,-0.73914665,13.19899695,4.923113464,crawl
27/03/2021, 15:27:51,-12.216995,-3.0871804,3.9278321,-2.7452273,4.0720263,-0.8881977,13.19899695,4.990647866,crawl
27/03/2021, 15:27:51,-12.15712,-2.9746144,4.4259963,-2.7452273,4.0720263,-0.8881977,13.27529038,4.990647866,crawl
27/03/2021, 15:27:51,-12.15712,-2.9746144,4.4259963,-2.9859083,4.0304875,-0.99815345,13.27529038,5.114370762,crawl
27/03/2021, 15:27:51,-11.079361,-4.169729,5.757627,-2.9859083,4.0304875,-0.99815345,13.16393368,5.114370762,crawl
27/03/2021, 15:27:51,-11.079361,-4.169729,5.757627,-2.9895735,4.009718,-1.0580182,13.16393368,5.112219682,crawl
27/03/2021, 15:27:51,-11.397899,-5.609136,5.6570363,-2.9895735,4.009718,-1.0580182,13.90599014,5.112219682,crawl
27/03/2021, 15:27:51,-11.397899,-5.609136,5.6570363,-3.0286686,3.995057,-1.0934484,13.90599014,5.131173787,crawl
27/03/2021, 15:27:51,-11.084151,-4.3565407,5.736072,-3.0286686,3.995057,-1.0934484,13.21894015,5.131173787,crawl
27/03/2021, 15:27:51,-11.084151,-4.3565407,5.736072,-3.2473583,3.8264585,-1.2241734,13.21894015,5.165822389,crawl
27/03/2021, 15:27:51,-11.754756,-5.3001785,6.471343,-3.2473583,3.8264585,-1.2241734,14.42721252,5.165822389,crawl
27/03/2021, 15:27:51,-11.754756,-5.3001785,6.471343,-3.321884,3.60166,-1.325577,14.42721252,5.075827228,crawl
27/03/2021, 15:27:52,-1.8729054,-8.756192,-2.8261232,1.0885614,0.03543017,-2.5363116,9.389656493,2.760271349,crawl
27/03/2021, 15:27:52,-0.17004639,-7.9227247,-2.555486,1.0885614,0.03543017,-2.5363116,8.326403265,2.760271349,crawl
27/03/2021, 15:27:52,-0.17004639,-7.9227247,-2.555486,0.9077454,-0.01954768,-2.484999,8.326403265,2.645676397,crawl
27/03/2021, 15:27:52,0.49337405,-7.676038,-2.9458742,0.9077454,-0.01954768,-2.484999,8.23669527,2.645676397,crawl
27/03/2021, 15:27:52,0.49337405,-7.676038,-2.9458742,0.5106832,0.1624901,-2.2883003,8.23669527,2.350216691,crawl
27/03/2021, 15:27:52,1.21188,-6.8928666,-3.7697608,0.5106832,0.1624901,-2.2883003,7.949299342,2.350216691,crawl
27/03/2021, 15:27:52,1.21188,-6.8928666,-3.7697608,0.22724178,0.22602005,-2.0427327,7.949299342,2.067723589,crawl
27/03/2021, 15:27:52,1.7220191,-7.0150127,-3.2380664,0.22724178,0.22602005,-2.0427327,7.915859252,2.067723589,crawl
27/03/2021, 15:27:52,1.7220191,-7.0150127,-3.2380664,-0.018325951,0.15760317,-1.9132292,7.915859252,1.91979704,crawl
27/03/2021, 15:27:52,2.4692652,-7.917935,-3.0752053,-0.018325951,0.15760317,-1.9132292,8.845781567,1.91979704,crawl
27/03/2021, 15:27:52,2.4692652,-7.917935,-3.0752053,-0.22968525,0.13072512,-1.8863511,8.845781567,1.904774232,crawl
27/03/2021, 15:27:52,2.914739,-8.928633,-2.2225783,-0.22968525,0.13072512,-1.8863511,9.651737647,1.904774232,crawl
27/03/2021, 15:27:52,2.914739,-8.928633,-2.2225783,-0.29565868,0.33597577,-1.6798788,9.651737647,1.738472506,crawl
27/03/2021, 15:27:52,2.8380983,-9.580078,-1.8896705,-0.29565868,0.33597577,-1.6798788,10.16875377,1.738472506,crawl
27/03/2021, 15:27:52,2.8380983,-9.580078,-1.8896705,-0.15638144,0.48991373,-1.4123199,10.16875377,1.503036299,crawl
27/03/2021, 15:27:52,2.323169,-9.410032,-2.3734643,-0.15638144,0.48991373,-1.4123199,9.978935541,1.503036299,crawl
27/03/2021, 15:27:52,2.323169,-9.410032,-2.3734643,-0.036651902,0.38484496,-1.28526,9.978935541,1.342140892,crawl
27/03/2021, 15:27:52,1.8705103,-9.137,-2.339934,-0.036651902,0.38484496,-1.28526,9.615553604,1.342140892,crawl
27/03/2021, 15:27:52,1.8705103,-9.137,-2.339934,0.067195155,0.109955706,-1.3084729,9.615553604,1.314802914,crawl
27/03/2021, 15:27:52,2.4333398,-8.885523,-1.8010547,0.067195155,0.109955706,-1.3084729,9.387089912,1.314802914,crawl
27/03/2021, 15:27:53,-9.426797,3.8751419,1.9327809,-0.7525857,4.539949,-1.009149,10.37385494,4.711252832,crawl
27/03/2021, 15:27:53,-11.270963,0.24668702,2.0429518,-0.7525857,4.539949,-1.009149,11.45727311,4.711252832,crawl
27/03/2021, 15:27:53,-11.270963,0.24668702,2.0429518,-0.8747587,4.6499043,-1.1704173,11.45727311,4.874083405,crawl
27/03/2021, 15:27:53,-13.2492485,-0.2203418,2.5004005,-0.8747587,4.6499043,-1.1704173,13.48492267,4.874083405,crawl
27/03/2021, 15:27:53,-13.2492485,-0.2203418,2.5004005,-1.1056657,4.620583,-1.0751225,13.48492267,4.871157227,crawl
27/03/2021, 15:27:53,-14.851517,1.7914747,4.785249,-1.1056657,4.620583,-1.0751225,15.70590783,4.871157227,crawl
27/03/2021, 15:27:53,-14.851517,1.7914747,4.785249,-1.593136,4.467867,-1.0140359,15.70590783,4.850586116,crawl
27/03/2021, 15:27:53,-14.870677,3.0871804,5.1684523,-1.593136,4.467867,-1.0140359,16.04308623,4.850586116,crawl
27/03/2021, 15:27:53,-14.870677,3.0871804,5.1684523,-2.1197016,4.2601724,-1.0690137,16.04308623,4.876986149,crawl
27/03/2021, 15:27:53,-14.530584,2.816543,5.7935524,-2.1197016,4.2601724,-1.0690137,15.89452879,4.876986149,crawl
27/03/2021, 15:27:53,-14.530584,2.816543,5.7935524,-2.4605644,4.0072746,-1.1545348,15.89452879,4.842063365,crawl
27/03/2021, 15:27:53,-13.232484,-1.1064991,5.1876125,-2.4605644,4.0072746,-1.1545348,14.25602656,4.842063365,crawl
27/03/2021, 15:27:53,-13.232484,-1.1064991,5.1876125,-2.4947727,3.8362322,-1.1435393,14.25602656,4.716805086,crawl
27/03/2021, 15:27:53,-12.058924,-2.095642,4.387676,-2.4947727,3.8362322,-1.1435393,13.00234808,4.716805086,crawl
27/03/2021, 15:27:53,-12.058924,-2.095642,4.387676,-2.533868,3.896097,-1.0128142,13.00234808,4.756663889,crawl
27/03/2021, 15:27:53,-10.9644,-0.12933107,2.9794044,-2.533868,3.896097,-1.0128142,11.3627308,4.756663889,crawl
27/03/2021, 15:27:53,-10.9644,-0.12933107,2.9794044,-3.0103428,3.9437444,-1.0726789,11.3627308,5.076014591,crawl
27/03/2021, 15:27:53,-11.943963,0.44547364,0.6562354,-3.0103428,3.9437444,-1.0726789,11.97026921,5.076014591,crawl
27/03/2021, 15:27:53,-11.943963,0.44547364,0.6562354,-3.9095361,3.9522967,-1.1911868,11.97026921,5.685424182,crawl
27/03/2021, 15:27:53,-13.270803,-2.1004322,1.1328443,-3.9095361,3.9522967,-1.1911868,13.48367071,5.685424182,crawl
27/03/2021, 15:27:54,2.4716604,-9.869876,-2.792593,0.64263,0.5900956,-2.0305152,10.55093034,2.210017656,crawl
27/03/2021, 15:27:54,3.0057497,-9.405242,-2.4165747,0.64263,0.5900956,-2.0305152,10.16528116,2.210017656,crawl
27/03/2021, 15:27:54,3.0057497,-9.405242,-2.4165747,0.68905574,0.565661,-1.8142691,10.16528116,2.021470366,crawl
27/03/2021, 15:27:54,4.1793094,-8.408914,-1.8034497,0.68905574,0.565661,-1.8142691,9.561845321,2.021470366,crawl
27/03/2021, 15:27:54,4.1793094,-8.408914,-1.8034497,0.96516675,0.5791,-1.5833621,9.561845321,1.942662921,crawl
27/03/2021, 15:27:54,4.8163843,-7.932305,-3.0009596,0.96516675,0.5791,-1.5833621,9.753193169,1.942662921,crawl
27/03/2021, 15:27:54,4.8163843,-7.932305,-3.0009596,1.1435393,0.47280952,-1.3768897,9.753193169,1.851231012,crawl
27/03/2021, 15:27:54,5.0510964,-8.071217,-3.803291,1.1435393,0.47280952,-1.3768897,10.2529574,1.851231012,crawl
27/03/2021, 15:27:54,5.0510964,-8.071217,-3.803291,1.317025,0.3824015,-1.1777477,10.2529574,1.807726561,crawl
27/03/2021, 15:27:54,6.5048733,-8.042476,-4.423601,1.317025,0.3824015,-1.1777477,11.25002395,1.807726561,crawl
27/03/2021, 15:27:54,6.5048733,-8.042476,-4.423601,1.4318676,0.4068361,-0.99937516,11.25002395,1.792905783,crawl
27/03/2021, 15:27:54,6.8761015,-8.329878,-4.2152348,1.4318676,0.4068361,-0.99937516,11.59464708,1.792905783,crawl
27/03/2021, 15:27:54,6.8761015,-8.329878,-4.2152348,1.3426813,0.36407554,-0.94684076,11.59464708,1.682810588,crawl
27/03/2021, 15:27:54,6.255791,-8.868757,-3.6116896,1.3426813,0.36407554,-0.94684076,11.4382726,1.682810588,crawl
27/03/2021, 15:27:54,6.255791,-8.868757,-3.6116896,1.325577,0.32620192,-0.7770203,11.4382726,1.570771351,crawl
27/03/2021, 15:27:54,5.6738014,-9.812395,-1.1496094,1.325577,0.32620192,-0.7770203,11.39283643,1.570771351,crawl
27/03/2021, 15:27:54,5.6738014,-9.812395,-1.1496094,1.5833621,0.17348567,-0.6438517,11.39283643,1.71804477,crawl
27/03/2021, 15:27:54,5.5229154,-10.166859,-0.23710695,1.5833621,0.17348567,-0.6438517,11.57254635,1.71804477,crawl
27/03/2021, 15:27:54,5.5229154,-10.166859,-0.23710695,1.6774353,-0.07208207,-0.5791,11.57254635,1.776046667,crawl
27/03/2021, 15:27:54,5.333709,-9.889036,1.707649,1.6774353,-0.07208207,-0.5791,11.36475036,1.776046667,crawl
27/03/2021, 15:27:55,-9.74294,0.488584,5.733677,-2.7721055,2.7818792,-0.0977384,11.31541621,3.92848231,crawl
27/03/2021, 15:27:55,-10.147698,1.1448194,4.6774735,-2.7721055,2.7818792,-0.0977384,11.23232625,3.92848231,crawl
27/03/2021, 15:27:55,-10.147698,1.1448194,4.6774735,-3.186272,2.6804757,-0.16371182,11.23232625,4.167022949,crawl
27/03/2021, 15:27:55,-10.310559,-1.2094849,4.488267,-3.186272,2.6804757,-0.16371182,11.30995254,4.167022949,crawl
27/03/2021, 15:27:55,-10.310559,-1.2094849,4.488267,-3.1569505,2.647489,-0.058643043,11.30995254,4.120555021,crawl
27/03/2021, 15:27:55,-11.081756,-4.378096,5.1708474,-3.1569505,2.647489,-0.058643043,12.98886818,4.120555021,crawl
27/03/2021, 15:27:55,-11.081756,-4.378096,5.1708474,-2.7281232,2.7598882,-0.00122173,12.98886818,3.880675243,crawl
27/03/2021, 15:27:55,-11.108101,-5.3313136,5.6187162,-2.7281232,2.7598882,-0.00122173,13.54188991,3.880675243,crawl
27/03/2021, 15:27:55,-11.108101,-5.3313136,5.6187162,-2.2577572,2.9541433,0.0244346,13.54188991,3.718202135,crawl
27/03/2021, 15:27:55,-12.296031,-4.3373804,6.1599903,-2.2577572,2.9541433,0.0244346,14.42049679,3.718202135,crawl
27/03/2021, 15:27:55,-12.296031,-4.3373804,6.1599903,-2.276083,3.037221,0.00610865,14.42049679,3.795431759,crawl
27/03/2021, 15:27:55,-13.39295,-2.1722827,6.2821364,-2.276083,3.037221,0.00610865,14.95176115,3.795431759,crawl
27/03/2021, 15:27:55,-13.39295,-2.1722827,6.2821364,-2.836857,2.9859083,-0.087964565,14.95176115,4.119604842,crawl
27/03/2021, 15:27:55,-14.456339,-1.1615845,6.361172,-2.836857,2.9859083,-0.087964565,15.83665129,4.119604842,crawl
27/03/2021, 15:27:55,-14.456339,-1.1615845,6.361172,-3.5332432,2.809979,-0.11362089,15.83665129,4.515827592,crawl
27/03/2021, 15:27:55,-15.505357,-3.4919386,6.502478,-3.5332432,2.809979,-0.11362089,17.17241818,4.515827592,crawl
27/03/2021, 15:27:55,-15.505357,-3.4919386,6.502478,-3.922975,2.6804757,0.05619958,17.17241818,4.75161465,crawl
27/03/2021, 15:27:55,-13.745018,-4.272715,8.289163,-3.922975,2.6804757,0.05619958,16.60999192,4.75161465,crawl
27/03/2021, 15:27:55,-13.745018,-4.272715,8.289163,-3.964514,2.769662,-0.03543017,16.60999192,4.836285119,crawl
27/03/2021, 15:27:55,-12.499607,-5.230723,7.6233473,-3.964514,2.769662,-0.03543017,15.54722043,4.836285119,crawl
27/03/2021, 15:27:56,4.390071,-10.142908,-1.0106983,0.13439031,0.60842156,-1.1423175,11.09832503,1.301202099,crawl
27/03/2021, 15:27:56,4.634363,-9.992022,-0.08861572,0.13439031,0.60842156,-1.1423175,11.01479322,1.301202099,crawl
27/03/2021, 15:27:56,4.634363,-9.992022,-0.08861572,0.28344136,0.5143483,-1.0079273,11.01479322,1.16653789,crawl
27/03/2021, 15:27:56,4.86189,-9.905801,0.72569096,0.28344136,0.5143483,-1.0079273,11.05845785,1.16653789,crawl
27/03/2021, 15:27:56,4.86189,-9.905801,0.72569096,0.5986477,0.43004897,-0.94684076,11.05845785,1.199928596,crawl
27/03/2021, 15:27:56,4.737349,-10.003997,0.7759864,0.5986477,0.43004897,-0.94684076,11.09615175,1.199928596,crawl
27/03/2021, 15:27:56,4.737349,-10.003997,0.7759864,0.89674985,0.37629285,-0.85765445,11.09615175,1.296660238,crawl
27/03/2021, 15:27:56,4.9002104,-9.520203,0.7927515,0.89674985,0.37629285,-0.85765445,10.7366091,1.296660238,crawl
27/03/2021, 15:27:56,4.9002104,-9.520203,0.7927515,1.0555748,0.33108884,-0.7342597,10.7366091,1.327778321,crawl
27/03/2021, 15:27:56,5.3169436,-8.950189,-0.035925295,1.0555748,0.33108884,-0.7342597,10.4104302,1.327778321,crawl
27/03/2021, 15:27:56,5.3169436,-8.950189,-0.035925295,0.93218,0.35430172,-0.6499604,10.4104302,1.190351947,crawl
27/03/2021, 15:27:56,5.9133034,-8.756192,-0.6466553,0.93218,0.35430172,-0.6499604,10.58566115,1.190351947,crawl
27/03/2021, 15:27:56,5.9133034,-8.756192,-0.6466553,0.7696899,0.25167638,-0.533896,10.58566115,0.969952854,crawl
27/03/2021, 15:27:56,5.949229,-8.983719,0.29698244,0.7696899,0.25167638,-0.533896,10.77908745,0.969952854,crawl
27/03/2021, 15:27:56,5.949229,-8.983719,0.29698244,0.751364,0.18081604,-0.27122405,10.77908745,0.819026725,crawl
27/03/2021, 15:27:56,6.133645,-9.139395,0.88376224,0.751364,0.18081604,-0.27122405,11.04224497,0.819026725,crawl
27/03/2021, 15:27:56,6.133645,-9.139395,0.88376224,0.82833296,0.1869247,-0.11117743,11.04224497,0.856409223,crawl
27/03/2021, 15:27:56,5.110972,-8.993299,0.60833496,0.82833296,0.1869247,-0.11117743,10.36202316,0.856409223,crawl
27/03/2021, 15:27:56,5.110972,-8.993299,0.60833496,1.0690137,0.16493355,0.12950338,10.36202316,1.089387224,crawl
27/03/2021, 15:27:56,4.102669,-9.546548,1.3867164,1.0690137,0.16493355,0.12950338,10.48291228,1.089387224,crawl
27/03/2021, 15:27:57,-7.1275783,2.5099807,4.28948,-0.3090977,3.2339194,-0.18814643,8.689189565,3.254101265,crawl
27/03/2021, 15:27:57,-7.541917,0.6825806,5.8270826,-0.3090977,3.2339194,-0.18814643,9.555172317,3.254101265,crawl
27/03/2021, 15:27:57,-7.541917,0.6825806,5.8270826,-0.16859874,3.253467,-0.08674283,9.555172317,3.258987253,crawl
27/03/2021, 15:27:57,-7.443721,3.05844,7.165899,-0.16859874,3.253467,-0.08674283,10.77558074,3.258987253,crawl
27/03/2021, 15:27:57,-7.443721,3.05844,7.165899,-0.3298671,3.258354,-0.01343903,10.77558074,3.275036391,crawl
27/03/2021, 15:27:57,-7.316785,6.6030693,5.6187162,-0.3298671,3.258354,-0.01343903,11.3448595,3.275036391,crawl
27/03/2021, 15:27:57,-7.316785,6.6030693,5.6187162,-0.99570996,3.1422896,-0.02076941,11.3448595,3.296339463,crawl
27/03/2021, 15:27:57,-7.407796,7.4269557,3.9278321,-0.99570996,3.1422896,-0.02076941,11.20102568,3.296339463,crawl
27/03/2021, 15:27:57,-7.407796,7.4269557,3.9278321,-1.6627746,2.9883516,-0.10629051,11.20102568,3.421456138,crawl
27/03/2021, 15:27:57,-6.71803,4.416416,4.0882983,-1.6627746,2.9883516,-0.10629051,9.019470144,3.421456138,crawl
27/03/2021, 15:27:57,-6.71803,4.416416,4.0882983,-1.9511029,2.9309304,-0.22235486,9.019470144,3.527973483,crawl
27/03/2021, 15:27:57,-6.70366,1.7627344,4.8211746,-1.9511029,2.9309304,-0.22235486,8.443341453,3.527973483,crawl
27/03/2021, 15:27:57,-6.70366,1.7627344,4.8211746,-1.9437724,2.9516997,-0.25045466,8.443341453,3.543093301,crawl
27/03/2021, 15:27:57,-7.941885,2.2704787,4.129014,-1.9437724,2.9516997,-0.25045466,9.234574579,3.543093301,crawl
27/03/2021, 15:27:57,-7.941885,2.2704787,4.129014,-2.0292935,3.0176733,-0.21746795,9.234574579,3.643031215,crawl
27/03/2021, 15:27:57,-8.51669,3.8392165,2.8141482,-2.0292935,3.0176733,-0.21746795,9.756691346,3.643031215,crawl
27/03/2021, 15:27:57,-8.51669,3.8392165,2.8141482,-2.24554,3.009121,-0.16982047,9.756691346,3.758470073,crawl
27/03/2021, 15:27:57,-8.408914,3.2548318,3.4871485,-2.24554,3.009121,-0.16982047,9.667676192,3.758470073,crawl
27/03/2021, 15:27:57,-8.408914,3.2548318,3.4871485,-2.3286173,2.9785779,-0.1624901,9.667676192,3.784281668,crawl
27/03/2021, 15:27:57,-8.54543,0.9580079,4.5649076,-2.3286173,2.9785779,-0.1624901,9.735529623,3.784281668,crawl
27/03/2021, 15:27:58,0.9484278,-10.542876,2.9817994,5.5319934,-0.35918862,-2.7452273,10.99740343,6.186132916,crawl
27/03/2021, 15:27:58,0.4047583,-10.93087,3.5134938,5.5319934,-0.35918862,-2.7452273,11.48879402,6.186132916,crawl
27/03/2021, 15:27:58,0.4047583,-10.93087,3.5134938,5.502672,-0.5668827,-2.6242762,11.48879402,6.122710404,crawl
27/03/2021, 15:27:58,-0.07185059,-10.808723,4.6894484,5.502672,-0.5668827,-2.6242762,11.78238478,6.122710404,crawl
27/03/2021, 15:27:58,-0.07185059,-10.808723,4.6894484,5.638284,-0.6487386,-2.4178038,11.78238478,6.169026312,crawl
27/03/2021, 15:27:58,-1.0370435,-11.088941,5.9372535,5.638284,-0.6487386,-2.4178038,12.6210555,6.169026312,crawl
27/03/2021, 15:27:58,-1.0370435,-11.088941,5.9372535,5.8166566,-0.65362555,-2.2101097,12.6210555,6.256620907,crawl
27/03/2021, 15:27:58,-0.6442603,-9.026829,5.254673,5.8166566,-0.65362555,-2.2101097,10.46471678,6.256620907,crawl
27/03/2021, 15:27:58,-0.6442603,-9.026829,5.254673,5.651723,-0.719599,-1.9694288,10.46471678,6.028137712,crawl
27/03/2021, 15:27:58,0.11256592,-6.3156667,5.1612673,5.651723,-0.719599,-1.9694288,8.157143899,6.028137712,crawl
27/03/2021, 15:27:58,0.11256592,-6.3156667,5.1612673,5.07751,-0.75747263,-1.846034,8.157143899,5.45552134,crawl
27/03/2021, 15:27:58,0.4382886,-5.3289185,4.0882983,5.07751,-0.75747263,-1.846034,6.730798762,5.45552134,crawl
27/03/2021, 15:27:58,0.4382886,-5.3289185,4.0882983,4.2968245,-0.6756167,-1.6688832,6.730798762,4.658790557,crawl
27/03/2021, 15:27:58,0.87897223,-6.0689797,7.0150127,4.2968245,-0.6756167,-1.6688832,9.317484158,4.658790557,crawl
27/03/2021, 15:27:58,0.87897223,-6.0689797,7.0150127,3.4538307,-0.6145302,-1.5320494,9.317484158,3.82802422,crawl
27/03/2021, 15:27:58,2.064507,-5.879773,7.431746,3.4538307,-0.6145302,-1.5320494,9.6986994,3.82802422,crawl
27/03/2021, 15:27:58,2.064507,-5.879773,7.431746,3.0983074,-0.5607741,-1.1789695,9.6986994,3.362134029,crawl
27/03/2021, 15:27:58,2.215393,-4.5457473,7.3742657,3.0983074,-0.5607741,-1.1789695,8.941564682,3.362134029,crawl
27/03/2021, 15:27:58,2.215393,-4.5457473,7.3742657,3.0885334,-0.60475636,-0.74281186,8.941564682,3.233657106,crawl
27/03/2021, 15:27:58,2.550696,-4.6271777,7.3958206,3.0885334,-0.60475636,-0.74281186,9.089278617,3.233657106,crawl
27/03/2021, 15:27:59,-10.554852,0.059875492,0.75203615,-1.226617,3.7103941,-2.7892096,10.58177841,4.801177369,crawl
27/03/2021, 15:27:59,-11.6805105,-2.2537134,1.9830762,-1.226617,3.7103941,-2.7892096,12.06010536,4.801177369,crawl
27/03/2021, 15:27:59,-11.6805105,-2.2537134,1.9830762,-2.0305152,3.489261,-2.9431477,12.06010536,4.996003584,crawl
27/03/2021, 15:27:59,-12.957056,-2.9937747,2.4453151,-2.0305152,3.489261,-2.9431477,13.52137397,4.996003584,crawl
27/03/2021, 15:27:59,-12.957056,-2.9937747,2.4453151,-2.3750432,3.1606157,-3.0335557,13.52137397,4.983250138,crawl
27/03/2021, 15:27:59,-12.940291,-4.423601,4.7062135,-2.3750432,3.1606157,-3.0335557,14.46263579,4.983250138,crawl
27/03/2021, 15:27:59,-12.940291,-4.423601,4.7062135,-2.2895222,2.932152,-3.1655025,14.46263579,4.884652874,crawl
27/03/2021, 15:27:59,-11.66135,-4.397256,5.688172,-2.2895222,2.932152,-3.1655025,13.6995711,4.884652874,crawl
27/03/2021, 15:27:59,-11.66135,-4.397256,5.688172,-2.1416926,2.819753,-3.2913406,13.6995711,4.834333132,crawl
27/03/2021, 15:27:59,-10.691368,-4.756509,6.488108,-2.1416926,2.819753,-3.2913406,13.38003272,4.834333132,crawl
27/03/2021, 15:27:59,-10.691368,-4.756509,6.488108,-2.2907438,2.73301,-3.4306178,13.38003272,4.948332021,crawl
27/03/2021, 15:27:59,-10.32014,-4.517007,6.919212,-2.2907438,2.73301,-3.4306178,13.22059496,4.948332021,crawl
27/03/2021, 15:27:59,-10.32014,-4.517007,6.919212,-2.783101,2.4972162,-3.5955515,13.22059496,5.187459015,crawl
27/03/2021, 15:27:59,-11.936778,-2.9171338,7.422166,-2.783101,2.4972162,-3.5955515,14.35565695,5.187459015,crawl
27/03/2021, 15:27:59,-11.936778,-2.9171338,7.422166,-3.547904,2.0280719,-3.6615248,14.35565695,5.487026709,crawl
27/03/2021, 15:27:59,-12.686419,-3.5925295,6.662945,-3.547904,2.0280719,-3.6615248,14.77316205,5.487026709,crawl
27/03/2021, 15:27:59,-12.686419,-3.5925295,6.662945,-4.1441083,1.6713266,-3.7983587,14.77316205,5.864681999,crawl
27/03/2021, 15:27:59,-11.857742,-4.150569,6.0330544,-4.1441083,1.6713266,-3.7983587,13.93667895,5.864681999,crawl
27/03/2021, 15:27:59,-11.857742,-4.150569,6.0330544,-4.4189973,1.4819585,-3.850893,13.93667895,6.045917226,crawl
27/03/2021, 15:27:59,-10.039923,-4.184099,6.564749,-4.4189973,1.4819585,-3.850893,12.70443468,6.045917226,crawl
27/03/2021, 15:28:00,3.3602126,-10.066268,3.2332766,2.602285,-1.3194684,-0.27733272,11.0939108,2.930835544,crawl
27/03/2021, 15:28:00,5.017566,-10.497371,2.9171338,2.602285,-1.3194684,-0.27733272,11.99501698,2.930835544,crawl
27/03/2021, 15:28:00,5.017566,-10.497371,2.9171338,2.8234181,-1.4001026,-0.1710422,11.99501698,3.15614207,crawl
27/03/2021, 15:28:00,7.3311553,-8.921448,2.4668703,2.8234181,-1.4001026,-0.1710422,11.80777359,3.15614207,crawl
27/03/2021, 15:28:00,7.3311553,-8.921448,2.4668703,2.9272652,-1.5442667,0.00244346,11.80777359,3.309629431,crawl
27/03/2021, 15:28:00,8.655601,-9.553733,3.3051271,2.9272652,-1.5442667,0.00244346,13.30853478,3.309629431,crawl
27/03/2021, 15:28:00,8.655601,-9.553733,3.3051271,2.977356,-1.5332712,0.46181396,13.30853478,3.380656915,crawl
27/03/2021, 15:28:00,8.202942,-9.469908,4.4619217,2.977356,-1.5332712,0.46181396,13.29947946,3.380656915,crawl
27/03/2021, 15:28:00,8.202942,-9.469908,4.4619217,3.1300724,-1.3854419,0.82711124,13.29947946,3.521493322,crawl
27/03/2021, 15:28:00,6.1504107,-8.53106,5.1804276,3.1300724,-1.3854419,0.82711124,11.72362441,3.521493322,crawl
27/03/2021, 15:28:00,6.1504107,-8.53106,5.1804276,3.1239636,-1.3206902,0.92973655,11.72362441,3.516785618,crawl
27/03/2021, 15:28:00,3.786526,-6.569539,5.8438478,3.1239636,-1.3206902,0.92973655,9.573253314,3.516785618,crawl
27/03/2021, 15:28:00,3.786526,-6.569539,5.8438478,3.2241457,-1.2424995,1.3842201,9.573253314,3.722228561,crawl
27/03/2021, 15:28:00,3.3841627,-5.726492,7.2281694,3.2241457,-1.2424995,1.3842201,9.823018895,3.722228561,crawl
27/03/2021, 15:28:00,3.3841627,-5.726492,7.2281694,3.3756402,-1.1154395,1.7201959,9.823018895,3.949458912,crawl
27/03/2021, 15:28:00,3.7146754,-5.2594633,7.6425076,3.3756402,-1.1154395,1.7201959,9.99343232,3.949458912,crawl
27/03/2021, 15:28:00,3.7146754,-5.2594633,7.6425076,3.3438752,-1.0201446,1.832595,9.99343232,3.94722694,crawl
27/03/2021, 15:28:00,1.3076807,-6.1599903,6.8808913,3.3438752,-1.0201446,1.832595,9.32749564,3.94722694,crawl
27/03/2021, 15:28:00,1.3076807,-6.1599903,6.8808913,3.5992167,-0.82344604,2.1099277,9.32749564,4.252554401,crawl
27/03/2021, 15:28:00,0.122146,-9.371712,7.074888,3.5992167,-0.82344604,2.1099277,11.74299552,4.252554401,crawl
27/03/2021, 15:28:01,-13.445641,-8.784932,3.8511915,-3.1349592,3.1068594,-1.0604616,16.51641483,4.539286708,crawl
27/03/2021, 15:28:01,-13.445641,-8.784932,3.8511915,-2.637715,3.226589,-0.97738403,16.51641483,4.280618746,crawl
27/03/2021, 15:28:01,-12.569063,-6.1959157,4.3565407,-2.637715,3.226589,-0.97738403,14.67481405,4.280618746,crawl
27/03/2021, 15:28:01,-12.569063,-6.1959157,4.3565407,-2.4874423,3.268128,-0.9859361,14.67481405,4.223754144,crawl
27/03/2021, 15:28:01,-11.314073,-4.2248144,3.5661843,-2.4874423,3.268128,-0.9859361,12.59265525,4.223754144,crawl
27/03/2021, 15:28:01,-11.314073,-4.2248144,3.5661843,-2.8295267,3.2620192,-1.0238098,12.59265525,4.437924809,crawl
27/03/2021, 15:28:01,-10.499766,-3.558999,3.4655933,-2.8295267,3.2620192,-1.0238098,11.61558887,4.437924809,crawl
27/03/2021, 15:28:01,-10.499766,-3.558999,3.4655933,-3.3829703,3.2424715,-1.1129961,11.61558887,4.816312878,crawl
27/03/2021, 15:28:01,-11.476934,-5.101392,3.5685792,-3.3829703,3.2424715,-1.1129961,13.05675992,4.816312878,crawl
27/03/2021, 15:28:01,-11.476934,-5.101392,3.5685792,-3.8863232,3.2229238,-1.1997389,13.05675992,5.189423763,crawl
27/03/2021, 15:28:01,-14.159356,-6.720425,4.7876444,-3.8863232,3.2229238,-1.1997389,16.38819753,5.189423763,crawl
27/03/2021, 15:28:01,-14.159356,-6.720425,4.7876444,-3.892432,3.203376,-1.2363908,16.38819753,5.190501624,crawl
27/03/2021, 15:28:01,-15.632293,-9.798025,6.212681,-3.892432,3.203376,-1.2363908,19.46708185,5.190501624,crawl
27/03/2021, 15:28:01,-15.632293,-9.798025,6.212681,-3.0250034,3.035999,-1.0653486,19.46708185,4.416209206,crawl
27/03/2021, 15:28:01,-16.29811,-12.296031,7.182664,-3.0250034,3.035999,-1.0653486,21.642814,4.416209206,crawl
27/03/2021, 15:28:01,-16.29811,-12.296031,7.182664,-1.8631383,2.9663606,-1.1068875,21.642814,3.6736602,crawl
27/03/2021, 15:28:01,-13.479171,-9.529783,7.4940166,-1.8631383,2.9663606,-1.1068875,18.12912297,3.6736602,crawl
27/03/2021, 15:28:01,-13.479171,-9.529783,7.4940166,-1.2437211,2.9859083,-1.1582,18.12912297,3.435683009,crawl
27/03/2021, 15:28:01,-12.044554,-8.097562,5.4342995,-1.2437211,2.9859083,-1.1582,15.49752863,3.435683009,crawl
27/03/2021, 15:28:01,-12.044554,-8.097562,5.4342995,-1.1862998,2.8893914,-1.1557566,15.49752863,3.330414886,crawl
27/03/2021, 15:28:02,0.8214917,-12.152329,-0.098195806,4.538727,-0.029321522,-1.5564841,12.18045984,4.798285479,crawl
27/03/2021, 15:28:02,1.2454102,-10.614727,0.43349856,4.538727,-0.029321522,-1.5564841,10.69632635,4.798285479,crawl
27/03/2021, 15:28:02,1.2454102,-10.614727,0.43349856,4.6938868,-0.13683376,-1.4563022,10.69632635,4.916514249,crawl
27/03/2021, 15:28:02,1.1280543,-10.197993,2.327959,4.6938868,-0.13683376,-1.4563022,10.52097746,4.916514249,crawl
27/03/2021, 15:28:02,1.1280543,-10.197993,2.327959,4.6181393,-0.13561203,-0.9517277,10.52097746,4.717137533,crawl
27/03/2021, 15:28:02,1.0801538,-9.7740755,3.791316,4.6181393,-0.13561203,-0.9517277,10.53913476,4.717137533,crawl
27/03/2021, 15:28:02,1.0801538,-9.7740755,3.791316,4.7842946,-0.17226394,-0.5937608,10.53913476,4.824075207,crawl
27/03/2021, 15:28:02,1.2549903,-9.09868,4.28948,4.7842946,-0.17226394,-0.5937608,10.13709084,4.824075207,crawl
27/03/2021, 15:28:02,1.2549903,-9.09868,4.28948,4.9345675,-0.21502449,-0.5632175,10.13709084,4.971257933,crawl
27/03/2021, 15:28:02,-0.7927515,-9.407638,4.567302,4.9345675,-0.21502449,-0.5632175,10.48772376,4.971257933,crawl
27/03/2021, 15:28:02,-0.7927515,-9.407638,4.567302,4.889364,-0.27733272,-0.36285383,10.48772376,4.910647042,crawl
27/03/2021, 15:28:02,-0.46942386,-9.881851,3.9445972,4.889364,-0.27733272,-0.36285383,10.65040794,4.910647042,crawl
27/03/2021, 15:28:02,-0.46942386,-9.881851,3.9445972,4.78796,-0.29077175,-0.22479832,10.65040794,4.80204581,crawl
27/03/2021, 15:28:02,1.1855347,-9.110655,4.3541455,4.78796,-0.29077175,-0.22479832,10.16701073,4.80204581,crawl
27/03/2021, 15:28:02,1.1855347,-9.110655,4.3541455,4.662122,-0.29077175,-0.06841688,10.16701073,4.67168155,crawl
27/03/2021, 15:28:02,2.9003687,-8.195757,3.6955154,4.662122,-0.29077175,-0.06841688,9.446660994,4.67168155,crawl
27/03/2021, 15:28:02,2.9003687,-8.195757,3.6955154,4.7097692,-0.21502449,0.16859874,9.446660994,4.717688782,crawl
27/03/2021, 15:28:02,3.297942,-7.553892,4.6846585,4.7097692,-0.21502449,0.16859874,9.480703183,4.717688782,crawl
27/03/2021, 15:28:02,3.297942,-7.553892,4.6846585,4.912576,-0.036651902,0.3506365,9.480703183,4.92521007,crawl
27/03/2021, 15:28:02,2.6608667,-7.29523,4.3445654,4.912576,-0.036651902,0.3506365,8.898080675,4.92521007,crawl
27/03/2021, 15:28:03,-9.798025,4.8594947,2.6177564,-3.34021,2.421469,-1.9034554,11.24582738,4.543529129,crawl
27/03/2021, 15:28:03,-9.915381,4.047583,3.2572267,-3.34021,2.421469,-1.9034554,11.19407181,4.543529129,crawl
27/03/2021, 15:28:03,-9.915381,4.047583,3.2572267,-3.692068,2.4092517,-1.9315552,11.19407181,4.813186664,crawl
27/03/2021, 15:28:03,-9.915381,3.7314405,3.5182838,-3.692068,2.4092517,-1.9315552,11.16318766,4.813186664,crawl
27/03/2021, 15:28:03,-9.915381,3.7314405,3.5182838,-4.0891304,2.452012,-1.9266683,11.16318766,5.14250924,crawl
27/03/2021, 15:28:03,-10.123748,3.8655617,2.8596535,-4.0891304,2.452012,-1.9266683,11.20760704,5.14250924,crawl
27/03/2021, 15:28:03,-10.123748,3.8655617,2.8596535,-4.376237,2.4373515,-1.9107858,11.20760704,5.361271683,crawl
27/03/2021, 15:28:03,-10.413546,3.0081446,3.4823585,-4.376237,2.4373515,-1.9107858,11.38497635,5.361271683,crawl
27/03/2021, 15:28:03,-10.413546,3.0081446,3.4823585,-4.4067802,2.4630077,-1.9132292,11.38497635,5.398755881,crawl
27/03/2021, 15:28:03,-10.403965,1.9016455,4.2248144,-4.4067802,2.4630077,-1.9132292,11.38893324,5.398755881,crawl
27/03/2021, 15:28:03,-10.403965,1.9016455,4.2248144,-4.243068,2.5326464,-1.8264863,11.38893324,5.268204454,crawl
27/03/2021, 15:28:03,-10.643467,1.8705103,5.2929935,-4.243068,2.5326464,-1.8264863,12.03320316,5.268204454,crawl
27/03/2021, 15:28:03,-10.643467,1.8705103,5.2929935,-3.8337889,2.6572628,-1.7226393,12.03320316,4.972571663,crawl
27/03/2021, 15:28:03,-10.933265,2.4980054,4.9529004,-3.8337889,2.6572628,-1.7226393,12.25999719,4.972571663,crawl
27/03/2021, 15:28:03,-10.933265,2.4980054,4.9529004,-3.53813,2.7000234,-1.7214175,12.25999719,4.771977474,crawl
27/03/2021, 15:28:03,-11.496095,3.2117214,5.1636624,-3.53813,2.7000234,-1.7214175,13.00533574,4.771977474,crawl
27/03/2021, 15:28:03,-11.496095,3.2117214,5.1636624,-3.4538307,2.6853626,-1.7177525,13.00533574,4.700084288,crawl
27/03/2021, 15:28:03,-11.802657,3.0225148,4.30385,-3.4538307,2.6853626,-1.7177525,12.92135587,4.700084288,crawl
27/03/2021, 15:28:03,-11.802657,3.0225148,4.30385,-3.4929261,2.7073538,-1.7482957,12.92135587,4.752560929,crawl
27/03/2021, 15:28:03,-11.472144,2.1650977,4.7157936,-3.4929261,2.7073538,-1.7482957,12.59112578,4.752560929,crawl
27/03/2021, 15:28:04,-7.9945755,-9.551338,-4.4691067,0.21380275,0.5400047,-4.4470973,13.23307271,4.484862436,crawl
27/03/2021, 15:28:04,-7.9945755,-9.551338,-4.4691067,0.94317555,0.48747027,-4.539949,13.23307271,4.66243968,crawl
27/03/2021, 15:28:04,-7.3072047,-10.015972,-6.1575956,0.94317555,0.48747027,-4.539949,13.84308213,4.66243968,crawl
27/03/2021, 15:28:04,-7.3072047,-10.015972,-6.1575956,1.4856237,0.44715318,-4.5912614,13.84308213,4.846308381,crawl
27/03/2021, 15:28:04,-7.1443434,-9.486672,-6.2797413,1.4856237,0.44715318,-4.5912614,13.43405174,4.846308381,crawl
27/03/2021, 15:28:04,-7.1443434,-9.486672,-6.2797413,1.9840896,0.5131266,-4.497188,13.43405174,4.942126186,crawl
27/03/2021, 15:28:04,-6.200706,-8.47837,-7.1060233,1.9840896,0.5131266,-4.497188,12.68176152,4.942126186,crawl
27/03/2021, 15:28:04,-6.200706,-8.47837,-7.1060233,2.3958125,0.5900956,-4.39945,12.68176152,5.044134133,crawl
27/03/2021, 15:28:04,-5.039121,-7.561077,-7.7478886,2.3958125,0.5900956,-4.39945,11.94120624,5.044134133,crawl
27/03/2021, 15:28:04,-5.039121,-7.561077,-7.7478886,2.7024667,0.40072745,-4.433658,11.94120624,5.207805032,crawl
27/03/2021, 15:28:04,-4.3062453,-7.9562554,-7.33355,2.7024667,0.40072745,-4.433658,11.64588789,5.207805032,crawl
27/03/2021, 15:28:04,-4.3062453,-7.9562554,-7.33355,2.836857,0.40072745,-4.359133,11.64588789,5.216356876,crawl
27/03/2021, 15:28:04,-3.5063088,-8.207732,-7.1323686,2.836857,0.40072745,-4.359133,11.42504926,5.216356876,crawl
27/03/2021, 15:28:04,-3.5063088,-8.207732,-7.1323686,2.7220144,0.62186056,-4.058587,11.42504926,4.926276702,crawl
27/03/2021, 15:28:04,-3.0704153,-8.090376,-6.3875175,2.7220144,0.62186056,-4.058587,10.75555723,4.926276702,crawl
27/03/2021, 15:28:04,-3.0704153,-8.090376,-6.3875175,2.5778503,0.8136722,-3.85578,10.75555723,4.70897158,crawl
27/03/2021, 15:28:04,-2.4572902,-7.9394903,-5.575606,2.5778503,0.8136722,-3.85578,10.00805487,4.70897158,crawl
27/03/2021, 15:28:04,-2.4572902,-7.9394903,-5.575606,2.4239123,0.8368851,-3.7274983,10.00805487,4.524375201,crawl
27/03/2021, 15:28:04,-2.6225464,-8.080796,-5.0822315,2.4239123,0.8368851,-3.7274983,9.899802773,4.524375201,crawl
27/03/2021, 15:28:04,-2.6225464,-8.080796,-5.0822315,2.3420565,0.82588947,-3.5772254,9.899802773,4.35475189,crawl
27/03/2021, 15:28:05,-4.2343946,8.801697,8.224498,2.4898858,0.64263,1.208291,12.76880289,2.841209583,crawl
27/03/2021, 15:28:05,-4.397256,8.416099,7.695198,2.4898858,0.64263,1.208291,12.22221944,2.841209583,crawl
27/03/2021, 15:28:05,-4.397256,8.416099,7.695198,2.4630077,0.6646211,1.1753043,12.22221944,2.808819731,crawl
27/03/2021, 15:28:05,-3.3865578,9.115445,7.0221977,2.4630077,0.6646211,1.1753043,11.99463942,2.808819731,crawl
27/03/2021, 15:28:05,-3.3865578,9.115445,7.0221977,2.18201,0.70860344,1.2058475,11.99463942,2.591785947,crawl
27/03/2021, 15:28:05,-1.1639795,9.901011,6.6126494,2.18201,0.70860344,1.2058475,11.96294316,2.591785947,crawl
27/03/2021, 15:28:05,-1.1639795,9.901011,6.6126494,1.7592913,0.73914665,1.1398741,11.96294316,2.222781272,crawl
27/03/2021, 15:28:05,-0.19160157,9.980047,6.586304,1.7592913,0.73914665,1.1398741,11.95899062,2.222781272,crawl
27/03/2021, 15:28:05,-0.19160157,9.980047,6.586304,1.3927722,0.81000704,1.2205083,11.95899062,2.021278406,crawl
27/03/2021, 15:28:05,-0.4023633,9.929751,6.9862723,1.3927722,0.81000704,1.2205083,12.14783356,2.021278406,crawl
27/03/2021, 15:28:05,-0.4023633,9.929751,6.9862723,0.9920448,1.0213664,1.3487899,12.14783356,1.961269082,crawl
27/03/2021, 15:28:05,-1.5783179,11.60387,6.672525,0.9920448,1.0213664,1.3487899,13.47825969,1.961269082,crawl
27/03/2021, 15:28:05,-1.5783179,11.60387,6.672525,0.35552344,1.1655304,1.266934,13.47825969,1.75783389,crawl
27/03/2021, 15:28:05,-3.9182522,11.395503,5.137317,0.35552344,1.1655304,1.266934,13.09970297,1.75783389,crawl
27/03/2021, 15:28:05,-3.9182522,11.395503,5.137317,-0.31031942,1.067792,1.1777477,13.09970297,1.619743106,crawl
27/03/2021, 15:28:05,-6.365962,9.620794,4.5409575,-0.31031942,1.067792,1.1777477,12.39780021,1.619743106,crawl
27/03/2021, 15:28:05,-6.365962,9.620794,4.5409575,-0.5668827,0.95783633,1.3597856,12.39780021,1.757220312,crawl
27/03/2021, 15:28:05,-6.320457,10.303374,5.127737,-0.5668827,0.95783633,1.3597856,13.13017081,1.757220312,crawl
27/03/2021, 15:28:05,-6.320457,10.303374,5.127737,-0.6511821,1.0238098,1.6236792,13.13017081,2.02695798,crawl
27/03/2021, 15:28:05,-4.5625124,11.534414,4.9552956,-0.6511821,1.0238098,1.6236792,13.35717734,2.02695798,crawl
27/03/2021, 15:28:06,-7.189849,-4.643943,-2.6273365,0.37018418,0.5925391,-2.294409,8.953380888,2.398426924,crawl
27/03/2021, 15:28:06,-7.1299734,-5.7767873,-2.811753,0.37018418,0.5925391,-2.294409,9.597590701,2.398426924,crawl
27/03/2021, 15:28:06,-7.1299734,-5.7767873,-2.811753,0.3420844,0.565661,-2.357939,9.597590701,2.448850848,crawl
27/03/2021, 15:28:06,-7.2593045,-6.423443,-3.2668068,0.3420844,0.565661,-2.357939,10.22888787,2.448850848,crawl
27/03/2021, 15:28:06,-7.2593045,-6.423443,-3.2668068,0.29932386,0.4850268,-2.4385731,10.22888787,2.504293243,crawl
27/03/2021, 15:28:06,-7.053333,-6.456973,-3.5877395,0.29932386,0.4850268,-2.4385731,10.21341664,2.504293243,crawl
27/03/2021, 15:28:06,-7.053333,-6.456973,-3.5877395,0.24434601,0.38973188,-2.5179856,10.21341664,2.559657654,crawl
27/03/2021, 15:28:06,-6.782696,-6.6270194,-3.283572,0.24434601,0.38973188,-2.5179856,10.03514788,2.559657654,crawl
27/03/2021, 15:28:06,-6.782696,-6.6270194,-3.283572,0.14538588,0.33841923,-2.5363116,10.03514788,2.56291656,crawl
27/03/2021, 15:28:06,-6.74198,-6.5479836,-2.936294,0.14538588,0.33841923,-2.5363116,9.846431236,2.56291656,crawl
27/03/2021, 15:28:06,-6.74198,-6.5479836,-2.936294,0.00977384,0.32009327,-2.538755,9.846431236,2.558873166,crawl
27/03/2021, 15:28:06,-6.5288234,-6.871311,-2.792593,0.00977384,0.32009327,-2.538755,9.881246267,2.558873166,crawl
27/03/2021, 15:28:06,-6.5288234,-6.871311,-2.792593,-0.14782934,0.26267195,-2.5717418,9.881246267,2.589344715,crawl
27/03/2021, 15:28:06,-6.782696,-7.4125857,-2.7566676,-0.14782934,0.26267195,-2.5717418,10.41876219,2.589344715,crawl
27/03/2021, 15:28:06,-6.782696,-7.4125857,-2.7566676,-0.23335044,0.16615528,-2.6132805,10.41876219,2.628934225,crawl
27/03/2021, 15:28:06,-6.4018874,-7.3934255,-2.5938063,-0.23335044,0.16615528,-2.6132805,10.11804001,2.628934225,crawl
27/03/2021, 15:28:06,-6.4018874,-7.3934255,-2.5938063,-0.23457217,0.14172068,-2.6584845,10.11804001,2.67257338,crawl
27/03/2021, 15:28:06,-6.854546,-7.561077,-2.3519094,-0.23457217,0.14172068,-2.6584845,10.47311639,2.67257338,crawl
27/03/2021, 15:28:06,-6.854546,-7.561077,-2.3519094,-0.19303334,0.15149452,-2.6768105,10.47311639,2.688034026,crawl
27/03/2021, 15:28:06,-7.2114043,-7.8029737,-2.1770728,-0.19303334,0.15149452,-2.6768105,10.84575481,2.688034026,crawl
27/03/2021, 15:28:07,-1.0035132,3.5063088,6.8976564,7.5331874,0.23823735,0.44593146,7.80249348,7.550134048,crawl
27/03/2021, 15:28:07,0.68737066,6.0091043,7.223379,7.5331874,0.23823735,0.44593146,9.421200479,7.550134048,crawl
27/03/2021, 15:28:07,0.68737066,6.0091043,7.223379,6.6950808,0.15027279,0.42516205,9.421200479,6.710249699,crawl
27/03/2021, 15:28:07,1.2885206,5.216353,6.4330225,6.6950808,0.15027279,0.42516205,8.381789889,6.710249699,crawl
27/03/2021, 15:28:07,1.2885206,5.216353,6.4330225,5.607741,0.06230823,0.29565868,8.381789889,5.615875189,crawl
27/03/2021, 15:28:07,0.50534916,3.6284547,5.49657,5.607741,0.06230823,0.29565868,6.605554038,5.615875189,crawl
27/03/2021, 15:28:07,0.50534916,3.6284547,5.49657,4.5851526,0.109955706,0.53511775,6.605554038,4.617582253,crawl
27/03/2021, 15:28:07,-0.3281177,3.9541774,5.0487013,4.5851526,0.109955706,0.53511775,6.421258806,4.617582253,crawl
27/03/2021, 15:28:07,-0.3281177,3.9541774,5.0487013,3.7042854,0.36041036,0.91141057,6.421258806,3.831748303,crawl
27/03/2021, 15:28:07,0.1580713,4.88584,5.2666483,3.7042854,0.36041036,0.91141057,7.185680391,3.831748303,crawl
27/03/2021, 15:28:07,0.1580713,4.88584,5.2666483,2.7415621,0.67072976,1.1472045,7.185680391,3.046657105,crawl
27/03/2021, 15:28:07,-0.045505375,6.104905,5.4175344,2.7415621,0.67072976,1.1472045,8.162206553,3.046657105,crawl
27/03/2021, 15:28:07,-0.045505375,6.104905,5.4175344,1.70187,0.8368851,1.3243554,8.162206553,2.313148324,crawl
27/03/2021, 15:28:07,-0.65384036,7.6353226,5.206773,1.70187,0.8368851,1.3243554,9.264779599,2.313148324,crawl
27/03/2021, 15:28:07,-0.65384036,7.6353226,5.206773,0.900415,0.81245047,1.4917324,9.264779599,1.922521358,crawl
27/03/2021, 15:28:07,-1.3220508,9.09868,5.6905665,0.900415,0.81245047,1.4917324,10.81278573,1.922521358,crawl
27/03/2021, 15:28:07,-1.3220508,9.09868,5.6905665,0.55588716,0.72692937,1.6395617,10.81278573,1.877657918,crawl
27/03/2021, 15:28:07,-2.1171973,9.278306,5.702542,0.55588716,0.72692937,1.6395617,11.09452432,1.877657918,crawl
27/03/2021, 15:28:07,-2.1171973,9.278306,5.702542,0.34330612,0.6633994,1.7140872,11.09452432,1.869773502,crawl
27/03/2021, 15:28:07,-1.9184108,8.267608,5.999524,0.34330612,0.6633994,1.7140872,10.39364837,1.869773502,crawl
27/03/2021, 15:28:08,-12.593013,-4.5936475,3.5015187,-4.7183213,2.9529214,-3.0934205,13.85446506,6.368009993,crawl
27/03/2021, 15:28:08,-13.208533,-4.8834453,4.145779,-4.7183213,2.9529214,-3.0934205,14.67994802,6.368009993,crawl
27/03/2021, 15:28:08,-13.208533,-4.8834453,4.145779,-4.6682305,3.0787597,-3.0934205,14.67994802,6.390648468,crawl
27/03/2021, 15:28:08,-14.437179,-4.0044727,4.655918,-4.6682305,3.0787597,-3.0934205,15.68902488,6.390648468,crawl
27/03/2021, 15:28:08,-14.437179,-4.0044727,4.655918,-4.7525296,3.099529,-2.932152,15.68902488,6.386793682,crawl
27/03/2021, 15:28:08,-14.726975,-2.1746778,4.5074267,-4.7525296,3.099529,-2.932152,15.55409673,6.386793682,crawl
27/03/2021, 15:28:08,-14.726975,-2.1746778,4.5074267,-4.78796,3.0531034,-2.7036886,15.55409673,6.289350864,crawl
27/03/2021, 15:28:08,-15.335311,-0.8334668,5.4103494,-4.78796,3.0531034,-2.7036886,16.28306816,6.289350864,crawl
27/03/2021, 15:28:08,-15.335311,-0.8334668,5.4103494,-4.6144743,2.9981256,-2.587624,16.28306816,6.08094797,crawl
27/03/2021, 15:28:08,-14.516214,-2.684817,5.894143,-4.6144743,2.9981256,-2.587624,15.89558572,6.08094797,crawl
27/03/2021, 15:28:08,-14.516214,-2.684817,5.894143,-4.1379995,3.117855,-2.411695,15.89558572,5.714921976,crawl
27/03/2021, 15:28:08,-13.51749,-3.791316,6.1935205,-4.1379995,3.117855,-2.411695,15.34458603,5.714921976,crawl
27/03/2021, 15:28:08,-13.51749,-3.791316,6.1935205,-3.5833342,3.3145535,-2.388482,15.34458603,5.434279681,crawl
27/03/2021, 15:28:08,-13.42169,-4.296665,6.1863356,-3.5833342,3.3145535,-2.388482,15.39070634,5.434279681,crawl
27/03/2021, 15:28:08,-13.42169,-4.296665,6.1863356,-3.3353229,3.4477222,-2.2724178,15.39070634,5.308017473,crawl
27/03/2021, 15:28:08,-13.606107,-2.7255323,5.865403,-3.3353229,3.4477222,-2.2724178,15.06511274,5.308017473,crawl
27/03/2021, 15:28:08,-13.606107,-2.7255323,5.865403,-3.3670878,3.285232,-2.3273957,15.06511274,5.248504635,crawl
27/03/2021, 15:28:08,-14.62878,-4.967271,4.4116263,-3.3670878,3.285232,-2.3273957,16.06665621,5.248504635,crawl
27/03/2021, 15:28:08,-14.62878,-4.967271,4.4116263,-3.4636047,3.1874936,-2.1942272,16.06665621,5.193390582,crawl
27/03/2021, 15:28:08,-14.293477,-6.926397,5.398374,-3.4636047,3.1874936,-2.1942272,16.77560438,5.193390582,crawl
27/03/2021, 15:28:09,2.7686427,-11.323653,-0.48139894,4.6486826,-0.5009093,-1.5393798,11.66714401,4.922484159,crawl
27/03/2021, 15:28:09,2.7686427,-11.323653,-0.48139894,5.027419,-0.46670088,-1.3182467,11.66714401,5.218287731,crawl
27/03/2021, 15:28:09,2.663262,-11.02667,-1.6238233,5.027419,-0.46670088,-1.3182467,11.4593729,5.218287731,crawl
27/03/2021, 15:28:09,2.663262,-11.02667,-1.6238233,5.226561,-0.6682863,-1.2693775,11.4593729,5.419858521,crawl
27/03/2021, 15:28:09,2.5027955,-11.050621,-1.1496094,5.226561,-0.6682863,-1.2693775,11.38867034,5.419858521,crawl
27/03/2021, 15:28:09,2.5027955,-11.050621,-1.1496094,5.249774,-0.84543717,-0.92851484,11.38867034,5.397872789,crawl
27/03/2021, 15:28:09,2.2968237,-10.111773,-0.3065625,5.249774,-0.84543717,-0.92851484,10.37387699,5.397872789,crawl
27/03/2021, 15:28:09,2.2968237,-10.111773,-0.3065625,5.175248,-0.75991607,-0.43737936,10.37387699,5.248996714,crawl
27/03/2021, 15:28:09,3.2141163,-8.485555,0.25147706,5.175248,-0.75991607,-0.43737936,9.077357711,5.248996714,crawl
27/03/2021, 15:28:09,3.2141163,-8.485555,0.25147706,5.103166,-0.72326416,-0.18203777,9.077357711,5.157378508,crawl
27/03/2021, 15:28:09,3.420088,-8.909473,1.2645704,5.103166,-0.72326416,-0.18203777,9.626778126,5.157378508,crawl
27/03/2021, 15:28:09,3.420088,-8.909473,1.2645704,4.9834366,-0.75869435,0.11484262,9.626778126,5.04216681,crawl
27/03/2021, 15:28:09,3.3434474,-9.81958,1.9567311,4.9834366,-0.75869435,0.11484262,10.55611625,5.04216681,crawl
27/03/2021, 15:28:09,3.3434474,-9.81958,1.9567311,4.9260154,-0.81000704,0.3494148,10.55611625,5.00438104,crawl
27/03/2021, 15:28:09,3.6691701,-10.602752,2.572251,4.9260154,-0.81000704,0.3494148,11.51076146,5.00438104,crawl
27/03/2021, 15:28:09,3.6691701,-10.602752,2.572251,4.802621,-0.70860344,0.6499604,11.51076146,4.897931681,crawl
27/03/2021, 15:28:09,2.8428884,-11.076965,4.2080493,4.802621,-0.70860344,0.6499604,12.18560027,4.897931681,crawl
27/03/2021, 15:28:09,2.8428884,-11.076965,4.2080493,4.8478246,-0.6976078,0.7354815,12.18560027,4.952675317,crawl
27/03/2021, 15:28:09,3.2596216,-10.947635,4.4355764,4.8478246,-0.6976078,0.7354815,12.25357813,4.952675317,crawl
27/03/2021, 15:28:09,3.2596216,-10.947635,4.4355764,4.7610817,-0.6976078,0.6792819,12.25357813,4.859627502,crawl
27/03/2021, 15:28:10,-8.751402,5.142107,4.0667434,-3.2461367,2.7183492,-1.6774353,10.93465598,4.554186518,crawl
27/03/2021, 15:28:10,-8.753797,4.6128078,3.6811452,-3.2461367,2.7183492,-1.6774353,10.55735667,4.554186518,crawl
27/03/2021, 15:28:10,-8.753797,4.6128078,3.6811452,-3.5808907,2.7586663,-1.6664398,10.55735667,4.817679839,crawl
27/03/2021, 15:28:10,-8.655601,4.3206153,3.4248781,-3.5808907,2.7586663,-1.6664398,10.26240359,4.817679839,crawl
27/03/2021, 15:28:10,-8.655601,4.3206153,3.4248781,-3.8802145,2.8246398,-1.6872091,10.26240359,5.087369539,crawl
27/03/2021, 15:28:10,-8.686736,3.5973196,4.2439747,-3.8802145,2.8246398,-1.6872091,10.3155908,5.087369539,crawl
27/03/2021, 15:28:10,-8.686736,3.5973196,4.2439747,-4.159991,2.9358172,-1.606575,10.3155908,5.339066351,crawl
27/03/2021, 15:28:10,-9.520203,3.8272414,5.2091675,-4.159991,2.9358172,-1.606575,11.50727861,5.339066351,crawl
27/03/2021, 15:28:10,-9.520203,3.8272414,5.2091675,-4.431215,2.977356,-1.4330894,11.50727861,5.527572554,crawl
27/03/2021, 15:28:10,-10.169253,4.406836,5.352869,-4.431215,2.977356,-1.4330894,12.30801058,5.527572554,crawl
27/03/2021, 15:28:10,-10.169253,4.406836,5.352869,-4.7378693,2.9846864,-1.4135417,12.30801058,5.775279904,crawl
27/03/2021, 15:28:10,-10.310559,3.8464015,5.4989653,-4.7378693,2.9846864,-1.4135417,12.30207526,5.775279904,crawl
27/03/2021, 15:28:10,-10.310559,3.8464015,5.4989653,-5.2338915,3.0103428,-1.4514153,12.30207526,6.209862355,crawl
27/03/2021, 15:28:10,-10.92608,2.5267458,5.4750147,-5.2338915,3.0103428,-1.4514153,12.47956124,6.209862355,crawl
27/03/2021, 15:28:10,-10.92608,2.5267458,5.4750147,-5.7042575,3.0152297,-1.3866636,12.47956124,6.599469635,crawl
27/03/2021, 15:28:10,-10.801538,1.9208057,5.5061502,-5.7042575,3.0152297,-1.3866636,12.27519524,6.599469635,crawl
27/03/2021, 15:28:10,-10.801538,1.9208057,5.5061502,-5.8948474,2.9785779,-1.2315038,12.27519524,6.718463629,crawl
27/03/2021, 15:28:10,-10.847044,1.9208057,5.7863674,-5.8948474,2.9785779,-1.2315038,12.44306657,6.718463629,crawl
27/03/2021, 15:28:10,-10.847044,1.9208057,5.7863674,-5.6724925,2.9431477,-1.0360271,12.44306657,6.473997332,crawl
27/03/2021, 15:28:10,-10.018367,1.4920973,6.447393,-5.6724925,2.9431477,-1.0360271,12.00678573,6.473997332,crawl
27/03/2021, 15:28:11,-4.3014555,-5.9635987,-6.8665214,0.14416414,-0.74647707,-3.7665937,10.06062348,3.842556359,crawl
27/03/2021, 15:28:11,-4.88584,-6.9886675,-6.0450296,0.14416414,-0.74647707,-3.7665937,10.45252546,3.842556359,crawl
27/03/2021, 15:28:11,-4.88584,-6.9886675,-6.0450296,0.12705992,-0.7342597,-3.8350105,10.45252546,3.906736147,crawl
27/03/2021, 15:28:11,-4.5625124,-7.537127,-5.740862,0.12705992,-0.7342597,-3.8350105,10.51581182,3.906736147,crawl
27/03/2021, 15:28:11,-4.5625124,-7.537127,-5.740862,0.15027279,-0.70738167,-3.828902,10.51581182,3.896596118,crawl
27/03/2021, 15:28:11,-4.734954,-7.702383,-4.9720607,0.15027279,-0.70738167,-3.828902,10.31832739,3.896596118,crawl
27/03/2021, 15:28:11,-4.734954,-7.702383,-4.9720607,0.25778502,-0.6951644,-3.8398974,10.31832739,3.910820711,crawl
27/03/2021, 15:28:11,-4.485872,-7.537127,-4.5313773,0.25778502,-0.6951644,-3.8398974,9.872421678,3.910820711,crawl
27/03/2021, 15:28:11,-4.485872,-7.537127,-4.5313773,0.44715318,-0.63285613,-3.8435626,9.872421678,3.920896113,crawl
27/03/2021, 15:28:11,-4.5960426,-7.7143583,-3.9565725,0.44715318,-0.63285613,-3.8435626,9.812716165,3.920896113,crawl
27/03/2021, 15:28:11,-4.5960426,-7.7143583,-3.9565725,0.7318163,-0.49846584,-3.8484495,9.812716165,3.948998175,crawl
27/03/2021, 15:28:11,-3.9326222,-7.9227247,-3.8607717,0.7318163,-0.49846584,-3.8484495,9.650939962,3.948998175,crawl
27/03/2021, 15:28:11,-3.9326222,-7.9227247,-3.8607717,1.0042621,-0.2968804,-3.8863232,9.650939962,4.024945768,crawl
27/03/2021, 15:28:11,-4.164939,-8.423284,-4.495452,1.0042621,-0.2968804,-3.8863232,10.41669384,4.024945768,crawl
27/03/2021, 15:28:11,-4.164939,-8.423284,-4.495452,1.235169,-0.15393798,-3.8227932,10.41669384,4.020334276,crawl
27/03/2021, 15:28:11,-4.2080493,-8.059241,-4.5385623,1.235169,-0.15393798,-3.8227932,10.16157453,4.020334276,crawl
27/03/2021, 15:28:11,-4.2080493,-8.059241,-4.5385623,1.4917324,-0.20891583,-3.82768,10.16157453,4.113398387,crawl
27/03/2021, 15:28:11,-3.6068995,-8.121511,-5.242698,1.4917324,-0.20891583,-3.82768,10.31768175,4.113398387,crawl
27/03/2021, 15:28:11,-3.6068995,-8.121511,-5.242698,1.5735883,-0.31031942,-3.8264585,10.31768175,4.149007403,crawl
27/03/2021, 15:28:11,-3.537444,-8.368198,-5.5636306,1.5735883,-0.31031942,-3.8264585,10.65336757,4.149007403,crawl
27/03/2021, 15:28:12,-2.9794044,6.8737063,4.615203,2.158797,1.1215482,1.2803731,8.799135615,2.749114435,crawl
27/03/2021, 15:28:12,-3.2189064,7.082073,5.9468336,2.158797,1.1215482,1.2803731,9.791932873,2.749114435,crawl
27/03/2021, 15:28:12,-3.2189064,7.082073,5.9468336,2.3273957,1.3671159,1.3292422,9.791932873,3.008764083,crawl
27/03/2021, 15:28:12,-3.2260914,7.527547,6.8186207,2.3273957,1.3671159,1.3292422,10.65669816,3.008764083,crawl
27/03/2021, 15:28:12,-3.2260914,7.527547,6.8186207,2.3322825,1.6187923,1.3206902,10.65669816,3.131174355,crawl
27/03/2021, 15:28:12,-3.9278321,8.035291,7.2736745,2.3322825,1.6187923,1.3206902,11.52823068,3.131174355,crawl
27/03/2021, 15:28:12,-3.9278321,8.035291,7.2736745,2.158797,1.7482957,1.3048077,11.52823068,3.069114753,crawl
27/03/2021, 15:28:12,-4.641548,8.226892,7.0341725,2.158797,1.7482957,1.3048077,11.77732195,3.069114753,crawl
27/03/2021, 15:28:12,-4.641548,8.226892,7.0341725,1.9388856,1.7226393,1.3952156,11.77732195,2.945061993,crawl
27/03/2021, 15:28:12,-3.9302273,8.614885,6.6365995,1.9388856,1.7226393,1.3952156,11.56319113,2.945061993,crawl
27/03/2021, 15:28:12,-3.9302273,8.614885,6.6365995,1.5796969,1.6847657,1.5015062,11.56319113,2.754704816,crawl
27/03/2021, 15:28:12,-3.415298,8.351434,6.725215,1.5796969,1.6847657,1.5015062,11.25340936,2.754704816,crawl
27/03/2021, 15:28:12,-3.415298,8.351434,6.725215,1.2559384,1.63834,1.6187923,11.25340936,2.623361914,crawl
27/03/2021, 15:28:12,-3.0967603,6.8832865,6.715635,1.2559384,1.63834,1.6187923,10.10293561,2.623361914,crawl
27/03/2021, 15:28:12,-3.0967603,6.8832865,6.715635,1.1569784,1.569923,1.7177525,10.10293561,2.598832586,crawl
27/03/2021, 15:28:12,-3.4440382,6.488108,7.7478886,1.1569784,1.569923,1.7177525,10.6764565,2.598832586,crawl
27/03/2021, 15:28:12,-3.4440382,6.488108,7.7478886,1.2205083,1.5992446,1.8399254,10.6764565,2.726270233,crawl
27/03/2021, 15:28:12,-2.8883936,7.7430983,8.0017605,1.2205083,1.5992446,1.8399254,11.50332818,2.726270233,crawl
27/03/2021, 15:28:12,-2.8883936,7.7430983,8.0017605,1.1777477,1.6432269,1.896125,11.50332818,2.771745675,crawl
27/03/2021, 15:28:12,-2.318379,8.933423,6.854546,1.1777477,1.6432269,1.896125,11.4963355,2.771745675,crawl
27/03/2021, 15:28:13,-7.795789,2.311194,0.52690434,0.64018655,0.0488692,1.6933178,8.148224843,1.810953365,crawl
27/03/2021, 15:28:13,-7.795789,2.311194,0.52690434,0.8491024,0.025656331,1.8411472,8.148224843,2.02767257,crawl
27/03/2021, 15:28:13,-7.34313,2.318379,0.96758795,0.8491024,0.025656331,1.8411472,7.760970759,2.02767257,crawl
27/03/2021, 15:28:13,-7.34313,2.318379,0.96758795,1.2693775,-0.029321522,1.9120075,7.760970759,2.295201822,crawl
27/03/2021, 15:28:13,-7.34313,2.318379,0.96758795,1.8606949,-0.01710422,1.8936815,7.760970759,2.654902584,crawl
27/03/2021, 15:28:13,-7.101233,2.3806496,1.7172291,1.8606949,-0.01710422,1.8936815,7.68400146,2.654902584,crawl
27/03/2021, 15:28:13,-7.1227884,2.1507277,1.7771046,1.8606949,-0.01710422,1.8936815,7.64969579,2.654902584,crawl
27/03/2021, 15:28:13,-7.1227884,2.1507277,1.7771046,2.3787084,0.06841688,1.8387036,7.64969579,3.007285386,crawl
27/03/2021, 15:28:13,-7.462881,1.8633252,1.7124391,2.3787084,0.06841688,1.8387036,7.880293308,3.007285386,crawl
27/03/2021, 15:28:13,-7.462881,1.8633252,1.7124391,2.8295267,0.20158546,1.7898345,7.880293308,3.354156432,crawl
27/03/2021, 15:28:13,-7.8365045,1.9830762,1.6214283,2.8295267,0.20158546,1.7898345,8.24453898,3.354156432,crawl
27/03/2021, 15:28:13,-7.8365045,1.9830762,1.6214283,3.2143717,0.2809979,1.7128655,8.24453898,3.65308818,crawl
27/03/2021, 15:28:13,-8.404124,1.9160157,0.88376224,3.2143717,0.2809979,1.7128655,8.664955661,3.65308818,crawl
27/03/2021, 15:28:13,-8.404124,1.9160157,0.88376224,3.4293962,0.2809979,1.601688,8.664955661,3.795408058,crawl
27/03/2021, 15:28:13,-8.576566,2.2561085,-0.038320314,3.4293962,0.2809979,1.601688,8.86842568,3.795408058,crawl
27/03/2021, 15:28:13,-8.576566,2.2561085,-0.038320314,3.5369084,0.24556774,1.5063931,8.86842568,3.852174004,crawl
27/03/2021, 15:28:13,-8.576566,2.6225464,-0.6179151,3.5369084,0.24556774,1.5063931,8.989830299,3.852174004,crawl
27/03/2021, 15:28:13,-8.576566,2.6225464,-0.6179151,3.5356867,0.2076941,1.4098765,8.989830299,3.812081997,crawl
27/03/2021, 15:28:13,-8.399334,2.8404932,-1.1639795,3.5356867,0.2076941,1.4098765,8.942709927,3.812081997,crawl
27/03/2021, 15:28:13,-8.399334,2.8404932,-1.1639795,3.3267708,0.16859874,1.3720028,8.942709927,3.602529829,crawl
27/03/2021, 15:28:14,-12.413386,0.78556645,1.3675562,-3.3047798,-2.140471,1.4049895,12.51317247,4.180571824,crawl
27/03/2021, 15:28:14,-12.413386,0.78556645,1.3675562,-3.2803452,-2.3237305,1.1643087,12.51317247,4.185212373,crawl
27/03/2021, 15:28:14,-12.434942,0.07903565,1.343606,-3.2803452,-2.3237305,1.1643087,12.5075702,4.185212373,crawl
27/03/2021, 15:28:14,-12.434942,0.07903565,1.343606,-3.2094848,-2.461786,1.0299184,12.5075702,4.173956783,crawl
27/03/2021, 15:28:14,-12.324771,-0.1341211,1.6908839,-3.2094848,-2.461786,1.0299184,12.4409427,4.173956783,crawl
27/03/2021, 15:28:14,-12.324771,-0.1341211,1.6908839,-3.0017908,-2.533868,0.99082303,12.4409427,4.051291828,crawl
27/03/2021, 15:28:14,-11.766731,0.06227051,1.8824854,-3.0017908,-2.533868,0.99082303,11.91652606,4.051291828,crawl
27/03/2021, 15:28:14,-11.766731,0.06227051,1.8824854,-2.7281232,-2.5436418,0.9077454,11.91652606,3.838850285,crawl
27/03/2021, 15:28:14,-11.201507,0.4143384,2.1674929,-2.7281232,-2.5436418,0.9077454,11.41680569,3.838850285,crawl
27/03/2021, 15:28:14,-11.201507,0.4143384,2.1674929,-2.4019213,-2.5558593,0.82466775,11.41680569,3.603015348,crawl
27/03/2021, 15:28:14,-10.897339,0.847837,2.6656568,-2.4019213,-2.5558593,0.82466775,11.25062434,3.603015348,crawl
27/03/2021, 15:28:14,-10.897339,0.847837,2.6656568,-2.2027793,-2.5607462,0.7867941,11.25062434,3.468242015,crawl
27/03/2021, 15:28:14,-10.298584,1.2070899,2.7375073,-2.2027793,-2.5607462,0.7867941,10.72435754,3.468242015,crawl
27/03/2021, 15:28:14,-10.298584,1.2070899,2.7375073,-2.1612403,-2.4947727,0.75869435,10.72435754,3.386807879,crawl
27/03/2021, 15:28:14,-9.764495,1.4920973,3.0919704,-2.1612403,-2.4947727,0.75869435,10.35045874,3.386807879,crawl
27/03/2021, 15:28:14,-9.764495,1.4920973,3.0919704,-2.199114,-2.366491,0.69394267,10.35045874,3.304230502,crawl
27/03/2021, 15:28:14,-9.644744,1.4370118,3.300337,-2.199114,-2.366491,0.69394267,10.29457688,3.304230502,crawl
27/03/2021, 15:28:14,-9.644744,1.4370118,3.300337,-2.2663093,-2.2296574,0.6157519,10.29457688,3.238314418,crawl
27/03/2021, 15:28:14,-10.0063925,0.95561284,3.6380348,-2.2663093,-2.2296574,0.6157519,10.69001327,3.238314418,crawl
27/03/2021, 15:28:14,-10.0063925,0.95561284,3.6380348,-2.3151784,-2.0928235,0.53878295,10.69001327,3.167056724,crawl
27/03/2021, 15:28:15,-1.1304493,-7.838899,-0.38559815,-0.886976,0.5497785,0.123394735,7.929372056,1.050813549,crawl
27/03/2021, 15:28:15,-0.68018556,-8.011341,-0.10777588,-0.886976,0.5497785,0.123394735,8.040886405,1.050813549,crawl
27/03/2021, 15:28:15,-0.68018556,-8.011341,-0.10777588,-0.94195384,0.5742131,0.2638937,8.040886405,1.134300482,crawl
27/03/2021, 15:28:15,-0.6514453,-8.174202,-0.25387207,-0.94195384,0.5742131,0.2638937,8.20404838,1.134300482,crawl
27/03/2021, 15:28:15,-0.6514453,-8.174202,-0.25387207,-0.9309583,0.57176965,0.443488,8.20404838,1.179103663,crawl
27/03/2021, 15:28:15,-0.66342044,-7.9826,-0.3424878,-0.9309583,0.57176965,0.443488,8.017439163,1.179103663,crawl
27/03/2021, 15:28:15,-0.66342044,-7.9826,-0.3424878,-0.8295547,0.56932616,0.6352996,8.017439163,1.189915481,crawl
27/03/2021, 15:28:15,-0.76880133,-7.7311234,-0.14130616,-0.8295547,0.56932616,0.6352996,7.770540051,1.189915481,crawl
27/03/2021, 15:28:15,-0.76880133,-7.7311234,-0.14130616,-0.701273,0.60475636,0.77946377,7.770540051,1.210404011,crawl
27/03/2021, 15:28:15,-1.092129,-7.585027,-0.42870852,-0.701273,0.60475636,0.77946377,7.675231243,1.210404011,crawl
27/03/2021, 15:28:15,-1.092129,-7.585027,-0.42870852,-0.60353464,0.5925391,0.89674985,7.675231243,1.232686867,crawl
27/03/2021, 15:28:15,-1.8082398,-7.695198,-0.6322852,-0.60353464,0.5925391,0.89674985,7.93004344,1.232686867,crawl
27/03/2021, 15:28:15,-1.8082398,-7.695198,-0.6322852,-0.55588716,0.50213104,1.0616834,7.93004344,1.299352839,crawl
27/03/2021, 15:28:15,-2.2201831,-7.8532696,-0.96758795,-0.55588716,0.50213104,1.0616834,8.21822868,1.299352839,crawl
27/03/2021, 15:28:15,-2.2201831,-7.8532696,-0.96758795,-0.55588716,0.39339706,1.2559384,8.21822868,1.428689287,crawl
27/03/2021, 15:28:15,-2.4045997,-7.8915896,-0.85741705,-0.55588716,0.39339706,1.2559384,8.294242016,1.428689287,crawl
27/03/2021, 15:28:15,-2.4045997,-7.8915896,-0.85741705,-0.5485568,0.3127629,1.4196503,8.294242016,1.553751013,crawl
27/03/2021, 15:28:15,-2.3327491,-7.8724294,-0.58677983,-0.5485568,0.3127629,1.4196503,8.231717516,1.553751013,crawl
27/03/2021, 15:28:15,-2.3327491,-7.8724294,-0.58677983,-0.5277874,0.25411984,1.5259408,8.231717516,1.634512671,crawl
27/03/2021, 15:28:15,-2.0573218,-8.157437,-0.46463382,-0.5277874,0.25411984,1.5259408,8.425689362,1.634512671,crawl
27/03/2021, 15:28:16,-9.134604,0.613125,-1.1472144,-0.1588249,0.080634184,0.5412264,9.226755754,0.569783489,crawl
27/03/2021, 15:28:16,-9.14179,0.60354495,-1.0849439,-0.1588249,0.080634184,0.5412264,9.225708715,0.569783489,crawl
27/03/2021, 15:28:16,-9.14179,0.60354495,-1.0849439,-0.34697133,0.05375612,0.5729914,9.225708715,0.67201037,crawl
27/03/2021, 15:28:16,-9.16095,0.64186525,-0.9915381,-0.34697133,0.05375612,0.5729914,9.236781818,0.67201037,crawl
27/03/2021, 15:28:16,-9.16095,0.64186525,-0.9915381,-0.5045745,0.018325951,0.5962043,9.236781818,0.781275104,crawl
27/03/2021, 15:28:16,-9.249566,0.5460645,-0.9651929,-0.5045745,0.018325951,0.5962043,9.315806805,0.781275104,crawl
27/03/2021, 15:28:16,-9.249566,0.5460645,-0.9651929,-0.63896483,-0.01588249,0.629191,9.315806805,0.896888845,crawl
27/03/2021, 15:28:16,-9.316627,0.364043,-0.87897223,-0.63896483,-0.01588249,0.629191,9.365076067,0.896888845,crawl
27/03/2021, 15:28:16,-9.316627,0.364043,-0.87897223,-0.72204244,-0.047647472,0.67317325,9.365076067,0.988320693,crawl
27/03/2021, 15:28:16,-9.407638,0.17723145,-0.80712163,-0.72204244,-0.047647472,0.67317325,9.443860517,0.988320693,crawl
27/03/2021, 15:28:16,-9.407638,0.17723145,-0.80712163,-0.7538074,-0.06963861,0.70738167,9.443860517,1.036081074,crawl
27/03/2021, 15:28:16,-9.402847,0.06706055,-0.7424561,-0.7538074,-0.06963861,0.70738167,9.432352586,1.036081074,crawl
27/03/2021, 15:28:16,-9.402847,0.06706055,-0.7424561,-0.7525857,-0.080634184,0.72448593,9.432352586,1.047743761,crawl
27/03/2021, 15:28:16,-9.398057,0.10777588,-0.79035646,-0.7525857,-0.080634184,0.72448593,9.431847859,1.047743761,crawl
27/03/2021, 15:28:16,-9.398057,0.10777588,-0.79035646,-0.74159014,-0.0855211,0.73914665,9.431847859,1.050527281,crawl
27/03/2021, 15:28:16,-9.362132,0.19160157,-0.7831714,-0.74159014,-0.0855211,0.73914665,9.396785917,1.050527281,crawl
27/03/2021, 15:28:16,-9.362132,0.19160157,-0.7831714,-0.73792493,-0.0977384,0.7476988,9.396785917,1.055054252,crawl
27/03/2021, 15:28:16,-9.316627,0.366438,-0.9244776,-0.73792493,-0.0977384,0.7476988,9.369549928,1.055054252,crawl
27/03/2021, 15:28:16,-9.316627,0.366438,-0.9244776,-0.75502914,-0.11484262,0.73792493,9.369549928,1.061975066,crawl
27/03/2021, 15:28:16,-9.326206,0.37601808,-1.0394385,-0.75502914,-0.11484262,0.73792493,9.391482534,1.061975066,crawl
27/03/2021, 15:28:17,-10.7799835,0.8885523,1.6453785,-1.8704686,-0.8527676,0.058643043,10.94097072,2.056527269,crawl
27/03/2021, 15:28:17,-10.7799835,0.8885523,1.6453785,-1.7788389,-0.9065237,0.03420844,10.94097072,1.99680324,crawl
27/03/2021, 15:28:17,-10.289004,0.7544312,1.9279908,-1.7788389,-0.9065237,0.03420844,10.49523344,1.99680324,crawl
27/03/2021, 15:28:17,-10.289004,0.7544312,1.9279908,-1.6835439,-0.91141057,0.01710422,10.49523344,1.9144926,crawl
27/03/2021, 15:28:17,-9.83874,0.7568262,2.1507277,-1.6835439,-0.91141057,0.01710422,10.09946669,1.9144926,crawl
27/03/2021, 15:28:17,-9.83874,0.7568262,2.1507277,-1.6053532,-0.9211844,-0.0122173,10.09946669,1.850915723,crawl
27/03/2021, 15:28:17,-9.532178,0.8885523,2.2225783,-1.6053532,-0.9211844,-0.0122173,9.828112507,1.850915723,crawl
27/03/2021, 15:28:17,-9.532178,0.8885523,2.2225783,-1.5393798,-0.92729306,-0.03909536,9.828112507,1.797523615,crawl
27/03/2021, 15:28:17,-9.275911,0.86939216,2.3782544,-1.5393798,-0.92729306,-0.03909536,9.615324633,1.797523615,crawl
27/03/2021, 15:28:17,-9.275911,0.86939216,2.3782544,-1.4734064,-0.9162975,-0.05742131,9.615324633,1.736037104,crawl
27/03/2021, 15:28:17,-9.072334,0.859812,2.6081765,-1.4734064,-0.9162975,-0.05742131,9.478877079,1.736037104,crawl
27/03/2021, 15:28:17,-9.072334,0.859812,2.6081765,-1.4147633,-0.8845325,-0.08674283,9.478877079,1.670771488,crawl
27/03/2021, 15:28:17,-9.026829,0.91729254,2.6560767,-1.4147633,-0.8845325,-0.08674283,9.454089403,1.670771488,crawl
27/03/2021, 15:28:17,-9.026829,0.91729254,2.6560767,-1.330464,-0.86865,-0.11239916,9.454089403,1.592897014,crawl
27/03/2021, 15:28:17,-9.074729,0.99393314,2.6417067,-1.330464,-0.86865,-0.11239916,9.503537405,1.592897014,crawl
27/03/2021, 15:28:17,-9.074729,0.99393314,2.6417067,-1.2571602,-0.89308465,-0.14172068,9.503537405,1.548591835,crawl
27/03/2021, 15:28:17,-8.993299,0.97237796,2.6464968,-1.2571602,-0.89308465,-0.14172068,9.42490756,1.548591835,crawl
27/03/2021, 15:28:17,-8.993299,0.97237796,2.6464968,-1.194852,-0.91141057,-0.16126837,9.42490756,1.511405969,crawl
27/03/2021, 15:28:17,-8.816068,1.0154883,2.7614577,-1.194852,-0.91141057,-0.16126837,9.294079544,1.511405969,crawl
27/03/2021, 15:28:17,-8.816068,1.0154883,2.7614577,-1.1362089,-0.88941944,-0.15515971,9.294079544,1.451245023,crawl
27/03/2021, 15:28:18,-6.0665846,-5.9396486,-1.104104,0.17837258,-0.010995571,0.2797762,8.561654053,0.331982519,crawl
27/03/2021, 15:28:18,-6.4330225,-5.8127127,-0.92208254,0.17837258,-0.010995571,0.2797762,8.719039125,0.331982519,crawl
27/03/2021, 15:28:18,-6.4330225,-5.8127127,-0.92208254,0.2797762,-0.00855211,0.3750711,8.719039125,0.468002339,crawl
27/03/2021, 15:28:18,-6.7300053,-5.968389,-0.83586186,0.2797762,-0.00855211,0.3750711,9.034008168,0.468002339,crawl
27/03/2021, 15:28:18,-6.7300053,-5.968389,-0.83586186,0.36896247,-0.0244346,0.47280952,9.034008168,0.600232619,crawl
27/03/2021, 15:28:18,-6.959927,-6.0354495,-0.7544312,0.36896247,-0.0244346,0.47280952,9.243181386,0.600232619,crawl
27/03/2021, 15:28:18,-6.959927,-6.0354495,-0.7544312,0.45448357,-0.047647472,0.5803218,9.243181386,0.738646718,crawl
27/03/2021, 15:28:18,-7.1563187,-5.944439,-0.42870852,0.45448357,-0.047647472,0.5803218,9.313057611,0.738646718,crawl
27/03/2021, 15:28:18,-7.1563187,-5.944439,-0.42870852,0.5668827,-0.06352996,0.6914992,9.313057611,0.896416863,crawl
27/03/2021, 15:28:18,-7.2616997,-5.958809,-0.2083667,0.5668827,-0.06352996,0.6914992,9.39590881,0.896416863,crawl
27/03/2021, 15:28:18,-7.2616997,-5.958809,-0.2083667,0.6646211,-0.06475169,0.7892376,9.39590881,1.033832688,crawl
27/03/2021, 15:28:18,-7.3838453,-6.0426345,0.026345216,0.6646211,-0.06475169,0.7892376,9.541241925,1.033832688,crawl
27/03/2021, 15:28:18,-7.3838453,-6.0426345,0.026345216,0.7525857,-0.05986477,0.88086736,9.541241925,1.16012773,crawl
27/03/2021, 15:28:18,-7.6233473,-6.09293,0.27303225,0.7525857,-0.05986477,0.88086736,9.762876852,1.16012773,crawl
27/03/2021, 15:28:18,-7.6233473,-6.09293,0.27303225,0.83199817,-0.06841688,0.96638846,9.762876852,1.277031122,crawl
27/03/2021, 15:28:18,-7.838899,-6.1935205,0.4382886,0.83199817,-0.06841688,0.96638846,10.00000667,1.277031122,crawl
27/03/2021, 15:28:18,-7.838899,-6.1935205,0.4382886,0.87964565,-0.07819072,1.0433575,10.00000667,1.366925421,crawl
27/03/2021, 15:28:18,-8.071217,-6.212681,0.5939649,0.87964565,-0.07819072,1.0433575,10.2026827,1.366925421,crawl
27/03/2021, 15:28:18,-8.071217,-6.212681,0.5939649,0.89308465,-0.08674283,1.1093309,10.2026827,1.426793444,crawl
27/03/2021, 15:28:18,-8.3179035,-6.1719656,0.81909674,0.89308465,-0.08674283,1.1093309,10.38997583,1.426793444,crawl
27/03/2021, 15:28:19,-10.039923,-7.158714,-4.045188,-2.9749126,-2.5314245,-0.06597342,12.9773178,3.906733654,crawl
27/03/2021, 15:28:19,-10.039923,-7.158714,-4.045188,-2.8649569,-2.773327,-0.109955706,12.9773178,3.988911044,crawl
27/03/2021, 15:28:19,-10.262659,-7.6377177,-4.157754,-2.8649569,-2.773327,-0.109955706,13.45153601,3.988911044,crawl
27/03/2021, 15:28:19,-10.262659,-7.6377177,-4.157754,-2.5827372,-2.9028306,-0.10506878,13.45153601,3.88690062,crawl
27/03/2021, 15:28:19,-9.414823,-7.7598634,-3.9350173,-2.5827372,-2.9028306,-0.10506878,12.81946666,3.88690062,crawl
27/03/2021, 15:28:19,-9.414823,-7.7598634,-3.9350173,-2.172236,-3.0921986,-0.27855444,12.81946666,3.789181166,crawl
27/03/2021, 15:28:19,-9.359736,-8.3250885,-4.2152348,-2.172236,-3.0921986,-0.27855444,13.21665498,3.789181166,crawl
27/03/2021, 15:28:19,-9.359736,-8.3250885,-4.2152348,-1.8142691,-3.1300724,-0.2968804,13.21665498,3.630022474,crawl
27/03/2021, 15:28:19,-9.192085,-8.2197075,-3.9134622,-1.8142691,-3.1300724,-0.2968804,12.93727981,3.630022474,crawl
27/03/2021, 15:28:19,-9.192085,-8.2197075,-3.9134622,-1.497841,-3.076316,-0.27488926,12.93727981,3.432610177,crawl
27/03/2021, 15:28:19,-8.47837,-7.800579,-3.9206471,-1.497841,-3.076316,-0.27488926,12.16976832,3.432610177,crawl
27/03/2021, 15:28:19,-8.47837,-7.800579,-3.9206471,-1.2559384,-3.035999,-0.3127629,12.16976832,3.300377585,crawl
27/03/2021, 15:28:19,-8.447234,-7.565867,-4.28948,-1.2559384,-3.035999,-0.3127629,12.12426278,3.300377585,crawl
27/03/2021, 15:28:19,-8.447234,-7.565867,-4.28948,-1.1533132,-3.1129682,-0.2638937,12.12426278,3.330216537,crawl
27/03/2021, 15:28:19,-8.487949,-7.053333,-4.287085,-1.1533132,-3.1129682,-0.2638937,11.83950533,3.330216537,crawl
27/03/2021, 15:28:19,-8.487949,-7.053333,-4.287085,-1.1081091,-3.27668,-0.20525065,11.83950533,3.465063552,crawl
27/03/2021, 15:28:19,-8.210127,-6.67013,-4.174519,-1.1081091,-3.27668,-0.20525065,11.37204572,3.465063552,crawl
27/03/2021, 15:28:19,-8.210127,-6.67013,-4.174519,-1.1068875,-3.3829703,-0.21991141,11.37204572,3.566237394,crawl
27/03/2021, 15:28:19,-7.8580594,-6.69408,-3.65959,-1.1068875,-3.3829703,-0.21991141,10.95227839,3.566237394,crawl
27/03/2021, 15:28:19,-7.8580594,-6.69408,-3.65959,-1.1068875,-3.370753,-0.22479832,10.95227839,3.554955732,crawl
27/03/2021, 15:28:20,-8.763377,7.7598634,7.8868,-0.63774306,0.32742363,2.968804,14.11431439,3.054131453,crawl
27/03/2021, 15:28:20,-8.722662,6.4138627,8.049661,-0.63774306,0.32742363,2.968804,13.4914604,3.054131453,crawl
27/03/2021, 15:28:20,-8.722662,6.4138627,8.049661,-1.3866636,0.13439031,3.1251855,13.4914604,3.42164886,crawl
27/03/2021, 15:28:20,-7.4125857,5.5468655,7.999366,-1.3866636,0.13439031,3.1251855,12.23535848,3.42164886,crawl
27/03/2021, 15:28:20,-7.4125857,5.5468655,7.999366,-2.1685708,0.08185591,3.1569505,12.23535848,3.8308923,crawl
27/03/2021, 15:28:20,-7.4030056,5.1061816,6.8042507,-2.1685708,0.08185591,3.1569505,11.27720757,3.8308923,crawl
27/03/2021, 15:28:20,-7.4030056,5.1061816,6.8042507,-2.7940965,-0.087964565,3.2913406,11.27720757,4.318290834,crawl
27/03/2021, 15:28:20,-7.472461,4.9792457,6.191126,-2.7940965,-0.087964565,3.2913406,10.90690624,4.318290834,crawl
27/03/2021, 15:28:20,-7.472461,4.9792457,6.191126,-3.3341012,-0.21991141,3.1031942,10.90690624,4.560088411,crawl
27/03/2021, 15:28:20,-6.945557,4.5960426,5.455855,-3.3341012,-0.21991141,3.1031942,9.956441341,4.560088411,crawl
27/03/2021, 15:28:20,-6.945557,4.5960426,5.455855,-3.973066,-0.27733272,2.9614735,9.956441341,4.963113206,crawl
27/03/2021, 15:28:20,-7.2760696,4.2248144,4.9409256,-3.973066,-0.27733272,2.9614735,9.757202059,4.963113206,crawl
27/03/2021, 15:28:20,-7.2760696,4.2248144,4.9409256,-4.285829,-0.38973188,2.86007,9.757202059,5.167225763,crawl
27/03/2021, 15:28:20,-7.1275783,3.652405,5.4989653,-4.285829,-0.38973188,2.86007,9.714991161,5.167225763,crawl
27/03/2021, 15:28:20,-7.1275783,3.652405,5.4989653,-4.4458756,-0.45570529,2.6963582,9.714991161,5.219561775,crawl
27/03/2021, 15:28:20,-7.4892263,2.8931837,5.252278,-4.4458756,-0.45570529,2.6963582,9.594031779,5.219561775,crawl
27/03/2021, 15:28:20,-7.4892263,2.8931837,5.252278,-4.5008535,-0.47769645,2.493551,9.594031779,5.167559689,crawl
27/03/2021, 15:28:20,-8.217313,3.6236646,4.5744877,-4.5008535,-0.47769645,2.493551,10.07874559,5.167559689,crawl
27/03/2021, 15:28:20,-8.217313,3.6236646,4.5744877,-4.1245604,-0.5497785,2.4642293,10.07874559,4.835977752,crawl
27/03/2021, 15:28:20,-7.9778104,4.009263,4.174519,-4.1245604,-0.5497785,2.4642293,9.856280131,4.835977752,crawl
27/03/2021, 15:28:21,-4.912185,-2.7782228,8.167017,-1.8631383,0.3139846,-0.92851484,9.927147208,2.105234079,crawl
27/03/2021, 15:28:21,-4.912185,-2.7782228,8.167017,-1.742187,0.32253674,-0.9224062,9.927147208,1.997518151,crawl
27/03/2021, 15:28:21,-4.775669,-3.276387,8.083191,-1.742187,0.32253674,-0.9224062,9.94382735,1.997518151,crawl
27/03/2021, 15:28:21,-4.775669,-3.276387,8.083191,-1.5454885,0.33597577,-0.94684076,9.94382735,1.843345268,crawl
27/03/2021, 15:28:21,-4.727769,-3.8583767,8.260423,-1.5454885,0.33597577,-0.94684076,10.27002693,1.843345268,crawl
27/03/2021, 15:28:21,-4.727769,-3.8583767,8.260423,-1.266934,0.3652973,-0.97494054,10.27002693,1.639839326,crawl
27/03/2021, 15:28:21,-4.8283596,-4.181704,8.068821,-1.266934,0.3652973,-0.97494054,10.29104352,1.639839326,crawl
27/03/2021, 15:28:21,-4.8283596,-4.181704,8.068821,-0.963945,0.4031709,-0.99570996,10.29104352,1.443320827,crawl
27/03/2021, 15:28:21,-4.8139896,-4.102669,7.9347,-0.963945,0.4031709,-0.99570996,10.14720905,1.443320827,crawl
27/03/2021, 15:28:21,-4.8139896,-4.102669,7.9347,-0.69272095,0.4276055,-1.0201446,10.14720905,1.305145108,crawl
27/03/2021, 15:28:21,-4.8187795,-3.6979103,7.6449027,-0.69272095,0.4276055,-1.0201446,9.764205733,1.305145108,crawl
27/03/2021, 15:28:21,-4.8187795,-3.6979103,7.6449027,-0.50579625,0.43371415,-1.0433575,9.764205733,1.237955036,crawl
27/03/2021, 15:28:21,-4.9505057,-3.0728102,7.3742657,-0.50579625,0.43371415,-1.0433575,9.398375581,1.237955036,crawl
27/03/2021, 15:28:21,-4.9505057,-3.0728102,7.3742657,-0.41783166,0.4312707,-1.05924,9.398375581,1.217607098,crawl
27/03/2021, 15:28:21,-5.017566,-2.4620802,7.053333,-0.41783166,0.4312707,-1.05924,8.999295161,1.217607098,crawl
27/03/2021, 15:28:21,-5.017566,-2.4620802,7.053333,-0.41294473,0.42271858,-1.0616834,8.999295161,1.215066266,crawl
27/03/2021, 15:28:21,-5.0774417,-2.318379,6.758745,-0.41294473,0.42271858,-1.0616834,8.765610736,1.215066266,crawl
27/03/2021, 15:28:21,-5.0774417,-2.318379,6.758745,-0.42027512,0.40561438,-1.0299184,8.765610736,1.184012744,crawl
27/03/2021, 15:28:21,-4.711004,-2.2728736,6.715635,-0.42027512,0.40561438,-1.0299184,8.512300645,1.184012744,crawl
27/03/2021, 15:28:21,-4.711004,-2.2728736,6.715635,-0.40194917,0.4031709,-0.9871579,8.512300645,1.139557195,crawl
27/03/2021, 15:28:22,-0.93405765,-5.5660257,6.8928666,-0.7831289,-0.123394735,-0.60842156,8.908687686,0.999346767,crawl
27/03/2021, 15:28:22,-0.033530276,-5.132527,6.952742,-0.7831289,-0.123394735,-0.60842156,8.642024017,0.999346767,crawl
27/03/2021, 15:28:22,-0.033530276,-5.132527,6.952742,-0.8002332,-0.061086502,-0.53633946,8.642024017,0.965279612,crawl
27/03/2021, 15:28:22,0.61552006,-4.84752,6.835386,-0.8002332,-0.061086502,-0.53633946,8.402369482,0.965279612,crawl
27/03/2021, 15:28:22,0.61552006,-4.84752,6.835386,-0.89308465,0.025656331,-0.5045745,8.402369482,1.02608666,crawl
27/03/2021, 15:28:22,0.73527104,-4.8163843,6.583909,-0.89308465,0.025656331,-0.5045745,8.190606788,1.02608666,crawl
27/03/2021, 15:28:22,0.73527104,-4.8163843,6.583909,-1.0238098,0.07086034,-0.47280952,8.190606788,1.129936512,crawl
27/03/2021, 15:28:22,0.2921924,-5.357659,6.468948,-1.0238098,0.07086034,-0.47280952,8.404592296,1.129936512,crawl
27/03/2021, 15:28:22,0.2921924,-5.357659,6.468948,-1.194852,0.09651667,-0.42516205,8.404592296,1.271907828,crawl
27/03/2021, 15:28:22,-0.20118165,-5.767207,6.0258694,-1.194852,0.09651667,-0.42516205,8.34339583,1.271907828,crawl
27/03/2021, 15:28:22,-0.20118165,-5.767207,6.0258694,-1.3377944,0.18448123,-0.35674515,8.34339583,1.396779993,crawl
27/03/2021, 15:28:22,-0.52690434,-5.7145166,5.7552323,-1.3377944,0.18448123,-0.35674515,8.127485948,1.396779993,crawl
27/03/2021, 15:28:22,-0.52690434,-5.7145166,5.7552323,-1.4245372,0.26878062,-0.30176732,8.127485948,1.480747351,crawl
27/03/2021, 15:28:22,-0.6993457,-5.702542,5.388794,-1.4245372,0.26878062,-0.30176732,7.87700247,1.480747351,crawl
27/03/2021, 15:28:22,-0.6993457,-5.702542,5.388794,-1.5369364,0.3457496,-0.24312428,7.87700247,1.593996768,crawl
27/03/2021, 15:28:22,-1.096919,-5.719307,5.0439115,-1.5369364,0.3457496,-0.24312428,7.704203131,1.593996768,crawl
27/03/2021, 15:28:22,-1.096919,-5.719307,5.0439115,-1.7067568,0.38484496,-0.15027279,7.704203131,1.756048527,crawl
27/03/2021, 15:28:22,-1.5184424,-5.695357,4.754114,-1.7067568,0.38484496,-0.15027279,7.572605777,1.756048527,crawl
27/03/2021, 15:28:22,-1.5184424,-5.695357,4.754114,-1.8802425,0.34697133,-0.05253439,7.572605777,1.912710303,crawl
27/03/2021, 15:28:22,-2.0453467,-5.8007374,4.6511283,-1.8802425,0.34697133,-0.05253439,7.711354734,1.912710303,crawl
27/03/2021, 15:28:23,-1.1160791,-7.6161623,4.3349857,-0.62186056,0.03298671,-0.7831289,8.834232396,1.000544644,crawl
27/03/2021, 15:28:23,-1.1160791,-7.6161623,4.3349857,-0.65606904,-0.05253439,-0.7819072,8.834232396,1.022039783,crawl
27/03/2021, 15:28:23,-0.87897223,-7.6161623,4.1242237,-0.65606904,-0.05253439,-0.7819072,8.705615519,1.022039783,crawl
27/03/2021, 15:28:23,-0.87897223,-7.6161623,4.1242237,-0.6621777,-0.0977384,-0.7855724,8.705615519,1.032063994,crawl
27/03/2021, 15:28:23,-0.3424878,-7.568262,4.1793094,-0.6621777,-0.0977384,-0.7855724,8.652312749,1.032063994,crawl
27/03/2021, 15:28:23,-0.3424878,-7.568262,4.1793094,-0.60109115,-0.074525535,-0.8393285,8.652312749,1.035054104,crawl
27/03/2021, 15:28:23,0.4143384,-7.460486,4.2104445,-0.60109115,-0.074525535,-0.8393285,8.576617584,1.035054104,crawl
27/03/2021, 15:28:23,0.4143384,-7.460486,4.2104445,-0.5009093,-0.00977384,-0.9236279,8.576617584,1.050758871,crawl
27/03/2021, 15:28:23,0.89573735,-7.5083866,4.006868,-0.5009093,-0.00977384,-0.9236279,8.557640163,1.050758871,crawl
27/03/2021, 15:28:23,0.89573735,-7.5083866,4.006868,-0.43004897,0.0488692,-0.97738403,8.557640163,1.068929306,crawl
27/03/2021, 15:28:23,1.3579761,-7.429351,3.896697,-0.43004897,0.0488692,-0.97738403,8.498446975,1.068929306,crawl
27/03/2021, 15:28:23,1.3579761,-7.429351,3.896697,-0.39217535,0.12583819,-1.0177011,8.498446975,1.097885414,crawl
27/03/2021, 15:28:23,1.6836988,-7.3383403,3.791316,-0.39217535,0.12583819,-1.0177011,8.429718674,1.097885414,crawl
27/03/2021, 15:28:23,1.6836988,-7.3383403,3.791316,-0.38606668,0.1747074,-1.0616834,8.429718674,1.14312809,crawl
27/03/2021, 15:28:23,1.6310084,-7.3072047,3.647615,-0.38606668,0.1747074,-1.0616834,8.32829659,1.14312809,crawl
27/03/2021, 15:28:23,1.6310084,-7.3072047,3.647615,-0.40439263,0.21991141,-1.0824528,8.32829659,1.176264611,crawl
27/03/2021, 15:28:23,1.7387843,-7.175479,3.7697608,-0.40439263,0.21991141,-1.0824528,8.289871271,1.176264611,crawl
27/03/2021, 15:28:23,1.7387843,-7.175479,3.7697608,-0.43860108,0.33719748,-1.1386523,8.289871271,1.265939241,crawl
27/03/2021, 15:28:23,1.3124708,-7.1156034,3.891907,-0.43860108,0.33719748,-1.1386523,8.21591942,1.265939241,crawl
27/03/2021, 15:28:23,1.3124708,-7.1156034,3.891907,-0.45570529,0.4593705,-1.1924086,8.21591942,1.35666014,crawl
27/03/2021, 15:28:24,-3.180586,-4.5553274,8.473579,1.9339986,-0.81122875,0.058643043,10.13255564,2.098066162,crawl
27/03/2021, 15:28:24,-3.180586,-3.8296363,8.210127,1.9339986,-0.81122875,0.058643043,9.601480393,2.098066162,crawl
27/03/2021, 15:28:24,-3.180586,-3.8296363,8.210127,1.7043134,-0.83199817,-0.00488692,9.601480393,1.896557142,crawl
27/03/2021, 15:28:24,-3.544629,-3.2452517,8.274793,1.7043134,-0.83199817,-0.00488692,9.569129924,1.896557142,crawl
27/03/2021, 15:28:24,-3.544629,-3.2452517,8.274793,1.4758499,-0.8222243,-0.06475169,9.569129924,1.690673961,crawl
27/03/2021, 15:28:24,-4.0763235,-2.8285182,8.480764,1.4758499,-0.8222243,-0.06475169,9.825491993,1.690673961,crawl
27/03/2021, 15:28:24,-4.0763235,-2.8285182,8.480764,1.2791513,-0.7660247,-0.061086502,9.825491993,1.492231053,crawl
27/03/2021, 15:28:24,-3.9948928,-2.3878345,8.073611,1.2791513,-0.7660247,-0.061086502,9.319019335,1.492231053,crawl
27/03/2021, 15:28:24,-3.9948928,-2.3878345,8.073611,1.0152576,-0.76235956,-0.12583819,9.319019335,1.27584299,crawl
27/03/2021, 15:28:24,-4.0499783,-2.0022364,7.846084,1.0152576,-0.76235956,-0.12583819,9.053856103,1.27584299,crawl
27/03/2021, 15:28:24,-4.0499783,-2.0022364,7.846084,0.69394267,-0.8307764,-0.23579389,9.053856103,1.107855856,crawl
27/03/2021, 15:28:24,-4.038003,-1.710044,7.6664577,0.69394267,-0.8307764,-0.23579389,8.832003821,1.107855856,crawl
27/03/2021, 15:28:24,-4.038003,-1.710044,7.6664577,0.34452787,-0.900415,-0.29810214,8.832003821,1.009114224,crawl
27/03/2021, 15:28:24,-3.6931202,-1.5256275,7.5874224,0.34452787,-0.900415,-0.29810214,8.575293266,1.009114224,crawl
27/03/2021, 15:28:24,-3.6931202,-1.5256275,7.5874224,-0.02321287,-0.9541711,-0.33964095,8.575293266,1.013083085,crawl
27/03/2021, 15:28:24,-3.4679885,-1.6357985,7.3766603,-0.02321287,-0.9541711,-0.33964095,8.313717498,1.013083085,crawl
27/03/2021, 15:28:24,-3.4679885,-1.6357985,7.3766603,-0.36041036,-0.96272326,-0.34697133,8.313717498,1.084951981,crawl
27/03/2021, 15:28:24,-3.2548318,-1.9711012,7.2281694,-0.36041036,-0.96272326,-0.34697133,8.168574127,1.084951981,crawl
27/03/2021, 15:28:24,-3.2548318,-1.9711012,7.2281694,-0.64263,-0.9309583,-0.34452787,8.168574127,1.182521056,crawl
27/03/2021, 15:28:24,-3.3338673,-2.3255641,7.1347637,-0.64263,-0.9309583,-0.34452787,8.2114416,1.182521056,crawl
27/03/2021, 15:28:25,-6.1312504,-0.4742139,7.9538603,-0.8906412,-1.5491537,0.02076941,10.05390489,1.787050721,crawl
27/03/2021, 15:28:25,-6.1312504,-0.4742139,7.9538603,-0.8356633,-1.5112801,-0.04642574,10.05390489,1.7275578,crawl
27/03/2021, 15:28:25,-5.980364,-1.0274634,7.807764,-0.8356633,-1.5112801,-0.04642574,9.888458543,1.7275578,crawl
27/03/2021, 15:28:25,-5.980364,-1.0274634,7.807764,-0.84177196,-1.4868455,-0.03298671,9.888458543,1.708911255,crawl
27/03/2021, 15:28:25,-5.740862,-1.2981006,7.709568,-0.84177196,-1.4868455,-0.03298671,9.699484498,1.708911255,crawl
27/03/2021, 15:28:25,-5.740862,-1.2981006,7.709568,-0.84055024,-1.5088366,0,9.699484498,1.727168978,crawl
27/03/2021, 15:28:25,-5.5708156,-1.7148341,7.7598634,-0.84055024,-1.5088366,0,9.705159537,1.727168978,crawl
27/03/2021, 15:28:25,-5.5708156,-1.7148341,7.7598634,-0.77091163,-1.5186105,-0.00244346,9.705159537,1.703082059,crawl
27/03/2021, 15:28:25,-5.415139,-2.1674929,7.699988,-0.77091163,-1.5186105,-0.00244346,9.659791475,1.703082059,crawl
27/03/2021, 15:28:25,-5.415139,-2.1674929,7.699988,-0.6597342,-1.5320494,-0.04642574,9.659791475,1.668706076,crawl
27/03/2021, 15:28:25,-4.9505057,-2.2824538,7.3646855,-0.6597342,-1.5320494,-0.04642574,9.162734051,1.668706076,crawl
27/03/2021, 15:28:25,-4.9505057,-2.2824538,7.3646855,-0.533896,-1.497841,-0.05742131,9.162734051,1.591185043,crawl
27/03/2021, 15:28:25,-4.7469287,-1.7603394,6.9862723,-0.533896,-1.497841,-0.05742131,8.627869255,1.591185043,crawl
27/03/2021, 15:28:25,-4.7469287,-1.7603394,6.9862723,-0.46425742,-1.4624108,-0.047647472,8.627869255,1.535073485,crawl
27/03/2021, 15:28:25,-4.509822,-1.1807446,6.5000834,-0.46425742,-1.4624108,-0.047647472,7.99898345,1.535073485,crawl
27/03/2021, 15:28:25,-4.509822,-1.1807446,6.5000834,-0.5290091,-1.502728,-0.13927722,7.99898345,1.599199854,crawl
27/03/2021, 15:28:25,-4.2296047,-0.69695073,6.1767554,-0.5290091,-1.502728,-0.13927722,7.518484159,1.599199854,crawl
27/03/2021, 15:28:25,-4.2296047,-0.69695073,6.1767554,-0.6914992,-1.6517789,-0.32620192,7.518484159,1.820151766,crawl
27/03/2021, 15:28:25,-4.2008643,-0.3784131,5.7480474,-0.6914992,-1.6517789,-0.32620192,7.129551587,1.820151766,crawl
27/03/2021, 15:28:25,-4.2008643,-0.3784131,5.7480474,-0.91385406,-1.8399254,-0.40805784,7.129551587,2.094508524,crawl
27/03/2021, 15:28:26,-3.1039455,-3.9901028,8.037686,-0.92607135,-1.2559384,0.4520401,9.495251421,1.624601393,crawl
27/03/2021, 15:28:26,-3.4631984,-4.0667434,7.699988,-0.92607135,-1.2559384,0.4520401,9.371337069,1.624601393,crawl
27/03/2021, 15:28:26,-3.4631984,-4.0667434,7.699988,-0.9566146,-1.253495,0.42271858,9.371337069,1.632498754,crawl
27/03/2021, 15:28:26,-3.2404616,-4.1050634,6.8425713,-0.9566146,-1.253495,0.42271858,8.61237009,1.632498754,crawl
27/03/2021, 15:28:26,-3.2404616,-4.1050634,6.8425713,-1.0775659,-1.2742645,0.36041036,8.61237009,1.707276725,crawl
27/03/2021, 15:28:26,-3.1015503,-4.24158,6.3875175,-1.0775659,-1.2742645,0.36041036,8.271093924,1.707276725,crawl
27/03/2021, 15:28:26,-3.1015503,-4.24158,6.3875175,-1.2498298,-1.3390161,0.31520635,8.271093924,1.858599891,crawl
27/03/2021, 15:28:26,-2.5219557,-4.282295,5.8438478,-1.2498298,-1.3390161,0.31520635,7.671301692,1.858599891,crawl
27/03/2021, 15:28:26,-2.5219557,-4.282295,5.8438478,-1.4966192,-1.4599674,0.22968525,7.671301692,2.103361393,crawl
27/03/2021, 15:28:26,-1.6286134,-4.4547367,5.2594633,-1.4966192,-1.4599674,0.22968525,7.082302939,2.103361393,crawl
27/03/2021, 15:28:26,-1.6286134,-4.4547367,5.2594633,-1.7715086,-1.606575,0.09896013,7.082302939,2.393557814,crawl
27/03/2021, 15:28:26,-0.7664063,-4.517007,5.1732426,-1.7715086,-1.606575,0.09896013,6.910366733,2.393557814,crawl
27/03/2021, 15:28:26,-0.7664063,-4.517007,5.1732426,-1.9804244,-1.733635,-0.00855211,6.910366733,2.632041811,crawl
27/03/2021, 15:28:26,-0.13891114,-4.7325587,5.4271145,-1.9804244,-1.733635,-0.00855211,7.202081648,2.632041811,crawl
27/03/2021, 15:28:26,-0.13891114,-4.7325587,5.4271145,-2.0219631,-1.8203777,-0.067195155,7.202081648,2.721511537,crawl
27/03/2021, 15:28:26,0.4263135,-4.9864306,5.53489,-2.0219631,-1.8203777,-0.067195155,7.461986533,2.721511537,crawl
27/03/2021, 15:28:26,0.4263135,-4.9864306,5.53489,-1.896125,-1.7763954,-0.06963861,7.461986533,2.599176823,crawl
27/03/2021, 15:28:26,1.0250684,-5.0582814,5.894143,-1.896125,-1.7763954,-0.06963861,7.834404834,2.599176823,crawl
27/03/2021, 15:28:26,1.0250684,-5.0582814,5.894143,-1.7299697,-1.5919142,-0.04642574,7.834404834,2.351412639,crawl
27/03/2021, 15:28:26,1.4585669,-4.9241605,5.7480474,-1.7299697,-1.5919142,-0.04642574,7.708101077,2.351412639,crawl
27/03/2021, 15:28:27,2.454895,-5.829478,6.07856,-1.8716904,-1.0384705,-0.33108884,8.772582914,2.165932995,crawl
27/03/2021, 15:28:27,2.339934,-6.205496,6.104905,-1.8716904,-1.0384705,-0.33108884,9.01406328,2.165932995,crawl
27/03/2021, 15:28:27,2.339934,-6.205496,6.104905,-1.606575,-0.96516675,-0.39584053,9.01406328,1.915546878,crawl
27/03/2021, 15:28:27,2.2585034,-6.552774,5.745652,-1.606575,-0.96516675,-0.39584053,9.002899724,1.915546878,crawl
27/03/2021, 15:28:27,2.2585034,-6.552774,5.745652,-1.3475683,-0.77579856,-0.40805784,9.002899724,1.607580435,crawl
27/03/2021, 15:28:27,2.0381618,-6.5384035,5.51094,-1.3475683,-0.77579856,-0.40805784,8.790636173,1.607580435,crawl
27/03/2021, 15:28:27,2.0381618,-6.5384035,5.51094,-1.0958918,-0.5497785,-0.4031709,8.790636173,1.290651819,crawl
27/03/2021, 15:28:27,1.7220191,-6.330037,5.3552637,-1.0958918,-0.5497785,-0.4031709,8.468386446,1.290651819,crawl
27/03/2021, 15:28:27,1.7220191,-6.330037,5.3552637,-0.9028585,-0.35674515,-0.39584053,8.468386446,1.04838461,crawl
27/03/2021, 15:28:27,1.1424243,-6.1552005,5.1157618,-0.9028585,-0.35674515,-0.39584053,8.084716736,1.04838461,crawl
27/03/2021, 15:28:27,1.1424243,-6.1552005,5.1157618,-0.8527676,-0.21868968,-0.39706227,8.084716736,0.965761969,crawl
27/03/2021, 15:28:27,0.60833496,-5.877378,4.790039,-0.8527676,-0.21868968,-0.39706227,7.606452369,0.965761969,crawl
27/03/2021, 15:28:27,0.60833496,-5.877378,4.790039,-0.9480625,-0.122173004,-0.39706227,7.606452369,1.035087994,crawl
27/03/2021, 15:28:27,-0.043110352,-5.597161,4.653523,-0.9480625,-0.122173004,-0.39706227,7.279103222,1.035087994,crawl
27/03/2021, 15:28:27,-0.043110352,-5.597161,4.653523,-1.1056657,-0.06475169,-0.38484496,7.279103222,1.172516536,crawl
27/03/2021, 15:28:27,-0.69695073,-5.616321,4.5816727,-1.1056657,-0.06475169,-0.38484496,7.281519575,1.172516536,crawl
27/03/2021, 15:28:27,-0.69695073,-5.616321,4.5816727,-1.2767079,-0.051312663,-0.36774075,7.281519575,1.329604933,crawl
