DATE,TIME,ax,ay,az,gx,gy,gz,ma,mg,label
09/07/2020, 21:49:54,1.9525433,0.6939186,9.52822,0.07204556,-0.029306669,0.018316668,9.750944976,0.079905841,crawl
09/07/2020, 21:49:54,1.9525433,0.6939186,9.52822,0.10745778,-0.036633335,0.02075889,9.750944976,0.115412768,crawl
09/07/2020, 21:49:54,1.9142581,0.7680961,9.525827,0.10745778,-0.036633335,0.02075889,9.746575992,0.115412768,crawl
09/07/2020, 21:49:54,1.9142581,0.7680961,9.525827,0.12577444,-0.04396,0.015874445,9.746575992,0.134177831,crawl
09/07/2020, 21:49:54,1.9286151,0.8542377,9.549755,0.12577444,-0.04396,0.015874445,9.779933568,0.134177831,crawl
09/07/2020, 21:49:54,1.9286151,0.8542377,9.549755,0.11966889,-0.04396,0.006105556,9.779933568,0.127633865,crawl
09/07/2020, 21:49:54,1.9214365,0.9164511,9.554541,0.11966889,-0.04396,0.006105556,9.788822593,0.127633865,crawl
09/07/2020, 21:49:54,1.9214365,0.9164511,9.554541,0.08792,-0.039075557,0,9.788822593,0.096212401,crawl
09/07/2020, 21:49:54,1.9764715,0.9906286,9.58804,0.08792,-0.039075557,0,9.839629189,0.096212401,crawl
09/07/2020, 21:49:54,1.9764715,0.9906286,9.58804,0.05006556,-0.024422223,-0.01099,9.839629189,0.056778387,crawl
09/07/2020, 21:49:54,1.9980069,0.95473623,9.578469,0.05006556,-0.024422223,-0.01099,9.831105059,0.056778387,crawl
09/07/2020, 21:49:54,1.9980069,0.95473623,9.578469,0.01099,-0.012211111,-0.02075889,9.831105059,0.026473059,crawl
09/07/2020, 21:49:54,1.9788643,0.8925229,9.580862,0.01099,-0.012211111,-0.02075889,9.823717146,0.026473059,crawl
09/07/2020, 21:49:54,1.9788643,0.8925229,9.580862,-0.002442222,-0.012211111,-0.025643334,9.823717146,0.028507126,crawl
09/07/2020, 21:49:54,1.9525433,0.8350951,9.58804,-0.002442222,-0.012211111,-0.025643334,9.820403597,0.028507126,crawl
09/07/2020, 21:49:54,1.9525433,0.8350951,9.58804,0.012211111,-0.013432222,-0.023201112,9.820403597,0.029458911,crawl
09/07/2020, 21:49:54,1.9118652,0.8111669,9.564112,0.012211111,-0.013432222,-0.023201112,9.787004301,0.029458911,crawl
09/07/2020, 21:49:54,1.9118652,0.8111669,9.564112,0.026864445,-0.023201112,-0.024422223,9.787004301,0.043086366,crawl
09/07/2020, 21:49:54,1.9118652,0.81595254,9.571291,0.026864445,-0.023201112,-0.024422223,9.794417698,0.043086366,crawl
09/07/2020, 21:49:54,1.9118652,0.81595254,9.571291,0.028085556,-0.02198,-0.03174889,9.794417698,0.047748413,crawl
09/07/2020, 21:49:55,2.821138,2.225325,10.392029,-0.3944189,0.6068922,-0.8584412,10.99568796,1.122856042,crawl
09/07/2020, 21:49:55,2.993421,2.3186452,10.392029,-0.3944189,0.6068922,-0.8584412,11.06033219,1.122856042,crawl
09/07/2020, 21:49:55,2.993421,2.3186452,10.392029,-0.46646446,0.68504333,-0.97078335,11.06033219,1.276437927,crawl
09/07/2020, 21:49:55,3.0604203,2.3377876,10.377672,-0.46646446,0.68504333,-0.97078335,11.06921422,1.276437927,crawl
09/07/2020, 21:49:55,3.0604203,2.3377876,10.377672,-0.53851,0.7631945,-1.0599245,11.06921422,1.412762826,crawl
09/07/2020, 21:49:55,3.0963125,2.333002,10.327422,-0.53851,0.7631945,-1.0599245,11.03112406,1.412762826,crawl
09/07/2020, 21:49:55,3.0963125,2.333002,10.327422,-0.5873545,0.84623003,-1.1576134,11.03112406,1.549567464,crawl
09/07/2020, 21:49:55,3.0939198,2.2827528,10.301102,-0.5873545,0.84623003,-1.1576134,10.99527151,1.549567464,crawl
09/07/2020, 21:49:55,3.0939198,2.2827528,10.301102,-0.61299783,0.9280445,-1.2614079,10.99527151,1.681720161,crawl
09/07/2020, 21:49:55,3.0675986,2.2085752,10.267602,-0.61299783,0.9280445,-1.2614079,10.94128036,1.681720161,crawl
09/07/2020, 21:49:55,3.0675986,2.2085752,10.267602,-0.61544,1.0037534,-1.3786345,10.94128036,1.812986568,crawl
09/07/2020, 21:49:55,3.0388846,2.0697916,10.255638,-0.61544,1.0037534,-1.3786345,10.89481391,1.812986568,crawl
09/07/2020, 21:49:55,3.0388846,2.0697916,10.255638,-0.63131446,1.0843467,-1.4775445,10.89481391,1.938428098,crawl
09/07/2020, 21:49:55,2.9359934,1.8999012,10.241281,-0.63131446,1.0843467,-1.4775445,10.82189952,1.938428098,crawl
09/07/2020, 21:49:55,2.9359934,1.8999012,10.241281,-0.6752745,1.1490656,-1.5642434,10.82189952,2.055043783,crawl
09/07/2020, 21:49:55,2.8354948,1.8664017,10.202995,-0.6752745,1.1490656,-1.5642434,10.75288793,2.055043783,crawl
09/07/2020, 21:49:55,2.8354948,1.8664017,10.202995,-0.7351089,1.2162267,-1.6607112,10.75288793,2.18576167,crawl
09/07/2020, 21:49:55,2.7349963,1.8544376,10.147961,-0.7351089,1.2162267,-1.6607112,10.67240597,2.18576167,crawl
09/07/2020, 21:49:55,2.7349963,1.8544376,10.147961,-0.81570226,1.284609,-1.7559578,10.67240597,2.323570162,crawl
09/07/2020, 21:49:55,2.6608188,1.8017955,9.956535,-0.81570226,1.284609,-1.7559578,10.46226647,2.323570162,crawl
09/07/2020, 21:49:56,7.7383885,-6.178268,8.69791,-0.12455334,-0.4566956,-1.7193245,13.17980637,1.783300598,crawl
09/07/2020, 21:49:56,7.7383885,-6.178268,8.69791,-0.07693,-0.60933447,-2.0026224,13.17980637,2.094684478,crawl
09/07/2020, 21:49:56,7.798209,-6.987042,8.932407,-0.07693,-0.60933447,-2.0026224,13.76294748,2.094684478,crawl
09/07/2020, 21:49:56,7.798209,-6.987042,8.932407,0.26376,-0.67161113,-2.1369445,13.76294748,2.25547396,crawl
09/07/2020, 21:49:56,8.322237,-7.520642,8.882157,0.26376,-0.67161113,-2.1369445,14.30777414,2.25547396,crawl
09/07/2020, 21:49:56,8.322237,-7.520642,8.882157,0.6068922,-0.6777167,-1.9879689,14.30777414,2.186238436,crawl
09/07/2020, 21:49:56,8.836694,-7.3292155,8.611769,0.6068922,-0.6777167,-1.9879689,14.35155453,2.186238436,crawl
09/07/2020, 21:49:56,8.836694,-7.3292155,8.611769,0.63619894,-0.6239878,-1.7657267,14.35155453,1.977852518,crawl
09/07/2020, 21:49:56,8.987442,-6.34098,8.331808,0.63619894,-0.6239878,-1.7657267,13.79859297,1.977852518,crawl
09/07/2020, 21:49:56,8.987442,-6.34098,8.331808,0.3052778,-0.46768558,-1.5764545,13.79859297,1.67246321,crawl
09/07/2020, 21:49:56,8.855837,-5.261817,8.078169,0.3052778,-0.46768558,-1.5764545,13.09081269,1.67246321,crawl
09/07/2020, 21:49:56,8.855837,-5.261817,8.078169,-0.1856089,-0.22346334,-1.2919356,13.09081269,1.324191839,crawl
09/07/2020, 21:49:56,8.554341,-4.587041,7.7647095,-0.1856089,-0.22346334,-1.2919356,12.4301413,1.324191839,crawl
09/07/2020, 21:49:56,8.554341,-4.587041,7.7647095,-0.46524334,0.002442222,-0.78395337,12.4301413,0.911614071,crawl
09/07/2020, 21:49:56,8.279166,-4.1611185,7.3363943,-0.46524334,0.002442222,-0.78395337,11.81872167,0.911614071,crawl
09/07/2020, 21:49:56,8.279166,-4.1611185,7.3363943,-0.31382558,0.085477784,-0.21247335,11.81872167,0.388507231,crawl
09/07/2020, 21:49:56,8.106883,-3.7806597,6.7908306,-0.31382558,0.085477784,-0.21247335,11.23077561,0.388507231,crawl
09/07/2020, 21:49:56,8.106883,-3.7806597,6.7908306,0.10013112,-0.018316668,0.14531223,11.23077561,0.177418676,crawl
09/07/2020, 21:49:56,8.092526,-3.359523,6.343373,0.10013112,-0.018316668,0.14531223,10.81728977,0.177418676,crawl
09/07/2020, 21:49:56,8.092526,-3.359523,6.343373,0.4163989,-0.19782001,0.23323223,10.81728977,0.516641155,crawl
09/07/2020, 21:49:57,9.501899,-4.2329035,3.0987053,-1.4482379,-0.019537779,1.6497211,10.85382543,2.195302846,crawl
09/07/2020, 21:49:57,9.501899,-4.2329035,3.0987053,-1.3932878,-0.05250778,1.7046711,10.85382543,2.202251487,crawl
09/07/2020, 21:49:57,9.693324,-4.278367,3.0317063,-1.3932878,-0.05250778,1.7046711,11.02071684,2.202251487,crawl
09/07/2020, 21:49:57,9.693324,-4.278367,3.0317063,-1.3163579,-0.064718895,1.746189,11.02071684,2.187729998,crawl
09/07/2020, 21:49:57,9.906285,-4.2927237,3.0963125,-1.3163579,-0.064718895,1.746189,11.23161234,2.187729998,crawl
09/07/2020, 21:49:57,9.906285,-4.2927237,3.0963125,-1.2491968,-0.051286668,1.7840434,11.23161234,2.178516434,crawl
09/07/2020, 21:49:57,10.052248,-4.220939,3.2638102,-1.2491968,-0.051286668,1.7840434,11.38053048,2.178516434,crawl
09/07/2020, 21:49:57,10.052248,-4.220939,3.2638102,-1.2089001,-0.04151778,1.8170134,11.38053048,2.18281946,crawl
09/07/2020, 21:49:57,10.059426,-4.074977,3.347559,-1.2089001,-0.04151778,1.8170134,11.35797718,2.18281946,crawl
09/07/2020, 21:49:57,10.059426,-4.074977,3.347559,-1.1954678,-0.036633335,1.8353301,11.35797718,2.190644201,crawl
09/07/2020, 21:49:57,9.930214,-3.900301,3.330809,-1.1954678,-0.036633335,1.8353301,11.17657308,2.190644201,crawl
09/07/2020, 21:49:57,9.930214,-3.900301,3.330809,-1.1918045,-0.042738892,1.8426567,11.17657308,2.194905118,crawl
09/07/2020, 21:49:57,9.750752,-3.7567315,3.333202,-1.1918045,-0.042738892,1.8426567,10.96815571,2.194905118,crawl
09/07/2020, 21:49:57,9.750752,-3.7567315,3.333202,-1.1783723,-0.05372889,1.8316667,10.96815571,2.178635104,crawl
09/07/2020, 21:49:57,9.540184,-3.7088752,3.3667014,-1.1783723,-0.05372889,1.8316667,10.77522827,2.178635104,crawl
09/07/2020, 21:49:57,9.540184,-3.7088752,3.3667014,-1.1612767,-0.08425667,1.8182346,10.77522827,2.159083065,crawl
09/07/2020, 21:49:57,9.353543,-3.739982,3.4313076,-1.1612767,-0.08425667,1.8182346,10.6419034,2.159083065,crawl
09/07/2020, 21:49:57,9.353543,-3.739982,3.4313076,-1.0941156,-0.12821667,1.7986968,10.6419034,2.109226994,crawl
09/07/2020, 21:49:57,9.255438,-3.830909,3.4672,-1.0941156,-0.12821667,1.7986968,10.60002216,2.109226994,crawl
09/07/2020, 21:49:57,9.255438,-3.830909,3.4672,-0.9842156,-0.1746189,1.7767167,10.60002216,2.03860109,crawl
09/07/2020, 21:49:58,9.200403,-4.254439,3.6490545,0.042738892,0.078151114,0.32970002,10.77326638,0.341520592,crawl
09/07/2020, 21:49:58,9.200403,-4.254439,3.6490545,0.14164889,0.068382226,0.42372558,10.77326638,0.451977764,crawl
09/07/2020, 21:49:58,9.286545,-4.319045,3.737589,0.14164889,0.068382226,0.42372558,10.90246006,0.451977764,crawl
09/07/2020, 21:49:58,9.286545,-4.319045,3.737589,0.21980001,0.070824444,0.51775116,10.90246006,0.566916579,crawl
09/07/2020, 21:49:58,9.391829,-4.354937,3.842873,0.21980001,0.070824444,0.51775116,11.04262622,0.566916579,crawl
09/07/2020, 21:49:58,9.391829,-4.354937,3.842873,0.27841336,0.070824444,0.59956557,11.04262622,0.664837548,crawl
09/07/2020, 21:49:58,9.492328,-4.345366,3.9242291,0.27841336,0.070824444,0.59956557,11.15285009,0.664837548,crawl
09/07/2020, 21:49:58,9.492328,-4.345366,3.9242291,0.28329778,0.09036223,0.68504333,11.15285009,0.746798054,crawl
09/07/2020, 21:49:58,9.556933,-4.2687955,4.0031924,0.28329778,0.09036223,0.68504333,11.20638838,0.746798054,crawl
09/07/2020, 21:49:58,9.556933,-4.2687955,4.0031924,0.2503278,0.12089001,0.7754056,11.20638838,0.823730673,crawl
09/07/2020, 21:49:58,9.571291,-4.1491547,4.048656,0.2503278,0.12089001,0.7754056,11.19002728,0.823730673,crawl
09/07/2020, 21:49:58,9.571291,-4.1491547,4.048656,0.18072446,0.13920668,0.87065226,11.19002728,0.900041768,crawl
09/07/2020, 21:49:58,9.564112,-4.0103707,4.0773697,0.18072446,0.13920668,0.87065226,11.14361924,0.900041768,crawl
09/07/2020, 21:49:58,9.564112,-4.0103707,4.0773697,0.10745778,0.16973445,0.96589893,11.14361924,0.986568651,crawl
09/07/2020, 21:49:58,9.540184,-3.8763726,4.1204405,0.10745778,0.16973445,0.96589893,11.09141133,0.986568651,crawl
09/07/2020, 21:49:58,9.540184,-3.8763726,4.1204405,0.054950003,0.19904111,1.0562612,11.09141133,1.076254873,crawl
09/07/2020, 21:49:58,9.487542,-3.7686956,4.168297,0.054950003,0.19904111,1.0562612,11.02684093,1.076254873,crawl
09/07/2020, 21:49:58,9.487542,-3.7686956,4.168297,-0.028085556,0.21735778,1.1429601,11.02684093,1.163783025,crawl
09/07/2020, 21:49:58,9.437292,-3.67059,4.240082,-0.028085556,0.21735778,1.1429601,10.97788714,1.163783025,crawl
09/07/2020, 21:49:58,9.437292,-3.67059,4.240082,-0.109900005,0.22224224,1.2321012,10.97788714,1.256798709,crawl
09/07/2020, 21:49:59,9.164511,-4.1180477,1.9788643,-0.6752745,-0.09768889,1.5227256,10.24023817,1.668601797,crawl
09/07/2020, 21:49:59,9.164511,-4.1180477,1.9788643,-0.58613336,-0.14164889,1.504409,10.24023817,1.620760016,crawl
09/07/2020, 21:49:59,8.949157,-4.1180477,2.062613,-0.58613336,-0.14164889,1.504409,10.06479489,1.620760016,crawl
09/07/2020, 21:49:59,8.949157,-4.1180477,2.062613,-0.5104245,-0.17950334,1.4934189,10.06479489,1.588412641,crawl
09/07/2020, 21:49:59,8.815159,-4.165904,2.254039,-0.5104245,-0.17950334,1.4934189,10.00712116,1.588412641,crawl
09/07/2020, 21:49:59,8.815159,-4.165904,2.254039,-0.4591378,-0.2295689,1.4934189,10.00712116,1.57918001,crawl
09/07/2020, 21:49:59,8.810373,-4.2161536,2.440679,-0.4591378,-0.2295689,1.4934189,10.06754903,1.57918001,crawl
09/07/2020, 21:49:59,8.810373,-4.2161536,2.440679,-0.40663,-0.25765446,1.4897556,10.06754903,1.565600723,crawl
09/07/2020, 21:49:59,8.9013,-4.213761,2.5339992,-0.40663,-0.25765446,1.4897556,10.16907478,1.565600723,crawl
09/07/2020, 21:49:59,8.9013,-4.213761,2.5339992,-0.3504589,-0.2503278,1.4543434,10.16907478,1.516772981,crawl
09/07/2020, 21:49:59,8.999406,-4.17069,2.5435705,-0.3504589,-0.2503278,1.4543434,10.23981017,1.516772981,crawl
09/07/2020, 21:49:59,8.999406,-4.17069,2.5435705,-0.2869611,-0.21613668,1.3993934,10.23981017,1.444771172,crawl
09/07/2020, 21:49:59,9.006584,-4.1228333,2.4670002,-0.2869611,-0.21613668,1.3993934,10.20795781,1.444771172,crawl
09/07/2020, 21:49:59,9.006584,-4.1228333,2.4670002,-0.24055889,-0.19293556,1.34078,10.20795781,1.375784784,crawl
09/07/2020, 21:49:59,8.882157,-4.058227,2.3569303,-0.24055889,-0.19293556,1.34078,10.04574765,1.375784784,crawl
09/07/2020, 21:49:59,8.882157,-4.058227,2.3569303,-0.18316667,-0.19782001,1.2919356,10.04574765,1.319765238,crawl
09/07/2020, 21:49:59,8.685946,-4.022335,2.2731814,-0.18316667,-0.19782001,1.2919356,9.838302654,1.319765238,crawl
09/07/2020, 21:49:59,8.685946,-4.022335,2.2731814,-0.12577444,-0.22346334,1.2479756,9.838302654,1.274047936,crawl
09/07/2020, 21:49:59,8.513663,-4.0295134,2.268396,-0.12577444,-0.22346334,1.2479756,9.688398243,1.274047936,crawl
09/07/2020, 21:49:59,8.513663,-4.0295134,2.268396,-0.04396,-0.25765446,1.2027946,9.688398243,1.230866782,crawl
09/07/2020, 21:50:00,8.094919,-2.7996025,3.9050865,0.35900667,0.21980001,1.2394278,9.413564248,1.308961084,crawl
09/07/2020, 21:50:00,7.982456,-2.6632116,4.031906,0.35900667,0.21980001,1.2394278,9.331054071,1.308961084,crawl
09/07/2020, 21:50:00,7.982456,-2.6632116,4.031906,0.36389112,0.20148334,1.1502867,9.331054071,1.223180984,crawl
09/07/2020, 21:50:00,7.891529,-2.5220351,4.1036906,0.36389112,0.20148334,1.1502867,9.245386372,1.223180984,crawl
09/07/2020, 21:50:00,7.891529,-2.5220351,4.1036906,0.33580557,0.19049335,1.0489345,9.245386372,1.117728318,crawl
09/07/2020, 21:50:00,7.8053875,-2.3808584,4.113262,0.33580557,0.19049335,1.0489345,9.138461935,1.117728318,crawl
09/07/2020, 21:50:00,7.8053875,-2.3808584,4.113262,0.28085557,0.18438779,0.9378134,9.138461935,0.996179041,crawl
09/07/2020, 21:50:00,7.678568,-2.2875385,4.063013,0.28085557,0.18438779,0.9378134,8.983390928,0.996179041,crawl
09/07/2020, 21:50:00,7.678568,-2.2875385,4.063013,0.2075889,0.1856089,0.81448114,8.983390928,0.860769038,crawl
09/07/2020, 21:50:00,7.539784,-2.2277179,3.991228,0.2075889,0.1856089,0.81448114,8.81708403,0.860769038,crawl
09/07/2020, 21:50:00,7.539784,-2.2277179,3.991228,0.12211112,0.16973445,0.70458114,8.81708403,0.734952715,crawl
09/07/2020, 21:50:00,7.3842506,-2.2325034,3.9314077,0.12211112,0.16973445,0.70458114,8.658359859,0.734952715,crawl
09/07/2020, 21:50:00,7.3842506,-2.2325034,3.9314077,0.05617111,0.14042778,0.5922389,8.658359859,0.611246329,crawl
09/07/2020, 21:50:00,7.245467,-2.2755744,3.897908,0.05617111,0.14042778,0.5922389,8.536317728,0.611246329,crawl
09/07/2020, 21:50:00,7.245467,-2.2755744,3.897908,0.024422223,0.12089001,0.4823389,8.536317728,0.497857066,crawl
09/07/2020, 21:50:00,7.135397,-2.3186452,3.900301,0.024422223,0.12089001,0.4823389,8.45590641,0.497857066,crawl
09/07/2020, 21:50:00,7.135397,-2.3186452,3.900301,0.001221111,0.09524667,0.36755446,8.45590641,0.37969685,crawl
09/07/2020, 21:50:00,7.075577,-2.3665016,3.9744785,0.001221111,0.09524667,0.36755446,8.453436916,0.37969685,crawl
09/07/2020, 21:50:00,7.075577,-2.3665016,3.9744785,-0.01099,0.07693,0.25521225,8.453436916,0.266781364,crawl
09/07/2020, 21:50:00,7.056434,-2.416751,4.0558343,-0.01099,0.07693,0.25521225,8.490214352,0.266781364,crawl
09/07/2020, 21:50:01,7.685746,-2.0554347,4.7952166,0.06349778,-0.08669889,-0.23933779,9.289220001,0.262357089,crawl
09/07/2020, 21:50:01,7.685746,-2.0554347,4.7952166,0.059834447,-0.09646778,-0.30405667,9.289220001,0.324556088,crawl
09/07/2020, 21:50:01,7.7096744,-2.062613,4.7832522,0.059834447,-0.09646778,-0.30405667,9.304458777,0.324556088,crawl
09/07/2020, 21:50:01,7.7096744,-2.062613,4.7832522,0.054950003,-0.10379445,-0.36633334,9.304458777,0.384698457,crawl
09/07/2020, 21:50:01,7.719246,-2.07697,4.773681,0.054950003,-0.10379445,-0.36633334,9.310670979,0.384698457,crawl
09/07/2020, 21:50:01,7.719246,-2.07697,4.773681,0.059834447,-0.11356334,-0.4273889,9.310670979,0.446248888,crawl
09/07/2020, 21:50:01,7.7407813,-2.0889342,4.7784667,0.059834447,-0.11356334,-0.4273889,9.333653373,0.446248888,crawl
09/07/2020, 21:50:01,7.7407813,-2.0889342,4.7784667,0.064718895,-0.12455334,-0.48600224,9.333653373,0.505865835,crawl
09/07/2020, 21:50:01,7.7623167,-2.1176481,4.790431,0.064718895,-0.12455334,-0.48600224,9.364092245,0.505865835,crawl
09/07/2020, 21:50:01,7.7623167,-2.1176481,4.790431,0.07693,-0.14287001,-0.5470578,9.364092245,0.570615728,crawl
09/07/2020, 21:50:01,7.798209,-2.1248264,4.800002,0.07693,-0.14287001,-0.5470578,9.400370954,0.570615728,crawl
09/07/2020, 21:50:01,7.798209,-2.1248264,4.800002,0.08669889,-0.15386,-0.60445005,9.400370954,0.62972173,crawl
09/07/2020, 21:50:01,7.834101,-2.132005,4.8239303,0.08669889,-0.15386,-0.60445005,9.443986977,0.62972173,crawl
09/07/2020, 21:50:01,7.834101,-2.132005,4.8239303,0.10501556,-0.16485001,-0.6667267,9.443986977,0.694786513,crawl
09/07/2020, 21:50:01,7.8723865,-2.1391835,4.8382874,0.10501556,-0.16485001,-0.6667267,9.48470343,0.694786513,crawl
09/07/2020, 21:50:01,7.8723865,-2.1391835,4.8382874,0.10501556,-0.16851334,-0.72411895,9.48470343,0.750848364,crawl
09/07/2020, 21:50:01,7.9034934,-2.1248264,4.871787,0.10501556,-0.16851334,-0.72411895,9.524410986,0.750848364,crawl
09/07/2020, 21:50:01,7.9034934,-2.1248264,4.871787,0.11600556,-0.17828223,-0.7815111,9.524410986,0.809939188,crawl
09/07/2020, 21:50:01,7.9369926,-2.0865414,4.9172506,0.11600556,-0.17828223,-0.7815111,9.567071711,0.809939188,crawl
09/07/2020, 21:50:01,7.9369926,-2.0865414,4.9172506,0.11844778,-0.18316667,-0.84623003,9.567071711,0.873890822,crawl
09/07/2020, 21:50:02,7.4679995,-3.129812,4.6564326,-0.15141778,0.18316667,1.1820356,9.340722879,1.205688786,crawl
09/07/2020, 21:50:02,7.322037,-3.0723844,4.575077,-0.15141778,0.18316667,1.1820356,9.164229633,1.205688786,crawl
09/07/2020, 21:50:02,7.322037,-3.0723844,4.575077,-0.18316667,0.17584,1.1026634,9.164229633,1.131519467,crawl
09/07/2020, 21:50:02,7.1952176,-3.0652058,4.5296135,-0.18316667,0.17584,1.1026634,9.037922412,1.131519467,crawl
09/07/2020, 21:50:02,7.1952176,-3.0652058,4.5296135,-0.1965989,0.16729222,1.0123012,9.037922412,1.044696869,crawl
09/07/2020, 21:50:02,7.082755,-3.0987053,4.5152564,-0.1965989,0.16729222,1.0123012,8.952928824,1.044696869,crawl
09/07/2020, 21:50:02,7.082755,-3.0987053,4.5152564,-0.19537778,0.15996556,0.92071784,8.952928824,0.954716078,crawl
09/07/2020, 21:50:02,6.987042,-3.1489546,4.5296135,-0.19537778,0.15996556,0.92071784,8.902363107,0.954716078,crawl
09/07/2020, 21:50:02,6.987042,-3.1489546,4.5296135,-0.17950334,0.14409111,0.82547116,8.902363107,0.85696344,crawl
09/07/2020, 21:50:02,6.908079,-3.199204,4.536792,-0.17950334,0.14409111,0.82547116,8.862220003,0.85696344,crawl
09/07/2020, 21:50:02,6.908079,-3.199204,4.536792,-0.15752333,0.12577444,0.7326667,8.862220003,0.759890296,crawl
09/07/2020, 21:50:02,6.8506513,-3.249453,4.5391846,-0.15752333,0.12577444,0.7326667,8.837112908,0.759890296,crawl
09/07/2020, 21:50:02,6.8506513,-3.249453,4.5391846,-0.12943779,0.117226675,0.6337567,8.837112908,0.657376442,crawl
09/07/2020, 21:50:02,6.7836523,-3.2973096,4.517649,-0.12943779,0.117226675,0.6337567,8.792004521,0.657376442,crawl
09/07/2020, 21:50:02,6.7836523,-3.2973096,4.517649,-0.08303556,0.102573335,0.5360678,8.792004521,0.55207324,crawl
09/07/2020, 21:50:02,6.71426,-3.3355947,4.4985065,-0.08303556,0.102573335,0.5360678,8.743228325,0.55207324,crawl
09/07/2020, 21:50:02,6.71426,-3.3355947,4.4985065,-0.05372889,0.08059334,0.4383789,8.743228325,0.448952269,crawl
09/07/2020, 21:50:02,6.6257257,-3.3547373,4.4674,-0.05372889,0.08059334,0.4383789,8.666727601,0.448952269,crawl
09/07/2020, 21:50:02,6.6257257,-3.3547373,4.4674,0.003663334,0.058613338,0.34557447,8.666727601,0.350529109,crawl
09/07/2020, 21:50:02,6.546763,-3.3667014,4.4482574,0.003663334,0.058613338,0.34557447,8.601266036,0.350529109,crawl
09/07/2020, 21:50:03,8.350951,-2.8402805,5.127819,-0.48844448,0.28085557,1.74741,10.20294603,1.836001027,crawl
09/07/2020, 21:50:03,8.350951,-2.8402805,5.127819,-0.44082114,0.26864445,1.6887968,10.20294603,1.765935336,crawl
09/07/2020, 21:50:03,8.276773,-2.8259234,5.0823555,-0.44082114,0.26864445,1.6887968,10.11539221,1.765935336,crawl
09/07/2020, 21:50:03,8.276773,-2.8259234,5.0823555,-0.38831335,0.2613178,1.6301835,10.11539221,1.696046095,crawl
09/07/2020, 21:50:03,8.207381,-2.7948167,5.0249276,-0.38831335,0.2613178,1.6301835,10.02107804,1.696046095,crawl
09/07/2020, 21:50:03,8.207381,-2.7948167,5.0249276,-0.32970002,0.24422224,1.5532534,10.02107804,1.606531285,crawl
09/07/2020, 21:50:03,8.12124,-2.7397819,4.955536,-0.32970002,0.24422224,1.5532534,9.900417881,1.606531285,crawl
09/07/2020, 21:50:03,8.12124,-2.7397819,4.955536,-0.2759711,0.22590557,1.4787656,9.900417881,1.52116439,crawl
09/07/2020, 21:50:03,8.006385,-2.6895328,4.898108,-0.2759711,0.22590557,1.4787656,9.763567322,1.52116439,crawl
09/07/2020, 21:50:03,8.006385,-2.6895328,4.898108,-0.20636779,0.21735778,1.3981723,9.763567322,1.429936271,crawl
09/07/2020, 21:50:03,7.884351,-2.629712,4.8263235,-0.20636779,0.21735778,1.3981723,9.611023439,1.429936271,crawl
09/07/2020, 21:50:03,7.884351,-2.629712,4.8263235,-0.16240779,0.19537778,1.3151367,9.611023439,1.339452586,crawl
09/07/2020, 21:50:03,7.7790666,-2.5579274,4.749753,-0.16240779,0.19537778,1.3151367,9.466626778,1.339452586,crawl
09/07/2020, 21:50:03,7.7790666,-2.5579274,4.749753,-0.12699556,0.17706113,1.2321012,9.466626778,1.251220159,crawl
09/07/2020, 21:50:03,7.690532,-2.4837499,4.6875396,-0.12699556,0.17706113,1.2321012,9.342715147,1.251220159,crawl
09/07/2020, 21:50:03,7.690532,-2.4837499,4.6875396,-0.08669889,0.1526389,1.1417389,9.342715147,1.15515498,crawl
09/07/2020, 21:50:03,7.62114,-2.4143581,4.6325045,-0.08669889,0.1526389,1.1417389,9.23964273,1.15515498,crawl
09/07/2020, 21:50:03,7.62114,-2.4143581,4.6325045,-0.06227667,0.13188,1.0452712,9.23964273,1.055396851,crawl
09/07/2020, 21:50:03,7.5637126,-2.349752,4.599005,-0.06227667,0.13188,1.0452712,9.158707961,1.055396851,crawl
09/07/2020, 21:50:03,7.5637126,-2.349752,4.599005,-0.039075557,0.11112112,0.94880337,9.158707961,0.956087145,crawl
09/07/2020, 21:50:04,8.760123,-2.9838498,5.367101,-0.31871,0.44082114,1.7266512,10.69807899,1.810310382,crawl
09/07/2020, 21:50:04,8.760123,-2.9838498,5.367101,-0.2869611,0.43471557,1.7095556,10.69807899,1.787149893,crawl
09/07/2020, 21:50:04,8.635697,-2.926422,5.2642097,-0.2869611,0.43471557,1.7095556,10.52858583,1.787149893,crawl
09/07/2020, 21:50:04,8.635697,-2.926422,5.2642097,-0.29062447,0.4163989,1.6826912,10.52858583,1.757640568,crawl
09/07/2020, 21:50:04,8.487342,-2.8402805,5.17089,-0.29062447,0.4163989,1.6826912,10.33635659,1.757640568,crawl
09/07/2020, 21:50:04,8.487342,-2.8402805,5.17089,-0.2955089,0.39808223,1.6448368,10.33635659,1.717929861,crawl
09/07/2020, 21:50:04,8.327023,-2.7732813,5.0799623,-0.2955089,0.39808223,1.6448368,10.14082888,1.717929861,crawl
09/07/2020, 21:50:04,8.327023,-2.7732813,5.0799623,-0.2955089,0.37610224,1.6033189,10.14082888,1.673143744,crawl
09/07/2020, 21:50:04,8.16431,-2.7206392,5.0081778,-0.2955089,0.37610224,1.6033189,9.956891456,1.673143744,crawl
09/07/2020, 21:50:04,8.16431,-2.7206392,5.0081778,-0.30772,0.36633334,1.5556957,9.956891456,1.627599668,crawl
09/07/2020, 21:50:04,8.023134,-2.6871397,4.9268217,-0.30772,0.36633334,1.5556957,9.791066085,1.627599668,crawl
09/07/2020, 21:50:04,8.023134,-2.6871397,4.9268217,-0.30772,0.35168,1.4946401,9.791066085,1.565988345,crawl
09/07/2020, 21:50:04,7.908279,-2.6823542,4.922036,-0.30772,0.35168,1.4946401,9.693417355,1.565988345,crawl
09/07/2020, 21:50:04,7.908279,-2.6823542,4.922036,-0.31260446,0.34313223,1.4360267,9.693417355,1.509183201,crawl
09/07/2020, 21:50:04,7.8436728,-2.7565317,4.9579287,-0.31260446,0.34313223,1.4360267,9.680016835,1.509183201,crawl
09/07/2020, 21:50:04,7.8436728,-2.7565317,4.9579287,-0.29917222,0.32359445,1.3786345,9.680016835,1.447359783,crawl
09/07/2020, 21:50:04,7.812566,-2.8522446,4.9770713,-0.29917222,0.32359445,1.3786345,9.692405396,1.447359783,crawl
09/07/2020, 21:50:04,7.812566,-2.8522446,4.9770713,-0.27841336,0.30772,1.3065889,9.692405396,1.370904855,crawl
09/07/2020, 21:50:04,7.769495,-2.9096723,4.979464,-0.27841336,0.30772,1.3065889,9.676068811,1.370904855,crawl
09/07/2020, 21:50:04,7.769495,-2.9096723,4.979464,-0.23811668,0.30405667,1.2272167,9.676068811,1.286549997,crawl
09/07/2020, 21:50:05,9.032906,-1.8592232,4.749753,-0.058613338,0.07326667,1.29682,10.37353594,1.300209889,crawl
09/07/2020, 21:50:05,9.006584,-1.8185452,4.7545385,-0.058613338,0.07326667,1.29682,10.34559335,1.300209889,crawl
09/07/2020, 21:50:05,9.006584,-1.8185452,4.7545385,-0.058613338,0.07693,1.2736189,10.34559335,1.277285772,crawl
09/07/2020, 21:50:05,8.973084,-1.8017955,4.752146,-0.058613338,0.07693,1.2736189,10.31240035,1.277285772,crawl
09/07/2020, 21:50:05,8.973084,-1.8017955,4.752146,-0.05006556,0.07326667,1.2528601,10.31240035,1.255998773,crawl
09/07/2020, 21:50:05,8.930014,-1.7898313,4.752146,-0.05006556,0.07326667,1.2528601,10.272854,1.255998773,crawl
09/07/2020, 21:50:05,8.930014,-1.7898313,4.752146,-0.036633335,0.07204556,1.2272167,10.272854,1.229875377,crawl
09/07/2020, 21:50:05,8.88455,-1.7682959,4.74736,-0.036633335,0.07204556,1.2272167,10.22739116,1.229875377,crawl
09/07/2020, 21:50:05,8.88455,-1.7682959,4.74736,-0.015874445,0.06227667,1.1918045,10.22739116,1.193536097,crawl
09/07/2020, 21:50:05,8.846265,-1.7371893,4.74736,-0.015874445,0.06227667,1.1918045,10.18880059,1.193536097,crawl
09/07/2020, 21:50:05,8.846265,-1.7371893,4.74736,-0.003663334,0.051286668,1.1576134,10.18880059,1.158754727,crawl
09/07/2020, 21:50:05,8.817552,-1.7012969,4.76411,-0.003663334,0.051286668,1.1576134,10.16564669,1.158754727,crawl
09/07/2020, 21:50:05,8.817552,-1.7012969,4.76411,0.012211111,0.047623336,1.1234223,10.16564669,1.124497523,crawl
09/07/2020, 21:50:05,8.781659,-1.6582261,4.759324,0.012211111,0.047623336,1.1234223,10.12513785,1.124497523,crawl
09/07/2020, 21:50:05,8.781659,-1.6582261,4.759324,0.02075889,0.042738892,1.0831256,10.12513785,1.084167234,crawl
09/07/2020, 21:50:05,8.740981,-1.6127625,4.752146,0.02075889,0.042738892,1.0831256,10.07911915,1.084167234,crawl
09/07/2020, 21:50:05,8.740981,-1.6127625,4.752146,0.02198,0.04396,1.0367234,10.07911915,1.037887739,crawl
09/07/2020, 21:50:05,8.700303,-1.5720844,4.7282176,0.02198,0.04396,1.0367234,10.02610417,1.037887739,crawl
09/07/2020, 21:50:05,8.700303,-1.5720844,4.7282176,0.007326667,0.045181114,0.9866578,10.02610417,0.987718899,crawl
09/07/2020, 21:50:05,8.647661,-1.5314065,4.7114677,0.007326667,0.045181114,0.9866578,9.966201815,0.987718899,crawl
09/07/2020, 21:50:06,9.336794,-1.9908284,4.871787,-0.9549089,0.19904111,1.5935501,10.71790219,1.868387075,crawl
09/07/2020, 21:50:06,9.336794,-1.9908284,4.871787,-1.0379444,0.20514667,1.61553,10.71790219,1.931152774,crawl
09/07/2020, 21:50:06,9.3104725,-2.0315065,4.8646083,-1.0379444,0.20514667,1.61553,10.69936122,1.931152774,crawl
09/07/2020, 21:50:06,9.3104725,-2.0315065,4.8646083,-1.1148745,0.21247335,1.6399523,10.69936122,1.994375488,crawl
09/07/2020, 21:50:06,9.226724,-2.0961127,4.855037,-1.1148745,0.21247335,1.6399523,10.63473105,1.994375488,crawl
09/07/2020, 21:50:06,9.226724,-2.0961127,4.855037,-1.174709,0.20148334,1.6619323,10.63473105,2.04512978,crawl
09/07/2020, 21:50:06,9.131011,-2.199004,4.855037,-1.174709,0.20148334,1.6619323,10.57271804,2.04512978,crawl
09/07/2020, 21:50:06,9.131011,-2.199004,4.855037,-1.2003523,0.1856089,1.6741434,10.57271804,2.06834537,crawl
09/07/2020, 21:50:06,9.056833,-2.321038,4.8454657,-1.2003523,0.1856089,1.6741434,10.53052628,2.06834537,crawl
09/07/2020, 21:50:06,9.056833,-2.321038,4.8454657,-1.1954678,0.16607112,1.6863545,10.53052628,2.07376819,crawl
09/07/2020, 21:50:06,8.999406,-2.4646072,4.867001,-1.1954678,0.16607112,1.6863545,10.52384407,2.07376819,crawl
09/07/2020, 21:50:06,8.999406,-2.4646072,4.867001,-1.1563922,0.1526389,1.6961234,10.52384407,2.058488778,crawl
09/07/2020, 21:50:06,8.970692,-2.6392834,4.898108,-1.1563922,0.1526389,1.6961234,10.55606879,2.058488778,crawl
09/07/2020, 21:50:06,8.970692,-2.6392834,4.898108,-1.0867889,0.13798556,1.6961234,10.55606879,2.019154419,crawl
09/07/2020, 21:50:06,8.949157,-2.792424,4.914858,-1.0867889,0.13798556,1.6961234,10.58493581,2.019154419,crawl
09/07/2020, 21:50:06,8.949157,-2.792424,4.914858,-0.99398446,0.12943779,1.691239,10.58493581,1.965972686,crawl
09/07/2020, 21:50:06,8.941978,-2.9455647,4.9531426,-0.99398446,0.12943779,1.691239,10.6380897,1.965972686,crawl
09/07/2020, 21:50:06,8.941978,-2.9455647,4.9531426,-0.8865267,0.11844778,1.6875756,10.6380897,1.909940001,crawl
09/07/2020, 21:50:06,8.939586,-3.1058838,4.981857,-0.8865267,0.11844778,1.6875756,10.69493357,1.909940001,crawl
09/07/2020, 21:50:06,8.939586,-3.1058838,4.981857,-0.7754056,0.12089001,1.6765857,10.69493357,1.851163888,crawl
09/07/2020, 21:50:07,8.930014,-2.239682,4.766503,-0.3162678,0.048844445,1.2211112,10.36729804,1.262348448,crawl
09/07/2020, 21:50:07,8.961121,-2.2181466,4.792824,-0.3162678,0.048844445,1.2211112,10.40158721,1.262348448,crawl
09/07/2020, 21:50:07,8.961121,-2.2181466,4.792824,-0.32237336,0.047623336,1.2711767,10.40158721,1.312281509,crawl
09/07/2020, 21:50:07,9.001799,-2.1966112,4.8239303,-0.32237336,0.047623336,1.2711767,10.44642438,1.312281509,crawl
09/07/2020, 21:50:07,9.001799,-2.1966112,4.8239303,-0.3370267,0.05372889,1.3175789,10.44642438,1.361061339,crawl
09/07/2020, 21:50:07,9.0544405,-2.1774685,4.883751,-0.3370267,0.05372889,1.3175789,10.51547835,1.361061339,crawl
09/07/2020, 21:50:07,9.0544405,-2.1774685,4.883751,-0.37610224,0.058613338,1.3688656,10.51547835,1.420803109,crawl
09/07/2020, 21:50:07,9.123833,-2.184647,4.9459643,-0.37610224,0.058613338,1.3688656,10.60563856,1.420803109,crawl
09/07/2020, 21:50:07,9.123833,-2.184647,4.9459643,-0.3944189,0.08425667,1.4140468,10.60563856,1.470439969,crawl
09/07/2020, 21:50:07,9.188439,-2.225325,5.005785,-0.3944189,0.08425667,1.4140468,10.69754052,1.470439969,crawl
09/07/2020, 21:50:07,9.188439,-2.225325,5.005785,-0.39075556,0.10867889,1.4567856,10.69754052,1.512192177,crawl
09/07/2020, 21:50:07,9.233903,-2.3162522,5.072784,-0.39075556,0.10867889,1.4567856,10.78717408,1.512192177,crawl
09/07/2020, 21:50:07,9.233903,-2.3162522,5.072784,-0.39197668,0.11356334,1.4946401,10.78717408,1.549351934,crawl
09/07/2020, 21:50:07,9.241081,-2.4095724,5.1206403,-0.39197668,0.11356334,1.4946401,10.83626219,1.549351934,crawl
09/07/2020, 21:50:07,9.241081,-2.4095724,5.1206403,-0.37732336,0.117226675,1.5300523,10.83626219,1.580245255,crawl
09/07/2020, 21:50:07,9.23151,-2.4933212,5.163711,-0.37732336,0.117226675,1.5300523,10.86744415,1.580245255,crawl
09/07/2020, 21:50:07,9.23151,-2.4933212,5.163711,-0.34679556,0.123332225,1.570349,10.86744415,1.612908525,crawl
09/07/2020, 21:50:07,9.209974,-2.5866413,5.168497,-0.34679556,0.123332225,1.570349,10.87325626,1.612908525,crawl
09/07/2020, 21:50:07,9.209974,-2.5866413,5.168497,-0.30405667,0.11966889,1.6106457,10.87325626,1.643456881,crawl
09/07/2020, 21:50:07,9.193225,-2.6416762,5.1589255,-0.30405667,0.11966889,1.6106457,10.86776656,1.643456881,crawl
09/07/2020, 21:50:08,8.719446,-2.199004,4.814359,-0.23201112,0.08425667,0.7131289,10.20011835,0.754639789,crawl
09/07/2020, 21:50:08,8.719446,-2.199004,4.814359,-0.24544334,0.08059334,0.7680789,10.20011835,0.810359768,crawl
09/07/2020, 21:50:08,8.748159,-2.1655045,4.8382874,-0.24544334,0.08059334,0.7680789,10.22881846,0.810359768,crawl
09/07/2020, 21:50:08,8.748159,-2.1655045,4.8382874,-0.2625389,0.08792,0.8181445,10.22881846,0.863722773,crawl
09/07/2020, 21:50:08,8.772088,-2.1080768,4.867001,-0.2625389,0.08792,0.8181445,10.25091293,0.863722773,crawl
09/07/2020, 21:50:08,8.772088,-2.1080768,4.867001,-0.2955089,0.102573335,0.8645467,10.25091293,0.919395355,crawl
09/07/2020, 21:50:08,8.803194,-2.0745773,4.883751,-0.2955089,0.102573335,0.8645467,10.27867304,0.919395355,crawl
09/07/2020, 21:50:08,8.803194,-2.0745773,4.883751,-0.32481557,0.11112112,0.9097278,10.27867304,0.972346517,crawl
09/07/2020, 21:50:08,8.812766,-2.0482562,4.8789654,-0.32481557,0.11112112,0.9097278,10.27932402,0.972346517,crawl
09/07/2020, 21:50:08,8.812766,-2.0482562,4.8789654,-0.3602278,0.11966889,0.9512456,10.27932402,1.024184022,crawl
09/07/2020, 21:50:08,8.82473,-2.0578275,4.9028935,-0.3602278,0.11966889,0.9512456,10.30285772,1.024184022,crawl
09/07/2020, 21:50:08,8.82473,-2.0578275,4.9028935,-0.3858711,0.12699556,0.98910004,10.30285772,1.069272311,crawl
09/07/2020, 21:50:08,8.834301,-2.0697916,4.9316072,-0.3858711,0.12699556,0.98910004,10.32713228,1.069272311,crawl
09/07/2020, 21:50:08,8.834301,-2.0697916,4.9316072,-0.41151446,0.14164889,1.0245123,10.32713228,1.113119038,crawl
09/07/2020, 21:50:08,8.846265,-2.105684,4.979464,-0.41151446,0.14164889,1.0245123,10.36751509,1.113119038,crawl
09/07/2020, 21:50:08,8.846265,-2.105684,4.979464,-0.42006224,0.15019667,1.0574822,10.36751509,1.147728201,crawl
09/07/2020, 21:50:08,8.85823,-2.1655045,5.0249276,-0.42006224,0.15019667,1.0574822,10.41189413,1.147728201,crawl
09/07/2020, 21:50:08,8.85823,-2.1655045,5.0249276,-0.4163989,0.16240779,1.0965579,10.41189413,1.184146728,crawl
09/07/2020, 21:50:08,8.877372,-2.2564318,5.089534,-0.4163989,0.16240779,1.0965579,10.47867209,1.184146728,crawl
09/07/2020, 21:50:08,8.877372,-2.2564318,5.089534,-0.40296668,0.16729222,1.1344123,10.47867209,1.215425881,crawl
09/07/2020, 21:50:09,8.7577305,-2.2875385,4.8191447,0.014653334,0.003663334,-0.5226356,10.25450299,0.522853793,crawl
09/07/2020, 21:50:09,8.695518,-2.2995026,4.773681,0.014653334,0.003663334,-0.5226356,10.18271916,0.522853793,crawl
09/07/2020, 21:50:09,8.695518,-2.2995026,4.773681,0.023201112,0.003663334,-0.45791668,10.18271916,0.458518696,crawl
09/07/2020, 21:50:09,8.626125,-2.268396,4.725825,0.023201112,0.003663334,-0.45791668,10.09401202,0.458518696,crawl
09/07/2020, 21:50:09,8.626125,-2.268396,4.725825,0.024422223,0.01099,-0.3834289,10.09401202,0.384363041,crawl
09/07/2020, 21:50:09,8.56152,-2.2588246,4.666004,0.024422223,0.01099,-0.3834289,10.00867133,0.384363041,crawl
09/07/2020, 21:50:09,8.56152,-2.2588246,4.666004,0.029306669,0.006105556,-0.30039334,10.00867133,0.3018813,crawl
09/07/2020, 21:50:09,8.5112705,-2.2612174,4.651647,0.029306669,0.006105556,-0.30039334,9.959550718,0.3018813,crawl
09/07/2020, 21:50:09,8.5112705,-2.2612174,4.651647,0.028085556,-0.003663334,-0.21491556,9.959550718,0.216773882,crawl
09/07/2020, 21:50:09,8.5112705,-2.251646,4.627719,0.028085556,-0.003663334,-0.21491556,9.946226333,0.216773882,crawl
09/07/2020, 21:50:09,8.5112705,-2.251646,4.627719,0.029306669,-0.006105556,-0.13676445,9.946226333,0.140002407,crawl
09/07/2020, 21:50:09,8.544769,-2.2229323,4.6205406,0.029306669,-0.006105556,-0.13676445,9.965134518,0.140002407,crawl
09/07/2020, 21:50:09,8.544769,-2.2229323,4.6205406,0.017095556,0.002442222,-0.05617111,9.965134518,0.058765775,crawl
09/07/2020, 21:50:09,8.592627,-2.1822543,4.627719,0.017095556,0.002442222,-0.05617111,10.00056237,0.058765775,crawl
09/07/2020, 21:50:09,8.592627,-2.1822543,4.627719,0.009768889,0.008547778,0.023201112,10.00056237,0.026585472,crawl
09/07/2020, 21:50:09,8.626125,-2.158326,4.625326,0.009768889,0.008547778,0.023201112,10.02307593,0.026585472,crawl
09/07/2020, 21:50:09,8.626125,-2.158326,4.625326,-0.013432222,0.01099,0.11234222,10.02307593,0.113674887,crawl
09/07/2020, 21:50:09,8.6548395,-2.1176481,4.6301117,-0.013432222,0.01099,0.11234222,10.04134527,0.113674887,crawl
09/07/2020, 21:50:09,8.6548395,-2.1176481,4.6301117,-0.023201112,0.023201112,0.19171445,10.04134527,0.194501963,crawl
09/07/2020, 21:50:09,8.645268,-2.0745773,4.6229334,-0.023201112,0.023201112,0.19171445,10.02078094,0.194501963,crawl
09/07/2020, 21:50:10,8.88455,-1.8185452,5.2737813,0.29917222,-0.29917222,-1.6851335,10.49071524,1.737435698,crawl
09/07/2020, 21:50:10,8.987442,-1.8640088,5.252246,0.29917222,-0.29917222,-1.6851335,10.57519408,1.737435698,crawl
09/07/2020, 21:50:10,8.987442,-1.8640088,5.252246,0.37488112,-0.30894113,-1.6875756,10.57519408,1.756101309,crawl
09/07/2020, 21:50:10,9.071191,-1.8424734,5.259424,0.37488112,-0.30894113,-1.6875756,10.64625541,1.756101309,crawl
09/07/2020, 21:50:10,9.071191,-1.8424734,5.259424,0.4163989,-0.3162678,-1.6887968,10.64625541,1.767893623,crawl
09/07/2020, 21:50:10,9.135797,-1.7754744,5.252246,0.4163989,-0.3162678,-1.6887968,10.68649498,1.767893623,crawl
09/07/2020, 21:50:10,9.135797,-1.7754744,5.252246,0.4383789,-0.3162678,-1.6875756,10.68649498,1.772036317,crawl
09/07/2020, 21:50:10,9.219545,-1.7228323,5.235496,0.4383789,-0.3162678,-1.6875756,10.74144249,1.772036317,crawl
09/07/2020, 21:50:10,9.219545,-1.7228323,5.235496,0.42250445,-0.31016225,-1.680249,10.74144249,1.760098649,crawl
09/07/2020, 21:50:10,9.322437,-1.6342978,5.206782,0.42250445,-0.31016225,-1.680249,10.80228419,1.760098649,crawl
09/07/2020, 21:50:10,9.322437,-1.6342978,5.206782,0.37610224,-0.2955089,-1.6790278,10.80228419,1.745827236,crawl
09/07/2020, 21:50:10,9.389436,-1.5290136,5.178068,0.37610224,-0.2955089,-1.6790278,10.83105612,1.745827236,crawl
09/07/2020, 21:50:10,9.389436,-1.5290136,5.178068,0.31382558,-0.27841336,-1.669259,10.83105612,1.721169933,crawl
09/07/2020, 21:50:10,9.408579,-1.4787644,5.151747,0.31382558,-0.27841336,-1.669259,10.82813927,1.721169933,crawl
09/07/2020, 21:50:10,9.408579,-1.4787644,5.151747,0.2283478,-0.25765446,-1.6497211,10.82813927,1.685262114,crawl
09/07/2020, 21:50:10,9.41815,-1.5002998,5.123033,0.2283478,-0.25765446,-1.6497211,10.82579861,1.685262114,crawl
09/07/2020, 21:50:10,9.41815,-1.5002998,5.123033,0.16607112,-0.23323223,-1.6191934,10.82579861,1.644312704,crawl
09/07/2020, 21:50:10,9.406186,-1.550549,5.1182475,0.16607112,-0.23323223,-1.6191934,10.82021242,1.644312704,crawl
09/07/2020, 21:50:10,9.406186,-1.550549,5.1182475,0.12455334,-0.21613668,-1.5886656,10.82021242,1.608131525,crawl
09/07/2020, 21:50:10,9.379865,-1.6079768,5.1254263,0.12455334,-0.21613668,-1.5886656,10.80913714,1.608131525,crawl
09/07/2020, 21:50:11,7.4392858,-2.4263222,4.9531426,0.31993112,-0.45547447,-1.5447056,9.260865732,1.641928254,crawl
09/07/2020, 21:50:11,7.5828547,-2.4071796,5.0249276,0.31993112,-0.45547447,-1.5447056,9.409787313,1.641928254,crawl
09/07/2020, 21:50:11,7.5828547,-2.4071796,5.0249276,0.34313223,-0.46280113,-1.6228567,9.409787313,1.72208844,crawl
09/07/2020, 21:50:11,7.7407813,-2.416751,5.0847483,0.34313223,-0.46280113,-1.6228567,9.571574852,1.72208844,crawl
09/07/2020, 21:50:11,7.7407813,-2.416751,5.0847483,0.36755446,-0.4701278,-1.6973445,9.571574852,1.79919285,crawl
09/07/2020, 21:50:11,7.9130645,-2.4047868,5.17089,0.36755446,-0.4701278,-1.6973445,9.753855188,1.79919285,crawl
09/07/2020, 21:50:11,7.9130645,-2.4047868,5.17089,0.3944189,-0.48111778,-1.7645056,9.753855188,1.870967848,crawl
09/07/2020, 21:50:11,8.066205,-2.3856442,5.2546387,0.3944189,-0.48111778,-1.7645056,9.917973044,1.870967848,crawl
09/07/2020, 21:50:11,8.066205,-2.3856442,5.2546387,0.40785113,-0.4823389,-1.8231189,9.917973044,1.929444474,crawl
09/07/2020, 21:50:11,8.224132,-2.3688943,5.319245,0.40785113,-0.4823389,-1.8231189,10.07682324,1.929444474,crawl
09/07/2020, 21:50:11,8.224132,-2.3688943,5.319245,0.41762,-0.48600224,-1.8719634,10.07682324,1.978598379,crawl
09/07/2020, 21:50:11,8.372486,-2.3521447,5.367101,0.41762,-0.48600224,-1.8719634,10.21943657,1.978598379,crawl
09/07/2020, 21:50:11,8.372486,-2.3521447,5.367101,0.41884112,-0.48356003,-1.9134812,10.21943657,2.017589806,crawl
09/07/2020, 21:50:11,8.523234,-2.3258235,5.4053864,0.41884112,-0.48356003,-1.9134812,10.35727676,2.017589806,crawl
09/07/2020, 21:50:11,8.523234,-2.3258235,5.4053864,0.40785113,-0.48478112,-1.9488934,10.35727676,2.049278133,crawl
09/07/2020, 21:50:11,8.669196,-2.292324,5.4317074,0.40785113,-0.48478112,-1.9488934,10.48394755,2.049278133,crawl
09/07/2020, 21:50:11,8.669196,-2.292324,5.4317074,0.3809867,-0.4798967,-1.9782001,10.48394755,2.070924249,crawl
09/07/2020, 21:50:11,8.817552,-2.2444677,5.4460645,0.3809867,-0.4798967,-1.9782001,10.60407799,2.070924249,crawl
09/07/2020, 21:50:11,8.817552,-2.2444677,5.4460645,0.3382478,-0.4701278,-2.00018,10.60407799,2.082342857,crawl
09/07/2020, 21:50:11,8.980264,-2.201397,5.4867425,0.3382478,-0.4701278,-2.00018,10.75154073,2.082342857,crawl
09/07/2020, 21:50:12,7.7120676,-2.8498518,4.843073,0.5018767,-0.5030978,-1.6582689,9.542169424,1.804118467,crawl
09/07/2020, 21:50:12,7.865208,-2.861816,4.914858,0.5018767,-0.5030978,-1.6582689,9.706045408,1.804118467,crawl
09/07/2020, 21:50:12,7.865208,-2.861816,4.914858,0.56171113,-0.5104245,-1.7229879,9.706045408,1.882747947,crawl
09/07/2020, 21:50:12,8.003992,-2.8642087,4.965107,0.56171113,-0.5104245,-1.7229879,9.844788868,1.882747947,crawl
09/07/2020, 21:50:12,8.003992,-2.8642087,4.965107,0.6252089,-0.52141446,-1.7779379,9.844788868,1.955459629,crawl
09/07/2020, 21:50:12,8.13799,-2.8474588,5.020142,0.6252089,-0.52141446,-1.7779379,9.976809587,1.955459629,crawl
09/07/2020, 21:50:12,8.13799,-2.8474588,5.020142,0.6935911,-0.5287411,-1.8267823,9.976809587,2.024294828,crawl
09/07/2020, 21:50:12,8.293523,-2.833102,5.0512486,0.6935911,-0.5287411,-1.8267823,10.11553754,2.024294828,crawl
09/07/2020, 21:50:12,8.293523,-2.833102,5.0512486,0.7522045,-0.5324045,-1.8609734,10.11553754,2.076653064,crawl
09/07/2020, 21:50:12,8.453842,-2.8187451,5.111069,0.7522045,-0.5324045,-1.8609734,10.27306185,2.076653064,crawl
09/07/2020, 21:50:12,8.453842,-2.8187451,5.111069,0.7986067,-0.5324045,-1.8939434,10.27306185,2.123263737,crawl
09/07/2020, 21:50:12,8.623733,-2.8139594,5.17089,0.7986067,-0.5324045,-1.8939434,10.44151486,2.123263737,crawl
09/07/2020, 21:50:12,8.623733,-2.8139594,5.17089,0.8413456,-0.52752,-1.9195868,10.44151486,2.161238807,crawl
09/07/2020, 21:50:12,8.772088,-2.8235307,5.245067,0.8413456,-0.52752,-1.9195868,10.60342319,2.161238807,crawl
09/07/2020, 21:50:12,8.772088,-2.8235307,5.245067,0.8853056,-0.5287411,-1.9366823,10.60342319,2.19409928,crawl
09/07/2020, 21:50:12,8.903693,-2.8354948,5.316852,0.8853056,-0.5287411,-1.9366823,10.75103247,2.19409928,crawl
09/07/2020, 21:50:12,8.903693,-2.8354948,5.316852,0.92193896,-0.5250778,-1.9501145,10.75103247,2.220050602,crawl
09/07/2020, 21:50:12,9.032906,-2.8522446,5.400601,0.92193896,-0.5250778,-1.9501145,10.90390631,2.220050602,crawl
09/07/2020, 21:50:12,9.032906,-2.8522446,5.400601,0.94758224,-0.5189722,-1.9525567,10.90390631,2.231529085,crawl
09/07/2020, 21:50:12,9.15494,-2.8546374,5.477171,0.94758224,-0.5189722,-1.9525567,11.04360793,2.231529085,crawl
09/07/2020, 21:50:13,7.140183,-2.6775684,4.85743,-0.042738892,0.10379445,0.5690378,9.04136116,0.580003373,crawl
09/07/2020, 21:50:13,7.140183,-2.6775684,4.85743,-0.004884445,0.07937223,0.5018767,9.04136116,0.508137818,crawl
09/07/2020, 21:50:13,7.0540414,-2.7158537,4.8646083,-0.004884445,0.07937223,0.5018767,8.988869503,0.508137818,crawl
09/07/2020, 21:50:13,7.0540414,-2.7158537,4.8646083,0.035412222,0.057392225,0.42250445,8.988869503,0.42785267,crawl
09/07/2020, 21:50:13,6.9894347,-2.7326035,4.8765726,0.035412222,0.057392225,0.42250445,8.949875992,0.42785267,crawl
09/07/2020, 21:50:13,6.9894347,-2.7326035,4.8765726,0.07570889,0.04396,0.33336335,8.949875992,0.344667149,crawl
09/07/2020, 21:50:13,6.9726853,-2.7206392,4.8861437,0.07570889,0.04396,0.33336335,8.938378977,0.344667149,crawl
09/07/2020, 21:50:13,6.9726853,-2.7206392,4.8861437,0.098910004,0.024422223,0.24666445,8.938378977,0.266876347,crawl
09/07/2020, 21:50:13,6.948757,-2.6895328,4.898108,0.098910004,0.024422223,0.24666445,8.916853409,0.266876347,crawl
09/07/2020, 21:50:13,6.948757,-2.6895328,4.898108,0.11234222,0.017095556,0.16729222,8.916853409,0.202236794,crawl
09/07/2020, 21:50:13,6.9559355,-2.6679974,4.900501,0.11234222,0.017095556,0.16729222,8.917295337,0.202236794,crawl
09/07/2020, 21:50:13,6.9559355,-2.6679974,4.900501,0.12211112,0.01099,0.091583334,8.917295337,0.153034024,crawl
09/07/2020, 21:50:13,6.960721,-2.6895328,4.8861437,0.12211112,0.01099,0.091583334,8.91962015,0.153034024,crawl
09/07/2020, 21:50:13,6.960721,-2.6895328,4.8861437,0.13310112,0,0.013432222,8.91962015,0.133777176,crawl
09/07/2020, 21:50:13,6.960721,-2.7565317,4.8598228,0.13310112,0,0.013432222,8.925692204,0.133777176,crawl
09/07/2020, 21:50:13,6.960721,-2.7565317,4.8598228,0.13920668,-0.013432222,-0.064718895,8.925692204,0.154102106,crawl
09/07/2020, 21:50:13,6.9583282,-2.8378878,4.831109,0.13920668,-0.013432222,-0.064718895,8.933731224,0.154102106,crawl
09/07/2020, 21:50:13,6.9583282,-2.8378878,4.831109,0.15019667,-0.02198,-0.14164889,8.933731224,0.207621213,crawl
09/07/2020, 21:50:13,6.946364,-2.9383862,4.8095737,0.15019667,-0.02198,-0.14164889,8.945282777,0.207621213,crawl
09/07/2020, 21:50:13,6.946364,-2.9383862,4.8095737,0.18927222,-0.029306669,-0.22468445,8.945282777,0.295238813,crawl
09/07/2020, 21:50:14,6.606583,-2.5196424,4.9340005,0.123332225,-0.05372889,-0.08669889,8.622058858,0.160044771,crawl
09/07/2020, 21:50:14,6.606583,-2.5196424,4.9340005,0.14164889,-0.078151114,-0.17584,8.622058858,0.23893872,crawl
09/07/2020, 21:50:14,6.611369,-2.510071,4.95075,0.14164889,-0.078151114,-0.17584,8.632530495,0.23893872,crawl
09/07/2020, 21:50:14,6.611369,-2.510071,4.95075,0.15141778,-0.10501556,-0.26376,8.632530495,0.321752932,crawl
09/07/2020, 21:50:14,6.6448684,-2.495714,4.9531426,0.15141778,-0.10501556,-0.26376,8.655431004,0.321752932,crawl
09/07/2020, 21:50:14,6.6448684,-2.495714,4.9531426,0.16729222,-0.13432223,-0.3504589,8.655431004,0.410914324,crawl
09/07/2020, 21:50:14,6.6927247,-2.498107,4.9674997,0.16729222,-0.13432223,-0.3504589,8.701100846,0.410914324,crawl
09/07/2020, 21:50:14,6.6927247,-2.498107,4.9674997,0.17584,-0.14653334,-0.4371578,8.701100846,0.493455852,crawl
09/07/2020, 21:50:14,6.7405815,-2.510071,4.979464,0.17584,-0.14653334,-0.4371578,8.748197415,0.493455852,crawl
09/07/2020, 21:50:14,6.7405815,-2.510071,4.979464,0.19049335,-0.17217667,-0.5238567,8.748197415,0.583402402,crawl
09/07/2020, 21:50:14,6.7669024,-2.5196424,4.9938207,0.19049335,-0.17217667,-0.5238567,8.779396971,0.583402402,crawl
09/07/2020, 21:50:14,6.7669024,-2.5196424,4.9938207,0.20881,-0.19782001,-0.60811335,8.779396971,0.672708122,crawl
09/07/2020, 21:50:14,6.798009,-2.5316064,4.991428,0.20881,-0.19782001,-0.60811335,8.805470395,0.672708122,crawl
09/07/2020, 21:50:14,6.798009,-2.5316064,4.991428,0.2075889,-0.23323223,-0.6887067,8.805470395,0.756179434,crawl
09/07/2020, 21:50:14,6.843473,-2.5387847,5.0081778,0.2075889,-0.23323223,-0.6887067,8.852140675,0.756179434,crawl
09/07/2020, 21:50:14,6.843473,-2.5387847,5.0081778,0.23323223,-0.2625389,-0.77052116,8.852140675,0.84677436,crawl
09/07/2020, 21:50:14,6.9128647,-2.536392,5.022535,0.23323223,-0.2625389,-0.77052116,8.913295613,0.84677436,crawl
09/07/2020, 21:50:14,6.9128647,-2.536392,5.022535,0.27108666,-0.28574002,-0.84745115,8.913295613,0.934509919,crawl
09/07/2020, 21:50:14,6.991828,-2.5316064,5.046463,0.27108666,-0.28574002,-0.84745115,8.986739029,0.934509919,crawl
09/07/2020, 21:50:14,6.991828,-2.5316064,5.046463,0.28329778,-0.30039334,-0.9317078,8.986739029,1.019104124,crawl
09/07/2020, 21:50:15,6.611369,-2.2492533,4.9674997,0.13310112,-0.11234222,0.003663334,8.57002892,0.174212811,crawl
09/07/2020, 21:50:15,6.611369,-2.2492533,4.9674997,0.15874445,-0.14531223,-0.102573335,8.57002892,0.238404565,crawl
09/07/2020, 21:50:15,6.6329045,-2.2348964,5.0081778,0.15874445,-0.14531223,-0.102573335,8.606510847,0.238404565,crawl
09/07/2020, 21:50:15,6.6329045,-2.2348964,5.0081778,0.17950334,-0.16607112,-0.21125223,8.606510847,0.323154092,crawl
09/07/2020, 21:50:15,6.6711893,-2.2301106,5.046463,0.17950334,-0.16607112,-0.21125223,8.657075096,0.323154092,crawl
09/07/2020, 21:50:15,6.6711893,-2.2301106,5.046463,0.18194556,-0.17339778,-0.31260446,8.657075096,0.401114104,crawl
09/07/2020, 21:50:15,6.7094746,-2.2229323,5.0679984,0.18194556,-0.17339778,-0.31260446,8.697303316,0.401114104,crawl
09/07/2020, 21:50:15,6.7094746,-2.2229323,5.0679984,0.18805112,-0.18683001,-0.4163989,8.697303316,0.493615976,crawl
09/07/2020, 21:50:15,6.73101,-2.2181466,5.0751767,0.18805112,-0.18683001,-0.4163989,8.716885221,0.493615976,crawl
09/07/2020, 21:50:15,6.73101,-2.2181466,5.0751767,0.18805112,-0.19293556,-0.51653004,8.716885221,0.582572426,crawl
09/07/2020, 21:50:15,6.7525454,-2.239682,5.111069,0.18805112,-0.19293556,-0.51653004,8.759912812,0.582572426,crawl
09/07/2020, 21:50:15,6.7525454,-2.239682,5.111069,0.19537778,-0.20270446,-0.61299783,8.759912812,0.67455757,crawl
09/07/2020, 21:50:15,6.802795,-2.2707887,5.1326046,0.19537778,-0.20270446,-0.61299783,8.819191009,0.67455757,crawl
09/07/2020, 21:50:15,6.802795,-2.2707887,5.1326046,0.20881,-0.21491556,-0.7119078,8.819191009,0.772400826,crawl
09/07/2020, 21:50:15,6.862615,-2.3162522,5.1589255,0.20881,-0.21491556,-0.7119078,8.8924138,0.772400826,crawl
09/07/2020, 21:50:15,6.862615,-2.3162522,5.1589255,0.23811668,-0.23689556,-0.80471224,8.8924138,0.87199819,crawl
09/07/2020, 21:50:15,6.91765,-2.376073,5.211568,0.23811668,-0.23689556,-0.80471224,8.981093848,0.87199819,crawl
09/07/2020, 21:50:15,6.91765,-2.376073,5.211568,0.26864445,-0.2515489,-0.8962956,8.981093848,0.96891305,crawl
09/07/2020, 21:50:15,6.977471,-2.4335005,5.259424,0.26864445,-0.2515489,-0.8962956,9.070202183,0.96891305,crawl
09/07/2020, 21:50:15,6.977471,-2.4335005,5.259424,0.3052778,-0.26986557,-0.9817734,9.070202183,1.062967978,crawl
09/07/2020, 21:50:16,7.853244,-2.8522446,5.572884,-0.23201112,0.29184556,1.5141778,10.04319546,1.559402899,crawl
09/07/2020, 21:50:16,7.786245,-2.8689942,5.608776,-0.23201112,0.29184556,1.5141778,10.01574293,1.559402899,crawl
09/07/2020, 21:50:16,7.786245,-2.8689942,5.608776,-0.24666445,0.29673,1.4799867,10.01574293,1.529461535,crawl
09/07/2020, 21:50:16,7.726424,-2.9431717,5.6470613,-0.24666445,0.29673,1.4799867,10.01245189,1.529461535,crawl
09/07/2020, 21:50:16,7.726424,-2.9431717,5.6470613,-0.24055889,0.2869611,1.4445745,10.01245189,1.492317216,crawl
09/07/2020, 21:50:16,7.6713896,-3.0269206,5.6877394,-0.24055889,0.2869611,1.4445745,10.01812584,1.492317216,crawl
09/07/2020, 21:50:16,7.6713896,-3.0269206,5.6877394,-0.21003112,0.2820767,1.40672,10.01812584,1.450014347,crawl
09/07/2020, 21:50:16,7.609176,-3.1489546,5.7284174,-0.21003112,0.2820767,1.40672,10.03146265,1.450014347,crawl
09/07/2020, 21:50:16,7.609176,-3.1489546,5.7284174,-0.16973445,0.26986557,1.3749712,10.03146265,1.411447086,crawl
09/07/2020, 21:50:16,7.542177,-3.278167,5.74756,-0.16973445,0.26986557,1.3749712,10.03320797,1.411447086,crawl
09/07/2020, 21:50:16,7.542177,-3.278167,5.74756,-0.13310112,0.25521225,1.3346745,10.03320797,1.365358986,crawl
09/07/2020, 21:50:16,7.4775705,-3.3355947,5.7260246,-0.13310112,0.25521225,1.3346745,9.991376823,1.365358986,crawl
09/07/2020, 21:50:16,7.4775705,-3.3355947,5.7260246,-0.085477784,0.24178001,1.2919356,9.991376823,1.317141422,crawl
09/07/2020, 21:50:16,7.389036,-3.2973096,5.692525,-0.085477784,0.24178001,1.2919356,9.893176757,1.317141422,crawl
09/07/2020, 21:50:16,7.389036,-3.2973096,5.692525,-0.06227667,0.2295689,1.24187,9.893176757,1.264445125,crawl
09/07/2020, 21:50:16,7.298109,-3.1944182,5.623133,-0.06227667,0.2295689,1.24187,9.751221982,1.264445125,crawl
09/07/2020, 21:50:16,7.298109,-3.1944182,5.623133,-0.07204556,0.22224224,1.1979101,9.751221982,1.220479705,crawl
09/07/2020, 21:50:16,7.183254,-3.0819557,5.5513487,-0.07204556,0.22224224,1.1979101,9.587234098,1.220479705,crawl
09/07/2020, 21:50:16,7.183254,-3.0819557,5.5513487,-0.10379445,0.22102112,1.1515079,9.587234098,1.177112552,crawl
09/07/2020, 21:50:16,7.0899334,-2.981457,5.491528,-0.10379445,0.22102112,1.1515079,9.450561968,1.177112552,crawl
09/07/2020, 21:50:17,8.523234,-2.565106,5.74756,-0.09646778,0.3052778,1.5886656,10.59526964,1.620604507,crawl
09/07/2020, 21:50:17,8.523234,-2.565106,5.74756,-0.09036223,0.30283555,1.5801178,10.59526964,1.611411504,crawl
09/07/2020, 21:50:17,8.46102,-2.6273193,5.709275,-0.09036223,0.30283555,1.5801178,10.53980515,1.611411504,crawl
09/07/2020, 21:50:17,8.46102,-2.6273193,5.709275,-0.08669889,0.28818223,1.5654645,10.53980515,1.594128221,crawl
09/07/2020, 21:50:17,8.382058,-2.6249263,5.6446686,-0.08669889,0.28818223,1.5654645,10.44085343,1.594128221,crawl
09/07/2020, 21:50:17,8.382058,-2.6249263,5.6446686,-0.09524667,0.28574002,1.5349368,10.44085343,1.564209136,crawl
09/07/2020, 21:50:17,8.26481,-2.565106,5.5465627,-0.09524667,0.28574002,1.5349368,10.27867714,1.564209136,crawl
09/07/2020, 21:50:17,8.26481,-2.565106,5.5465627,-0.12577444,0.2820767,1.5019667,10.27867714,1.533391822,crawl
09/07/2020, 21:50:17,8.116454,-2.469393,5.4556355,-0.12577444,0.2820767,1.5019667,10.0865598,1.533391822,crawl
09/07/2020, 21:50:17,8.116454,-2.469393,5.4556355,-0.16485001,0.27963445,1.4653333,10.0865598,1.50085734,crawl
09/07/2020, 21:50:17,7.9704924,-2.4095724,5.386244,-0.16485001,0.27963445,1.4653333,9.916975848,1.50085734,crawl
09/07/2020, 21:50:17,7.9704924,-2.4095724,5.386244,-0.21003112,0.27475002,1.4299212,9.916975848,1.47114756,crawl
09/07/2020, 21:50:17,7.84128,-2.3904297,5.3336015,-0.21003112,0.27475002,1.4299212,9.779935112,1.47114756,crawl
09/07/2020, 21:50:17,7.84128,-2.3904297,5.3336015,-0.22712667,0.26376,1.3786345,9.779935112,1.421896205,crawl
09/07/2020, 21:50:17,7.7240314,-2.4119651,5.2977095,-0.22712667,0.26376,1.3786345,9.671812818,1.421896205,crawl
09/07/2020, 21:50:17,7.7240314,-2.4119651,5.2977095,-0.22346334,0.24422224,1.3188001,9.671812818,1.359711017,crawl
09/07/2020, 21:50:17,7.6163545,-2.440679,5.278567,-0.22346334,0.24422224,1.3188001,9.582746868,1.359711017,crawl
09/07/2020, 21:50:17,7.6163545,-2.440679,5.278567,-0.18927222,0.23079,1.2553023,9.582746868,1.290299148,crawl
09/07/2020, 21:50:17,7.5326056,-2.4717858,5.3144593,-0.18927222,0.23079,1.2553023,9.544283667,1.290299148,crawl
09/07/2020, 21:50:17,7.5326056,-2.4717858,5.3144593,-0.16118668,0.2185789,1.2040156,9.544283667,1.234265563,crawl
09/07/2020, 21:50:18,8.76491,-3.656233,6.6711893,0.59346,0.54095227,1.9598835,11.60587997,2.118010221,crawl
09/07/2020, 21:50:18,8.717052,-3.603591,6.7022963,0.59346,0.54095227,1.9598835,11.57124222,2.118010221,crawl
09/07/2020, 21:50:18,8.717052,-3.603591,6.7022963,0.7351089,0.5653745,1.9891901,11.57124222,2.194746156,crawl
09/07/2020, 21:50:18,8.678768,-3.455236,6.63769,0.7351089,0.5653745,1.9891901,11.45943287,2.194746156,crawl
09/07/2020, 21:50:18,8.678768,-3.455236,6.63769,0.84623003,0.5836911,2.0062857,11.45943287,2.254325346,crawl
09/07/2020, 21:50:18,8.650054,-3.2039895,6.5754766,0.84623003,0.5836911,2.0062857,11.32810115,2.254325346,crawl
09/07/2020, 21:50:18,8.650054,-3.2039895,6.5754766,0.8962956,0.6020078,2.0026224,11.32810115,2.275138579,crawl
09/07/2020, 21:50:18,8.633304,-2.8881369,6.539584,0.8962956,0.6020078,2.0026224,11.20898868,2.275138579,crawl
09/07/2020, 21:50:18,8.633304,-2.8881369,6.539584,0.87920004,0.6386411,1.9977379,11.20898868,2.27416179,crawl
09/07/2020, 21:50:18,8.575876,-2.6249263,6.4845495,0.87920004,0.6386411,1.9977379,11.06730654,2.27416179,crawl
09/07/2020, 21:50:18,8.575876,-2.6249263,6.4845495,0.81326,0.6887067,2.0038433,11.06730654,2.269602779,crawl
09/07/2020, 21:50:18,8.508878,-2.4263222,6.4008007,0.81326,0.6887067,2.0038433,10.92054439,2.269602779,crawl
09/07/2020, 21:50:18,8.508878,-2.4263222,6.4008007,0.7131289,0.73755115,2.0087278,10.92054439,2.255553567,crawl
09/07/2020, 21:50:18,8.456235,-2.3258235,6.410372,0.7131289,0.73755115,2.0087278,10.86325139,2.255553567,crawl
09/07/2020, 21:50:18,8.456235,-2.3258235,6.410372,0.62154555,0.77418447,1.9977379,10.86325139,2.230837761,crawl
09/07/2020, 21:50:18,8.343773,-2.3712873,6.407979,0.62154555,0.77418447,1.9977379,10.78442139,2.230837761,crawl
09/07/2020, 21:50:18,8.343773,-2.3712873,6.407979,0.54339445,0.80104893,1.9830846,10.78442139,2.206712779,crawl
09/07/2020, 21:50:18,8.271988,-2.4239295,6.4414787,0.54339445,0.80104893,1.9830846,10.76075584,2.206712779,crawl
09/07/2020, 21:50:18,8.271988,-2.4239295,6.4414787,0.48600224,0.81081784,1.9806423,10.76075584,2.194668024,crawl
09/07/2020, 21:50:18,8.207381,-2.4765713,6.4534426,0.48600224,0.81081784,1.9806423,10.73039764,2.194668024,crawl
09/07/2020, 21:50:19,3.7160535,-2.9312077,8.609376,0.034191113,-0.006105556,-0.006105556,9.824580711,0.035264541,crawl
09/07/2020, 21:50:19,3.7160535,-2.9312077,8.609376,0.01099,-0.01099,-0.009768889,9.824580711,0.018357326,crawl
09/07/2020, 21:50:19,3.7184465,-2.9096723,8.628518,0.01099,-0.01099,-0.009768889,9.83587117,0.018357326,crawl
09/07/2020, 21:50:19,3.7184465,-2.9096723,8.628518,-0.02075889,0,-0.012211111,9.83587117,0.024084076,crawl
09/07/2020, 21:50:19,3.7136607,-2.9120653,8.602198,-0.02075889,0,-0.012211111,9.811687133,0.024084076,crawl
09/07/2020, 21:50:19,3.7136607,-2.9120653,8.602198,-0.04029667,0.001221111,-0.013432222,9.811687133,0.042493968,crawl
09/07/2020, 21:50:19,3.7184465,-2.9479575,8.578269,-0.04029667,0.001221111,-0.013432222,9.803264607,0.042493968,crawl
09/07/2020, 21:50:19,3.7184465,-2.9479575,8.578269,-0.04029667,-0.008547778,-0.014653334,9.803264607,0.043721921,crawl
09/07/2020, 21:50:19,3.6921253,-3.0460632,8.5423765,-0.04029667,-0.008547778,-0.014653334,9.791960319,0.043721921,crawl
09/07/2020, 21:50:19,3.6921253,-3.0460632,8.5423765,-0.026864445,-0.006105556,-0.017095556,9.791960319,0.032422743,crawl
09/07/2020, 21:50:19,3.6801612,-3.0699914,8.520842,-0.026864445,-0.006105556,-0.017095556,9.776153393,0.032422743,crawl
09/07/2020, 21:50:19,3.6801612,-3.0699914,8.520842,-0.006105556,-0.012211111,-0.019537779,9.776153393,0.023835139,crawl
09/07/2020, 21:50:19,3.6681972,-3.0723844,8.535198,-0.006105556,-0.012211111,-0.019537779,9.784928437,0.023835139,crawl
09/07/2020, 21:50:19,3.6681972,-3.0723844,8.535198,0.01099,-0.017095556,-0.02198,9.784928437,0.029935908,crawl
09/07/2020, 21:50:19,3.6227336,-3.0388846,8.532805,0.01099,-0.017095556,-0.02198,9.755397853,0.029935908,crawl
09/07/2020, 21:50:19,3.6227336,-3.0388846,8.532805,0.012211111,-0.02198,-0.025643334,9.755397853,0.035913956,crawl
09/07/2020, 21:50:19,3.6251264,-3.0029924,8.506484,0.012211111,-0.02198,-0.025643334,9.722128112,0.035913956,crawl
09/07/2020, 21:50:19,3.6251264,-3.0029924,8.506484,0.008547778,-0.023201112,-0.025643334,9.722128112,0.035622137,crawl
09/07/2020, 21:50:19,3.6346977,-2.9838498,8.508878,0.008547778,-0.023201112,-0.025643334,9.72190245,0.035622137,crawl
09/07/2020, 21:50:19,3.6346977,-2.9838498,8.508878,0.001221111,-0.02198,-0.025643334,9.72190245,0.033796333,crawl
09/07/2020, 21:50:20,8.568698,-2.6488547,6.003592,-0.54461557,0.30649891,-0.17095557,10.79268885,0.647899303,crawl
09/07/2020, 21:50:20,8.568698,-2.6488547,6.003592,-0.59590226,0.34191114,-0.03297,10.79268885,0.687815204,crawl
09/07/2020, 21:50:20,8.499306,-2.684747,5.845666,-0.59590226,0.34191114,-0.03297,10.65916856,0.687815204,crawl
09/07/2020, 21:50:20,8.499306,-2.684747,5.845666,-0.63742,0.36755446,0.106236674,10.65916856,0.743429058,crawl
09/07/2020, 21:50:20,8.46102,-2.6895328,5.6997037,-0.63742,0.36755446,0.106236674,10.55031166,0.743429058,crawl
09/07/2020, 21:50:20,8.46102,-2.6895328,5.6997037,-0.67161113,0.39197668,0.23811668,10.55031166,0.813269196,crawl
09/07/2020, 21:50:20,8.432307,-2.6656044,5.503492,-0.67161113,0.39197668,0.23811668,10.41622172,0.813269196,crawl
09/07/2020, 21:50:20,8.432307,-2.6656044,5.503492,-0.70580226,0.40174556,0.36755446,10.41622172,0.891432894,crawl
09/07/2020, 21:50:20,8.413164,-2.6368906,5.3216376,-0.70580226,0.40174556,0.36755446,10.29826928,0.891432894,crawl
09/07/2020, 21:50:20,8.413164,-2.6368906,5.3216376,-0.7387723,0.41029334,0.49577114,10.29826928,0.979752071,crawl
09/07/2020, 21:50:20,8.396415,-2.5914268,5.1756754,-0.7387723,0.41029334,0.49577114,10.1981807,0.979752071,crawl
09/07/2020, 21:50:20,8.396415,-2.5914268,5.1756754,-0.78029,0.4151778,0.6142189,10.1981807,1.076331706,crawl
09/07/2020, 21:50:20,8.396415,-2.4789643,5.0416775,-0.78029,0.4151778,0.6142189,10.10265097,1.076331706,crawl
09/07/2020, 21:50:20,8.396415,-2.4789643,5.0416775,-0.8364611,0.4261678,0.7326667,10.10265097,1.190834434,crawl
09/07/2020, 21:50:20,8.480164,-2.4239295,4.9674997,-0.8364611,0.4261678,0.7326667,10.12248299,1.190834434,crawl
09/07/2020, 21:50:20,8.480164,-2.4239295,4.9674997,-0.90118,0.43471557,0.8401245,10.12248299,1.30648851,crawl
09/07/2020, 21:50:20,8.559127,-2.361716,4.965107,-0.90118,0.43471557,0.8401245,10.17293676,1.30648851,crawl
09/07/2020, 21:50:20,8.559127,-2.361716,4.965107,-0.97688895,0.44326335,0.9378134,10.17293676,1.424881891,crawl
09/07/2020, 21:50:20,8.623733,-2.347359,4.941179,-0.97688895,0.44326335,0.9378134,10.21244855,1.424881891,crawl
09/07/2020, 21:50:20,8.623733,-2.347359,4.941179,-1.0623667,0.4493689,1.0293967,10.21244855,1.546031348,crawl
09/07/2020, 21:50:21,8.372486,-2.7565317,5.460421,-0.089141116,0.017095556,-0.22102112,10.3688567,0.23893248,crawl
09/07/2020, 21:50:21,8.350951,-2.7613173,5.4436717,-0.089141116,0.017095556,-0.22102112,10.34392674,0.23893248,crawl
09/07/2020, 21:50:21,8.350951,-2.7613173,5.4436717,-0.11234222,0.03297,-0.117226675,10.34392674,0.165680082,crawl
09/07/2020, 21:50:21,8.350951,-2.766103,5.4125648,-0.11234222,0.03297,-0.117226675,10.32887066,0.165680082,crawl
09/07/2020, 21:50:21,8.350951,-2.766103,5.4125648,-0.13188,0.046402223,-0.015874445,10.32887066,0.140703585,crawl
09/07/2020, 21:50:21,8.312666,-2.754139,5.3742795,-0.13188,0.046402223,-0.015874445,10.274657,0.140703585,crawl
09/07/2020, 21:50:21,8.312666,-2.754139,5.3742795,-0.15508112,0.054950003,0.08059334,10.274657,0.18320738,crawl
09/07/2020, 21:50:21,8.288737,-2.725425,5.3814583,-0.15508112,0.054950003,0.08059334,10.25139994,0.18320738,crawl
09/07/2020, 21:50:21,8.288737,-2.725425,5.3814583,-0.18072446,0.07204556,0.1746189,10.25139994,0.261426188,crawl
09/07/2020, 21:50:21,8.283952,-2.6129622,5.367101,-0.18072446,0.07204556,0.1746189,10.21064169,0.261426188,crawl
09/07/2020, 21:50:21,8.283952,-2.6129622,5.367101,-0.2295689,0.08425667,0.26986557,10.21064169,0.364181951,crawl
09/07/2020, 21:50:21,8.29113,-2.5627131,5.383851,-0.2295689,0.08425667,0.26986557,10.21255054,0.364181951,crawl
09/07/2020, 21:50:21,8.29113,-2.5627131,5.383851,-0.2955089,0.10013112,0.36267,10.21255054,0.478415382,crawl
09/07/2020, 21:50:21,8.329415,-2.4622145,5.4029937,-0.2955089,0.10013112,0.36267,10.22907622,0.478415382,crawl
09/07/2020, 21:50:21,8.329415,-2.4622145,5.4029937,-0.36389112,0.13676445,0.4481478,10.22907622,0.593260246,crawl
09/07/2020, 21:50:21,8.394022,-2.3928227,5.4221363,-0.36389112,0.13676445,0.4481478,10.2754449,0.593260246,crawl
09/07/2020, 21:50:21,8.394022,-2.3928227,5.4221363,-0.40907225,0.17095557,0.54095227,10.2754449,0.699424953,crawl
09/07/2020, 21:50:21,8.449057,-2.400001,5.4676,-0.40907225,0.17095557,0.54095227,10.34607226,0.699424953,crawl
09/07/2020, 21:50:21,8.449057,-2.400001,5.4676,-0.4371578,0.20270446,0.63619894,10.34607226,0.798088427,crawl
09/07/2020, 21:50:21,8.458628,-2.5268207,5.5369916,-0.4371578,0.20270446,0.63619894,10.42072364,0.798088427,crawl
09/07/2020, 21:50:22,11.08834,-4.4841495,5.1086764,0.65329444,-0.62765115,-2.3335435,13.00605439,2.503230923,crawl
09/07/2020, 21:50:22,11.014163,-4.4410787,5.0416775,0.65329444,-0.62765115,-2.3335435,12.9016851,2.503230923,crawl
09/07/2020, 21:50:22,11.014163,-4.4410787,5.0416775,0.6789378,-0.6105556,-2.206548,12.9016851,2.388009343,crawl
09/07/2020, 21:50:22,10.928021,-4.302295,4.9316072,0.6789378,-0.6105556,-2.206548,12.73782346,2.388009343,crawl
09/07/2020, 21:50:22,10.928021,-4.302295,4.9316072,0.6777167,-0.58979666,-2.0734468,12.73782346,2.259721536,crawl
09/07/2020, 21:50:22,10.798809,-4.168297,4.843073,0.6777167,-0.58979666,-2.0734468,12.54768227,2.259721536,crawl
09/07/2020, 21:50:22,10.798809,-4.168297,4.843073,0.63009334,-0.5507211,-1.9427879,12.54768227,2.115357209,crawl
09/07/2020, 21:50:22,10.602597,-4.0127635,4.735396,0.63009334,-0.5507211,-1.9427879,12.28581757,2.115357209,crawl
09/07/2020, 21:50:22,10.602597,-4.0127635,4.735396,0.53851,-0.50798225,-1.8084656,12.28581757,1.954120478,crawl
09/07/2020, 21:50:22,10.3441725,-3.8691943,4.625326,0.53851,-0.50798225,-1.8084656,11.97356299,1.954120478,crawl
09/07/2020, 21:50:22,10.3441725,-3.8691943,4.625326,0.41884112,-0.4701278,-1.6607112,11.97356299,1.776065769,crawl
09/07/2020, 21:50:22,10.037891,-3.7878382,4.4889355,0.41884112,-0.4701278,-1.6607112,11.63002681,1.776065769,crawl
09/07/2020, 21:50:22,10.037891,-3.7878382,4.4889355,0.29917222,-0.44448447,-1.4946401,11.63002681,1.587771876,crawl
09/07/2020, 21:50:22,9.786645,-3.7447674,4.3932223,0.29917222,-0.44448447,-1.4946401,11.36231071,1.587771876,crawl
09/07/2020, 21:50:22,9.786645,-3.7447674,4.3932223,0.19293556,-0.40052447,-1.32979,11.36231071,1.402136017,crawl
09/07/2020, 21:50:22,9.473185,-3.7208393,4.409972,0.19293556,-0.40052447,-1.32979,11.09205688,1.402136017,crawl
09/07/2020, 21:50:22,9.473185,-3.7208393,4.409972,0.10013112,-0.36267,-1.1722667,11.09205688,1.231164099,crawl
09/07/2020, 21:50:22,9.126225,-3.7591243,4.479364,0.10013112,-0.36267,-1.1722667,10.83899017,1.231164099,crawl
09/07/2020, 21:50:22,9.126225,-3.7591243,4.479364,0.037854444,-0.34801668,-1.0013112,10.83899017,1.060741558,crawl
09/07/2020, 21:50:22,8.740981,-3.8333018,4.5008993,0.037854444,-0.34801668,-1.0013112,10.55258489,1.060741558,crawl
09/07/2020, 21:50:23,10.303494,-2.6991038,3.2542388,0.07448778,-0.07937223,-2.3970413,11.13720027,2.399511507,crawl
09/07/2020, 21:50:23,10.411171,-2.7493532,3.2542388,0.07448778,-0.07937223,-2.3970413,11.24906636,2.399511507,crawl
09/07/2020, 21:50:23,10.411171,-2.7493532,3.2542388,0.08425667,-0.06716111,-2.4178002,11.24906636,2.420199899,crawl
09/07/2020, 21:50:23,10.466207,-2.7900312,3.318845,0.08425667,-0.06716111,-2.4178002,11.328746,2.420199899,crawl
09/07/2020, 21:50:23,10.466207,-2.7900312,3.318845,0.09280445,-0.05617111,-2.4361167,11.328746,2.43853079,crawl
09/07/2020, 21:50:23,10.509277,-2.7876384,3.4480574,0.09280445,-0.05617111,-2.4361167,11.40635517,2.43853079,crawl
09/07/2020, 21:50:23,10.509277,-2.7876384,3.4480574,0.09036223,-0.051286668,-2.4446645,11.40635517,2.446871485,crawl
09/07/2020, 21:50:23,10.607383,-2.6871397,3.5700915,0.09036223,-0.051286668,-2.4446645,11.51011914,2.446871485,crawl
09/07/2020, 21:50:23,10.607383,-2.6871397,3.5700915,0.07448778,-0.057392225,-2.4458857,11.51011914,2.447692577,crawl
09/07/2020, 21:50:23,10.727024,-2.617748,3.682554,0.07448778,-0.057392225,-2.4458857,11.63971023,2.447692577,crawl
09/07/2020, 21:50:23,10.727024,-2.617748,3.682554,0.018316668,-0.04029667,-2.438559,11.63971023,2.43896076,crawl
09/07/2020, 21:50:23,10.889736,-2.5986054,3.7686956,0.018316668,-0.04029667,-2.438559,11.81279689,2.43896076,crawl
09/07/2020, 21:50:23,10.889736,-2.5986054,3.7686956,-0.06594,-0.002442222,-2.4141366,11.81279689,2.415038261,crawl
09/07/2020, 21:50:23,11.097912,-2.6775684,3.7950168,-0.06594,-0.002442222,-2.4141366,12.03059317,2.415038261,crawl
09/07/2020, 21:50:23,11.097912,-2.6775684,3.7950168,-0.15141778,0.051286668,-2.38483,12.03059317,2.390182375,crawl
09/07/2020, 21:50:23,11.229517,-2.7158537,3.7878382,-0.15141778,0.051286668,-2.38483,12.15835644,2.390182375,crawl
09/07/2020, 21:50:23,11.229517,-2.7158537,3.7878382,-0.22346334,0.10867889,-2.3555233,12.15835644,2.368593931,crawl
09/07/2020, 21:50:23,11.279766,-2.754139,3.737589,-0.22346334,0.10867889,-2.3555233,12.19786764,2.368593931,crawl
09/07/2020, 21:50:23,11.279766,-2.754139,3.737589,-0.2869611,0.14287001,-2.3140056,12.19786764,2.3361037,crawl
09/07/2020, 21:50:23,11.30848,-2.7876384,3.7280176,-0.2869611,0.14287001,-2.3140056,12.22909518,2.3361037,crawl
09/07/2020, 21:50:24,8.973084,-1.538585,3.1633115,0.34069002,-0.21247335,0.4383789,9.637947277,0.594466712,crawl
09/07/2020, 21:50:24,8.973084,-1.538585,3.1633115,0.30649891,-0.17217667,0.31504667,9.637947277,0.47206016,crawl
09/07/2020, 21:50:24,8.980264,-1.4979069,3.103491,0.30649891,-0.17217667,0.31504667,9.618758665,0.47206016,crawl
09/07/2020, 21:50:24,8.980264,-1.4979069,3.103491,0.26620224,-0.13920668,0.19293556,9.618758665,0.357024174,crawl
09/07/2020, 21:50:24,8.949157,-1.4715859,3.0269206,0.26620224,-0.13920668,0.19293556,9.561130674,0.357024174,crawl
09/07/2020, 21:50:24,8.949157,-1.4715859,3.0269206,0.23933779,-0.10867889,0.07448778,9.561130674,0.273207078,crawl
09/07/2020, 21:50:24,8.882157,-1.4835501,3.0173492,0.23933779,-0.10867889,0.07448778,9.49726466,0.273207078,crawl
09/07/2020, 21:50:24,8.882157,-1.4835501,3.0173492,0.23323223,-0.09524667,-0.04151778,9.49726466,0.255329058,crawl
09/07/2020, 21:50:24,8.860622,-1.5337993,3.0053852,0.23323223,-0.09524667,-0.04151778,9.481324256,0.255329058,crawl
09/07/2020, 21:50:24,8.860622,-1.5337993,3.0053852,0.23811668,-0.09402556,-0.15019667,9.481324256,0.296815431,crawl
09/07/2020, 21:50:24,8.853444,-1.6151553,3.0317063,0.23811668,-0.09402556,-0.15019667,9.496496327,0.296815431,crawl
09/07/2020, 21:50:24,8.853444,-1.6151553,3.0317063,0.26498112,-0.09768889,-0.24788557,9.496496327,0.375773029,crawl
09/07/2020, 21:50:24,8.841479,-1.7156538,3.062813,0.26498112,-0.09768889,-0.24788557,9.512941073,0.375773029,crawl
09/07/2020, 21:50:24,8.841479,-1.7156538,3.062813,0.28329778,-0.08792,-0.34801668,9.512941073,0.457277997,crawl
09/07/2020, 21:50:24,8.872586,-1.7754744,3.050849,0.28329778,-0.08792,-0.34801668,9.548967253,0.457277997,crawl
09/07/2020, 21:50:24,8.872586,-1.7754744,3.050849,0.2942878,-0.07448778,-0.44570556,9.548967253,0.539265415,crawl
09/07/2020, 21:50:24,8.874979,-1.7682959,3.0317063,0.2942878,-0.07448778,-0.44570556,9.543760591,0.539265415,crawl
09/07/2020, 21:50:24,8.874979,-1.7682959,3.0317063,0.29184556,-0.06594,-0.5360678,9.543760591,0.61391415,crawl
09/07/2020, 21:50:24,8.8701935,-1.8137596,3.0149565,0.29184556,-0.06594,-0.5360678,9.54253733,0.61391415,crawl
09/07/2020, 21:50:24,8.8701935,-1.8137596,3.0149565,0.28574002,-0.06105556,-0.6191034,9.54253733,0.684590479,crawl
09/07/2020, 21:50:25,8.9013,-2.5746772,3.9840498,0.12455334,-0.18805112,1.27484,10.0863653,1.294640404,crawl
09/07/2020, 21:50:25,8.800801,-2.498107,3.9050865,0.12455334,-0.18805112,1.27484,9.947077068,1.294640404,crawl
09/07/2020, 21:50:25,8.800801,-2.498107,3.9050865,0.091583334,-0.17217667,1.2089001,9.947077068,1.224529196,crawl
09/07/2020, 21:50:25,8.685946,-2.524428,3.8404803,0.091583334,-0.17217667,1.2089001,9.826886145,1.224529196,crawl
09/07/2020, 21:50:25,8.685946,-2.524428,3.8404803,0.068382226,-0.15874445,1.1368545,9.826886145,1.149919194,crawl
09/07/2020, 21:50:25,8.568698,-2.5268207,3.7878382,0.068382226,-0.15874445,1.1368545,9.70335639,1.149919194,crawl
09/07/2020, 21:50:25,8.568698,-2.5268207,3.7878382,0.06349778,-0.15508112,1.0574822,9.70335639,1.070677737,crawl
09/07/2020, 21:50:25,8.446664,-2.5435705,3.7543387,0.06349778,-0.15508112,1.0574822,9.587019384,1.070677737,crawl
09/07/2020, 21:50:25,8.446664,-2.5435705,3.7543387,0.07448778,-0.16118668,0.97933114,9.587019384,0.995298472,crawl
09/07/2020, 21:50:25,8.293523,-2.5866413,3.6777685,0.07448778,-0.16118668,0.97933114,9.433939537,0.995298472,crawl
09/07/2020, 21:50:25,8.293523,-2.5866413,3.6777685,0.09768889,-0.16973445,0.8987378,9.433939537,0.919827437,crawl
09/07/2020, 21:50:25,8.185846,-2.617748,3.6227336,0.09768889,-0.16973445,0.8987378,9.326568689,0.919827437,crawl
09/07/2020, 21:50:25,8.185846,-2.617748,3.6227336,0.1306589,-0.16973445,0.8205867,9.326568689,0.848082562,crawl
09/07/2020, 21:50:25,8.080562,-2.656033,3.5844483,0.1306589,-0.16973445,0.8205867,9.230290232,0.848082562,crawl
09/07/2020, 21:50:25,8.080562,-2.656033,3.5844483,0.16973445,-0.1746189,0.74609894,9.230290232,0.784834482,crawl
09/07/2020, 21:50:25,8.02792,-2.6799614,3.534199,0.16973445,-0.1746189,0.74609894,9.171709313,0.784834482,crawl
09/07/2020, 21:50:25,8.02792,-2.6799614,3.534199,0.21247335,-0.18316667,0.6679478,9.171709313,0.724464805,crawl
09/07/2020, 21:50:25,7.9920278,-2.7110682,3.4839497,0.21247335,-0.18316667,0.6679478,9.130186388,0.724464805,crawl
09/07/2020, 21:50:25,7.9920278,-2.7110682,3.4839497,0.25399113,-0.19415668,0.5910178,9.130186388,0.671945182,crawl
09/07/2020, 21:50:25,7.972885,-2.7278178,3.4528432,0.25399113,-0.19415668,0.5910178,9.106591746,0.671945182,crawl
09/07/2020, 21:50:26,9.236296,-3.3619158,3.723232,-0.07570889,0.08303556,1.1979101,10.51066568,1.203168848,crawl
09/07/2020, 21:50:26,9.236296,-3.3619158,3.723232,-0.054950003,0.07326667,1.2455333,10.51066568,1.248895843,crawl
09/07/2020, 21:50:26,9.29133,-3.3260236,3.7208393,-0.054950003,0.07326667,1.2455333,10.54684299,1.248895843,crawl
09/07/2020, 21:50:26,9.29133,-3.3260236,3.7208393,-0.04151778,0.06105556,1.2919356,10.54684299,1.294043665,crawl
09/07/2020, 21:50:26,9.3511505,-3.2757742,3.6897326,-0.04151778,0.06105556,1.2919356,10.57302412,1.294043665,crawl
09/07/2020, 21:50:26,9.3511505,-3.2757742,3.6897326,-0.03052778,0.05617111,1.3322322,10.57302412,1.333765299,crawl
09/07/2020, 21:50:26,9.372686,-3.225525,3.696911,-0.03052778,0.05617111,1.3322322,10.5791499,1.333765299,crawl
09/07/2020, 21:50:26,9.372686,-3.225525,3.696911,-0.029306669,0.05006556,1.3737501,10.5791499,1.374974455,crawl
09/07/2020, 21:50:26,9.425328,-3.1680973,3.6921253,-0.029306669,0.05006556,1.3737501,10.60685827,1.374974455,crawl
09/07/2020, 21:50:26,9.425328,-3.1680973,3.6921253,-0.04029667,0.051286668,1.4152678,10.60685827,1.416769975,crawl
09/07/2020, 21:50:26,9.439685,-3.129812,3.7088752,-0.04029667,0.051286668,1.4152678,10.61410046,1.416769975,crawl
09/07/2020, 21:50:26,9.439685,-3.129812,3.7088752,-0.046402223,0.05250778,1.4409112,10.61410046,1.442614032,crawl
09/07/2020, 21:50:26,9.461221,-3.07717,3.6921253,-0.046402223,0.05250778,1.4409112,10.61204325,1.442614032,crawl
09/07/2020, 21:50:26,9.461221,-3.07717,3.6921253,-0.048844445,0.046402223,1.4726601,10.61204325,1.47420033,crawl
09/07/2020, 21:50:26,9.432507,-3.0293136,3.6394832,-0.048844445,0.046402223,1.4726601,10.55437155,1.47420033,crawl
09/07/2020, 21:50:26,9.432507,-3.0293136,3.6394832,-0.042738892,0.036633335,1.504409,10.55437155,1.505461697,crawl
09/07/2020, 21:50:26,9.432507,-2.9958138,3.6370904,-0.042738892,0.036633335,1.504409,10.54397968,1.505461697,crawl
09/07/2020, 21:50:26,9.432507,-2.9958138,3.6370904,-0.02198,0.023201112,1.5239468,10.54397968,1.524281846,crawl
09/07/2020, 21:50:26,9.415757,-2.9838498,3.6203406,-0.02198,0.023201112,1.5239468,10.51982455,1.524281846,crawl
09/07/2020, 21:50:26,9.415757,-2.9838498,3.6203406,-0.01099,0.014653334,1.5373789,10.51982455,1.537488018,crawl
09/07/2020, 21:50:27,9.41815,-1.3471591,4.199404,-0.5250778,0.5043189,0.16729222,10.39958548,0.747014692,crawl
09/07/2020, 21:50:27,9.391829,-1.1820544,4.0438704,-0.5250778,0.5043189,0.16729222,10.29352146,0.747014692,crawl
09/07/2020, 21:50:27,9.391829,-1.1820544,4.0438704,-0.5519422,0.52141446,0.18438779,10.29352146,0.781352749,crawl
09/07/2020, 21:50:27,9.375079,-0.9595219,3.9194436,-0.5519422,0.52141446,0.18438779,10.20660715,0.781352749,crawl
09/07/2020, 21:50:27,9.375079,-0.9595219,3.9194436,-0.58247,0.5262989,0.21369445,10.20660715,0.813589043,crawl
09/07/2020, 21:50:27,9.430114,-0.72502524,3.8356948,-0.58247,0.5262989,0.21369445,10.20613846,0.813589043,crawl
09/07/2020, 21:50:27,9.430114,-0.72502524,3.8356948,-0.6227667,0.53973114,0.24178001,10.20613846,0.85883969,crawl
09/07/2020, 21:50:27,9.513863,-0.5240282,3.8333018,-0.6227667,0.53973114,0.24178001,10.27046201,0.85883969,crawl
09/07/2020, 21:50:27,9.513863,-0.5240282,3.8333018,-0.67283225,0.55316335,0.27108666,10.27046201,0.912239501,crawl
09/07/2020, 21:50:27,9.645468,-0.40917268,3.885944,-0.67283225,0.55316335,0.27108666,10.40687419,0.912239501,crawl
09/07/2020, 21:50:27,9.645468,-0.40917268,3.885944,-0.7228978,0.5702589,0.29795113,10.40687419,0.967755846,crawl
09/07/2020, 21:50:27,9.729217,-0.31585258,3.926622,-0.7228978,0.5702589,0.29795113,10.49646501,0.967755846,crawl
09/07/2020, 21:50:27,9.729217,-0.31585258,3.926622,-0.76441556,0.5836911,0.3260367,10.49646501,1.015542417,crawl
09/07/2020, 21:50:27,9.717253,-0.20578274,3.8668015,-0.76441556,0.5836911,0.3260367,10.46037767,1.015542417,crawl
09/07/2020, 21:50:27,9.717253,-0.20578274,3.8668015,-0.79128003,0.59468114,0.34191114,10.46037767,1.047221551,crawl
09/07/2020, 21:50:27,9.616755,-0.0526421,3.7830527,-0.79128003,0.59468114,0.34191114,10.33422598,1.047221551,crawl
09/07/2020, 21:50:27,9.616755,-0.0526421,3.7830527,-0.7986067,0.59956557,0.34435335,10.33422598,1.056328901,crawl
09/07/2020, 21:50:27,9.410972,0.15314065,3.7256248,-0.7986067,0.59956557,0.34435335,10.12275256,1.056328901,crawl
09/07/2020, 21:50:27,9.410972,0.15314065,3.7256248,-0.7937223,0.58247,0.34435335,10.12275256,1.042998358,crawl
09/07/2020, 21:50:27,9.300901,0.35174492,3.6514473,-0.7937223,0.58247,0.34435335,9.998177781,1.042998358,crawl
09/07/2020, 21:50:28,7.6546397,-1.4787644,5.759524,-0.35168,0.16729222,1.5788968,9.692903004,1.626216621,crawl
09/07/2020, 21:50:28,7.4823565,-1.2562319,5.6374903,-0.35168,0.16729222,1.5788968,9.45225236,1.626216621,crawl
09/07/2020, 21:50:28,7.4823565,-1.2562319,5.6374903,-0.35290113,0.15508112,1.4555645,9.45225236,1.50574147,crawl
09/07/2020, 21:50:28,7.331609,-1.1126626,5.5226345,-0.35290113,0.15508112,1.4555645,9.24608009,1.50574147,crawl
09/07/2020, 21:50:28,7.331609,-1.1126626,5.5226345,-0.36633334,0.14775445,1.3261267,9.24608009,1.383706435,crawl
09/07/2020, 21:50:28,7.176075,-1.0336994,5.4556355,-0.36633334,0.14775445,1.3261267,9.073507911,1.383706435,crawl
09/07/2020, 21:50:28,7.176075,-1.0336994,5.4556355,-0.36389112,0.13188,1.1893623,9.073507911,1.250756466,crawl
09/07/2020, 21:50:28,7.015756,-0.9451649,5.383851,-0.36389112,0.13188,1.1893623,8.893819368,1.250756466,crawl
09/07/2020, 21:50:28,7.015756,-0.9451649,5.383851,-0.3492378,0.11600556,1.0489345,8.893819368,1.111614966,crawl
09/07/2020, 21:50:28,6.879365,-0.89013004,5.3623157,-0.3492378,0.11600556,1.0489345,8.767692001,1.111614966,crawl
09/07/2020, 21:50:28,6.879365,-0.89013004,5.3623157,-0.33214223,0.091583334,0.9060645,8.767692001,0.96936003,crawl
09/07/2020, 21:50:28,6.7740808,-0.85184485,5.369494,-0.33214223,0.091583334,0.9060645,8.685923963,0.96936003,crawl
09/07/2020, 21:50:28,6.7740808,-0.85184485,5.369494,-0.31993112,0.06716111,0.7619734,8.685923963,0.829138089,crawl
09/07/2020, 21:50:28,6.6568327,-0.8111669,5.3623157,-0.31993112,0.06716111,0.7619734,8.586375395,0.829138089,crawl
09/07/2020, 21:50:28,6.6568327,-0.8111669,5.3623157,-0.30039334,0.045181114,0.60933447,8.586375395,0.680856805,crawl
09/07/2020, 21:50:28,6.556334,-0.7537391,5.3383875,-0.30039334,0.045181114,0.60933447,8.488346094,0.680856805,crawl
09/07/2020, 21:50:28,6.556334,-0.7537391,5.3383875,-0.2845189,0.024422223,0.46158,8.488346094,0.542773942,crawl
09/07/2020, 21:50:28,6.4701924,-0.76331043,5.3216376,-0.2845189,0.024422223,0.46158,8.412244647,0.542773942,crawl
09/07/2020, 21:50:28,6.4701924,-0.76331043,5.3216376,-0.25765446,0.002442222,0.3260367,8.412244647,0.415561919,crawl
09/07/2020, 21:50:28,6.4821568,-0.83988076,5.3216376,-0.25765446,0.002442222,0.3260367,8.428735548,0.415561919,crawl
09/07/2020, 21:50:29,8.633304,-1.9405792,4.2711883,0.10135223,-0.26009667,1.0293967,9.825621022,1.066573964,crawl
09/07/2020, 21:50:29,8.575876,-1.9046868,4.28076,0.10135223,-0.26009667,1.0293967,9.772327748,1.066573964,crawl
09/07/2020, 21:50:29,8.575876,-1.9046868,4.28076,0.13676445,-0.26498112,0.9280445,9.772327748,0.974774897,crawl
09/07/2020, 21:50:29,8.539984,-1.8257236,4.2927237,0.13676445,-0.26498112,0.9280445,9.730984825,0.974774897,crawl
09/07/2020, 21:50:29,8.539984,-1.8257236,4.2927237,0.15019667,-0.2759711,0.8303556,9.730984825,0.887811632,crawl
09/07/2020, 21:50:29,8.518449,-1.7012969,4.26401,0.15019667,-0.2759711,0.8303556,9.676784723,0.887811632,crawl
09/07/2020, 21:50:29,8.518449,-1.7012969,4.26401,0.13188,-0.28329778,0.72778225,9.676784723,0.792033438,crawl
09/07/2020, 21:50:29,8.49452,-1.5816557,4.168297,0.13188,-0.28329778,0.72778225,9.593393895,0.792033438,crawl
09/07/2020, 21:50:29,8.49452,-1.5816557,4.168297,0.091583334,-0.27963445,0.61788225,9.593393895,0.68436935,crawl
09/07/2020, 21:50:29,8.439486,-1.5002998,4.1276193,0.091583334,-0.27963445,0.61788225,9.513835014,0.68436935,crawl
09/07/2020, 21:50:29,8.439486,-1.5002998,4.1276193,0.039075557,-0.26620224,0.5006556,9.513835014,0.568371845,crawl
09/07/2020, 21:50:29,8.362915,-1.4476577,4.1036906,0.039075557,-0.26620224,0.5006556,9.427318681,0.568371845,crawl
09/07/2020, 21:50:29,8.362915,-1.4476577,4.1036906,-0.003663334,-0.26376,0.39197668,9.427318681,0.472470612,crawl
09/07/2020, 21:50:29,8.271988,-1.4500505,4.0941195,-0.003663334,-0.26376,0.39197668,9.34292488,0.472470612,crawl
09/07/2020, 21:50:29,8.271988,-1.4500505,4.0941195,-0.014653334,-0.26620224,0.2759711,9.34292488,0.383716574,crawl
09/07/2020, 21:50:29,8.118847,-1.5050855,4.1371903,-0.014653334,-0.26620224,0.2759711,9.235653798,0.383716574,crawl
09/07/2020, 21:50:29,8.118847,-1.5050855,4.1371903,0.015874445,-0.28818223,0.15996556,9.235653798,0.329984811,crawl
09/07/2020, 21:50:29,8.003992,-1.591227,4.1850467,0.015874445,-0.28818223,0.15996556,9.171178137,0.329984811,crawl
09/07/2020, 21:50:29,8.003992,-1.591227,4.1850467,0.081814446,-0.31260446,0.04151778,9.171178137,0.325789619,crawl
09/07/2020, 21:50:29,7.9800634,-1.6893328,4.2664027,0.081814446,-0.31260446,0.04151778,9.205294678,0.325789619,crawl
09/07/2020, 21:50:30,9.805787,-1.5314065,4.074977,-0.09524667,-0.03174889,1.7559578,10.72865803,1.758825706,crawl
09/07/2020, 21:50:30,9.805787,-1.5314065,4.074977,-0.15996556,-0.013432222,1.6985656,10.72865803,1.706134376,crawl
09/07/2020, 21:50:30,9.798609,-1.5170496,4.017549,-0.15996556,-0.013432222,1.6985656,10.69835846,1.706134376,crawl
09/07/2020, 21:50:30,9.798609,-1.5170496,4.017549,-0.21613668,0.007326667,1.6326256,10.69835846,1.646886465,crawl
09/07/2020, 21:50:30,9.724431,-1.4811572,3.993621,-0.21613668,0.007326667,1.6326256,10.61637392,1.646886465,crawl
09/07/2020, 21:50:30,9.724431,-1.4811572,3.993621,-0.2625389,0.024422223,1.5618012,10.61637392,1.583902174,crawl
09/07/2020, 21:50:30,9.521041,-1.4787644,3.8835511,-0.2625389,0.024422223,1.5618012,10.38840381,1.583902174,crawl
09/07/2020, 21:50:30,9.521041,-1.4787644,3.8835511,-0.3052778,0.029306669,1.4897556,10.38840381,1.520994823,crawl
09/07/2020, 21:50:30,9.267402,-1.4691931,3.8141594,-0.3052778,0.029306669,1.4897556,10.12872521,1.520994823,crawl
09/07/2020, 21:50:30,9.267402,-1.4691931,3.8141594,-0.3284789,0.015874445,1.4140468,10.12872521,1.451784639,crawl
09/07/2020, 21:50:30,9.018549,-1.5218352,3.7854455,-0.3284789,0.015874445,1.4140468,9.898474888,1.451784639,crawl
09/07/2020, 21:50:30,9.018549,-1.5218352,3.7854455,-0.33214223,-0.002442222,1.32979,9.898474888,1.370644324,crawl
09/07/2020, 21:50:30,8.82473,-1.5433706,3.7328033,-0.33214223,-0.002442222,1.32979,9.705239399,1.370644324,crawl
09/07/2020, 21:50:30,8.82473,-1.5433706,3.7328033,-0.31260446,-0.024422223,1.2455333,9.705239399,1.284395309,crawl
09/07/2020, 21:50:30,8.673982,-1.5888343,3.7160535,-0.31260446,-0.024422223,1.2455333,9.56929495,1.284395309,crawl
09/07/2020, 21:50:30,8.673982,-1.5888343,3.7160535,-0.27475002,-0.048844445,1.1490656,9.56929495,1.182465704,crawl
09/07/2020, 21:50:30,8.56152,-1.6247265,3.6681972,-0.27475002,-0.048844445,1.1490656,9.454894232,1.182465704,crawl
09/07/2020, 21:50:30,8.56152,-1.6247265,3.6681972,-0.21980001,-0.070824444,1.0464922,9.454894232,1.071668844,crawl
09/07/2020, 21:50:30,8.492127,-1.6701902,3.6849468,-0.21980001,-0.070824444,1.0464922,9.406625122,1.071668844,crawl
09/07/2020, 21:50:30,8.492127,-1.6701902,3.6849468,-0.15630223,-0.09402556,0.94391894,9.406625122,0.961381383,crawl
09/07/2020, 21:50:31,9.786645,-2.0410776,4.8693943,0.9610145,0.015874445,1.6875756,11.12004576,1.942089653,crawl
09/07/2020, 21:50:31,9.786645,-2.0410776,4.8693943,0.92438114,0.048844445,1.6753645,11.12004576,1.914082667,crawl
09/07/2020, 21:50:31,9.848858,-1.9716859,4.8861437,0.92438114,0.048844445,1.6753645,11.16968875,1.914082667,crawl
09/07/2020, 21:50:31,9.848858,-1.9716859,4.8861437,0.88286334,0.089141116,1.6582689,11.16968875,1.880757736,crawl
09/07/2020, 21:50:31,9.8632145,-1.9405792,4.9196434,0.88286334,0.089141116,1.6582689,11.19159233,1.880757736,crawl
09/07/2020, 21:50:31,9.8632145,-1.9405792,4.9196434,0.8413456,0.1306589,1.6338468,11.19159233,1.84238688,crawl
09/07/2020, 21:50:31,9.865608,-1.9764715,4.948357,0.8413456,0.1306589,1.6338468,11.2126225,1.84238688,crawl
09/07/2020, 21:50:31,9.865608,-1.9764715,4.948357,0.81326,0.17217667,1.6094245,11.2126225,1.811431422,crawl
09/07/2020, 21:50:31,9.757931,-1.969293,4.948357,0.81326,0.17217667,1.6094245,11.11672459,1.811431422,crawl
09/07/2020, 21:50:31,9.757931,-1.969293,4.948357,0.7851745,0.20514667,1.5911078,11.11672459,1.786115425,crawl
09/07/2020, 21:50:31,9.638289,-1.969293,4.907679,0.7851745,0.20514667,1.5911078,10.99363691,1.786115425,crawl
09/07/2020, 21:50:31,9.638289,-1.969293,4.907679,0.7680789,0.23445335,1.5752333,10.99363691,1.768127168,crawl
09/07/2020, 21:50:31,9.504292,-2.0051854,4.8263235,0.7680789,0.23445335,1.5752333,10.84646138,1.768127168,crawl
09/07/2020, 21:50:31,9.504292,-2.0051854,4.8263235,0.7668578,0.24666445,1.56058,10.84646138,1.756224423,crawl
09/07/2020, 21:50:31,9.396614,-2.012364,4.723432,0.7668578,0.24666445,1.56058,10.70779039,1.756224423,crawl
09/07/2020, 21:50:31,9.396614,-2.012364,4.723432,0.77296335,0.2625389,1.5471479,10.70779039,1.749304303,crawl
09/07/2020, 21:50:31,9.3511505,-2.0338993,4.6564326,0.77296335,0.2625389,1.5471479,10.64251508,1.749304303,crawl
09/07/2020, 21:50:31,9.3511505,-2.0338993,4.6564326,0.7863956,0.28940335,1.5324945,10.64251508,1.746628719,crawl
09/07/2020, 21:50:31,9.355937,-2.0219352,4.5822554,0.7863956,0.28940335,1.5324945,10.61220257,1.746628719,crawl
09/07/2020, 21:50:31,9.355937,-2.0219352,4.5822554,0.8095967,0.30161446,1.5227256,10.61220257,1.750745935,crawl
09/07/2020, 21:50:32,8.645268,-2.3784657,4.7712884,0.11112112,-0.14042778,-0.35412225,10.15691677,0.396825445,crawl
09/07/2020, 21:50:32,8.645268,-2.3784657,4.7712884,0.16362889,-0.14164889,-0.23933779,10.15691677,0.322678475,crawl
09/07/2020, 21:50:32,8.549556,-2.4741786,4.7712884,0.16362889,-0.14164889,-0.23933779,10.09859676,0.322678475,crawl
09/07/2020, 21:50:32,8.549556,-2.4741786,4.7712884,0.22224224,-0.14042778,-0.12821667,10.09859676,0.292491176,crawl
09/07/2020, 21:50:32,8.496913,-2.5292134,4.7832522,0.22224224,-0.14042778,-0.12821667,10.07342803,0.292491176,crawl
09/07/2020, 21:50:32,8.496913,-2.5292134,4.7832522,0.2735289,-0.14164889,-0.015874445,10.07342803,0.308438757,crawl
09/07/2020, 21:50:32,8.518449,-2.495714,4.735396,0.2735289,-0.14164889,-0.015874445,10.06064277,0.308438757,crawl
09/07/2020, 21:50:32,8.518449,-2.495714,4.735396,0.2869611,-0.13920668,0.09402556,10.06064277,0.332514635,crawl
09/07/2020, 21:50:32,8.549556,-2.4622145,4.7306104,0.2869611,-0.13920668,0.09402556,10.07651123,0.332514635,crawl
09/07/2020, 21:50:32,8.549556,-2.4622145,4.7306104,0.2869611,-0.11234222,0.20636779,10.07651123,0.370884238,crawl
09/07/2020, 21:50:32,8.597412,-2.4095724,4.776074,0.2869611,-0.11234222,0.20636779,10.12582916,0.370884238,crawl
09/07/2020, 21:50:32,8.597412,-2.4095724,4.776074,0.28818223,-0.08303556,0.3174889,10.12582916,0.436741466,crawl
09/07/2020, 21:50:32,8.650054,-2.4478576,4.7784667,0.28818223,-0.08303556,0.3174889,10.18082437,0.436741466,crawl
09/07/2020, 21:50:32,8.650054,-2.4478576,4.7784667,0.29795113,-0.057392225,0.43349445,10.18082437,0.529137205,crawl
09/07/2020, 21:50:32,8.683554,-2.4358935,4.8047876,0.29795113,-0.057392225,0.43349445,10.21878987,0.529137205,crawl
09/07/2020, 21:50:32,8.683554,-2.4358935,4.8047876,0.3260367,-0.02198,0.5372889,10.21878987,0.628858022,crawl
09/07/2020, 21:50:32,8.707481,-2.4885356,4.8598228,0.3260367,-0.02198,0.5372889,10.27769035,0.628858022,crawl
09/07/2020, 21:50:32,8.707481,-2.4885356,4.8598228,0.38831335,0.02075889,0.65451556,10.27769035,0.761320442,crawl
09/07/2020, 21:50:32,8.738588,-2.6632116,4.843073,0.38831335,0.02075889,0.65451556,10.33977645,0.761320442,crawl
09/07/2020, 21:50:32,8.738588,-2.6632116,4.843073,0.48844448,0.045181114,0.7766267,10.33977645,0.918568659,crawl
09/07/2020, 21:50:33,8.449057,-1.713261,5.2139606,-0.11966889,-1.3529912,-1.7095556,10.0750785,2.183457426,crawl
09/07/2020, 21:50:33,8.513663,-1.6773686,5.3479586,-0.11966889,-1.3529912,-1.7095556,10.19297253,2.183457426,crawl
09/07/2020, 21:50:33,8.513663,-1.6773686,5.3479586,0.006105556,-1.4006145,-1.7144401,10.19297253,2.213834487,crawl
09/07/2020, 21:50:33,8.58784,-1.6654046,5.4723854,0.006105556,-1.4006145,-1.7144401,10.31850627,2.213834487,crawl
09/07/2020, 21:50:33,8.58784,-1.6654046,5.4723854,0.12821667,-1.4457957,-1.7010078,10.31850627,2.236110971,crawl
09/07/2020, 21:50:33,8.709874,-1.6414764,5.558527,0.12821667,-1.4457957,-1.7010078,10.46200625,2.236110971,crawl
09/07/2020, 21:50:33,8.709874,-1.6414764,5.558527,0.24300112,-1.4873134,-1.6936811,10.46200625,2.267092059,crawl
09/07/2020, 21:50:33,8.796016,-1.5529419,5.6446686,0.24300112,-1.4873134,-1.6936811,10.5661632,2.267092059,crawl
09/07/2020, 21:50:33,8.796016,-1.5529419,5.6446686,0.3284789,-1.5312734,-1.6973445,10.5661632,2.309475049,crawl
09/07/2020, 21:50:33,8.925228,-1.3663018,5.7260246,0.3284789,-1.5312734,-1.6973445,10.69176485,2.309475049,crawl
09/07/2020, 21:50:33,8.925228,-1.3663018,5.7260246,0.34557447,-1.5666857,-1.6985656,10.69176485,2.336461176,crawl
09/07/2020, 21:50:33,9.083155,-1.1509477,5.790631,0.34557447,-1.5666857,-1.6985656,10.83327212,2.336461176,crawl
09/07/2020, 21:50:33,9.083155,-1.1509477,5.790631,0.28940335,-1.5850023,-1.6924601,10.83327212,2.336751517,crawl
09/07/2020, 21:50:33,9.217153,-0.85902333,5.802595,0.28940335,-1.5850023,-1.6924601,10.92538024,2.336751517,crawl
09/07/2020, 21:50:33,9.217153,-0.85902333,5.802595,0.14897557,-1.5825601,-1.7046711,10.92538024,2.330792522,crawl
09/07/2020, 21:50:33,9.339187,-0.5072784,5.855237,0.14897557,-1.5825601,-1.7046711,11.03456113,2.330792522,crawl
09/07/2020, 21:50:33,9.339187,-0.5072784,5.855237,-0.03297,-1.526389,-1.7193245,11.03456113,2.299353614,crawl
09/07/2020, 21:50:33,9.5665045,-0.34456646,5.9916277,-0.03297,-1.526389,-1.7193245,11.29319868,2.299353614,crawl
09/07/2020, 21:50:33,9.5665045,-0.34456646,5.9916277,-0.2075889,-1.45068,-1.6985656,11.29319868,2.243365946,crawl
09/07/2020, 21:50:33,9.71486,-0.39481574,5.9342003,-0.2075889,-1.45068,-1.6985656,11.39074697,2.243365946,crawl
09/07/2020, 21:50:34,6.326623,-2.2899313,6.1734824,0.109900005,0.5128667,0.60933447,9.131365102,0.803989262,crawl
09/07/2020, 21:50:34,6.1710896,-2.361716,6.151947,0.109900005,0.5128667,0.60933447,9.028095161,0.803989262,crawl
09/07/2020, 21:50:34,6.1710896,-2.361716,6.151947,0.08792,0.47745445,0.57148004,9.028095161,0.749854728,crawl
09/07/2020, 21:50:34,6.04427,-2.4526432,6.1830535,0.08792,0.47745445,0.57148004,8.987703225,0.749854728,crawl
09/07/2020, 21:50:34,6.04427,-2.4526432,6.1830535,0.08669889,0.44326335,0.53973114,8.987703225,0.703781788,crawl
09/07/2020, 21:50:34,5.953343,-2.5172493,6.250053,0.08669889,0.44326335,0.53973114,8.991217812,0.703781788,crawl
09/07/2020, 21:50:34,5.953343,-2.5172493,6.250053,0.09402556,0.40540892,0.5104245,8.991217812,0.658582085,crawl
09/07/2020, 21:50:34,5.905486,-2.6392834,6.34098,0.09402556,0.40540892,0.5104245,9.058068842,0.658582085,crawl
09/07/2020, 21:50:34,5.905486,-2.6392834,6.34098,0.109900005,0.3712178,0.47623336,9.058068842,0.613741699,crawl
09/07/2020, 21:50:34,5.8169518,-2.7278178,6.4175506,0.109900005,0.3712178,0.47623336,9.080907043,0.613741699,crawl
09/07/2020, 21:50:34,5.8169518,-2.7278178,6.4175506,0.10867889,0.33580557,0.44082114,9.080907043,0.564712101,crawl
09/07/2020, 21:50:34,5.7858453,-2.7302105,6.4941206,0.10867889,0.33580557,0.44082114,9.116120751,0.564712101,crawl
09/07/2020, 21:50:34,5.7858453,-2.7302105,6.4941206,0.09768889,0.30772,0.41273558,9.116120751,0.524008952,crawl
09/07/2020, 21:50:34,5.7355957,-2.7158537,6.5635123,0.09768889,0.30772,0.41273558,9.129765243,0.524008952,crawl
09/07/2020, 21:50:34,5.7355957,-2.7158537,6.5635123,0.068382226,0.30161446,0.37976557,9.129765243,0.489764537,crawl
09/07/2020, 21:50:34,5.7140603,-2.7182465,6.6089764,0.068382226,0.30161446,0.37976557,9.149749591,0.489764537,crawl
09/07/2020, 21:50:34,5.7140603,-2.7182465,6.6089764,0.04029667,0.2820767,0.35412225,9.149749591,0.454525739,crawl
09/07/2020, 21:50:34,5.690132,-2.7326035,6.680761,0.04029667,0.2820767,0.35412225,9.191152899,0.454525739,crawl
09/07/2020, 21:50:34,5.690132,-2.7326035,6.680761,0.03052778,0.26009667,0.3260367,9.191152899,0.418189128,crawl
09/07/2020, 21:50:34,5.656633,-2.7158537,6.6831536,0.03052778,0.26009667,0.3260367,9.167218742,0.418189128,crawl
09/07/2020, 21:50:35,9.595219,-2.605784,4.2257247,-0.20514667,-0.22346334,-1.240649,10.80347538,1.27719651,crawl
09/07/2020, 21:50:35,9.595219,-2.605784,4.2257247,-0.20026223,-0.20270446,-1.1563922,10.80347538,1.190981536,crawl
09/07/2020, 21:50:35,9.542577,-2.6512475,4.213761,-0.20026223,-0.20270446,-1.1563922,10.76316244,1.190981536,crawl
09/07/2020, 21:50:35,9.542577,-2.6512475,4.213761,-0.1965989,-0.17339778,-1.0782411,10.76316244,1.109649408,crawl
09/07/2020, 21:50:35,9.49472,-2.7110682,4.2352962,-0.1965989,-0.17339778,-1.0782411,10.74417709,1.109649408,crawl
09/07/2020, 21:50:35,9.49472,-2.7110682,4.2352962,-0.19293556,-0.1526389,-0.9927634,10.74417709,1.022791245,crawl
09/07/2020, 21:50:35,9.437292,-2.751746,4.2520456,-0.19293556,-0.1526389,-0.9927634,10.71048458,1.022791245,crawl
09/07/2020, 21:50:35,9.437292,-2.751746,4.2520456,-0.18438779,-0.12211112,-0.90362227,10.71048458,0.930291991,crawl
09/07/2020, 21:50:35,9.379865,-2.8354948,4.23051,-0.18438779,-0.12211112,-0.90362227,10.67328951,0.930291991,crawl
09/07/2020, 21:50:35,9.379865,-2.8354948,4.23051,-0.17706113,-0.08669889,-0.81570226,10.67328951,0.839188606,crawl
09/07/2020, 21:50:35,9.276974,-2.900101,4.211368,-0.17706113,-0.08669889,-0.81570226,10.59284891,0.839188606,crawl
09/07/2020, 21:50:35,9.276974,-2.900101,4.211368,-0.15752333,-0.06227667,-0.7216767,10.59284891,0.741288914,crawl
09/07/2020, 21:50:35,9.188439,-2.9647074,4.206582,-0.15752333,-0.06227667,-0.7216767,10.53148805,0.741288914,crawl
09/07/2020, 21:50:35,9.188439,-2.9647074,4.206582,-0.1306589,-0.037854444,-0.6288723,10.53148805,0.643416696,crawl
09/07/2020, 21:50:35,9.080762,-3.0364919,4.1611185,-0.1306589,-0.037854444,-0.6288723,10.4400875,0.643416696,crawl
09/07/2020, 21:50:35,9.080762,-3.0364919,4.1611185,-0.098910004,-0.018316668,-0.53118336,10.4400875,0.540624133,crawl
09/07/2020, 21:50:35,9.018549,-3.101098,4.101298,-0.098910004,-0.018316668,-0.53118336,10.38131392,0.540624133,crawl
09/07/2020, 21:50:35,9.018549,-3.101098,4.101298,-0.06105556,-0.002442222,-0.4383789,10.38131392,0.442616997,crawl
09/07/2020, 21:50:35,8.985049,-3.1106694,4.065406,-0.06105556,-0.002442222,-0.4383789,10.34093316,0.442616997,crawl
09/07/2020, 21:50:35,8.985049,-3.1106694,4.065406,-0.025643334,0.012211111,-0.34679556,10.34093316,0.34795668,crawl
09/07/2020, 21:50:36,9.726824,-2.498107,4.54397,-0.32237336,-0.36755446,-2.2382967,11.02267227,2.291068133,crawl
09/07/2020, 21:50:36,9.726824,-2.498107,4.54397,-0.34069002,-0.35412225,-2.2578344,11.02267227,2.310690068,crawl
09/07/2020, 21:50:36,9.820144,-2.5914268,4.5894337,-0.34069002,-0.35412225,-2.2578344,11.14511628,2.310690068,crawl
09/07/2020, 21:50:36,9.820144,-2.5914268,4.5894337,-0.3504589,-0.34191114,-2.262719,11.14511628,2.315085647,crawl
09/07/2020, 21:50:36,9.896714,-2.6919255,4.651647,-0.3504589,-0.34191114,-2.262719,11.26184869,2.315085647,crawl
09/07/2020, 21:50:36,9.896714,-2.6919255,4.651647,-0.35534334,-0.32359445,-2.2541711,11.26184869,2.304836167,crawl
09/07/2020, 21:50:36,9.961321,-2.7493532,4.658826,-0.35534334,-0.32359445,-2.2541711,11.33540979,2.304836167,crawl
09/07/2020, 21:50:36,9.961321,-2.7493532,4.658826,-0.35900667,-0.30894113,-2.2309701,11.33540979,2.280692482,crawl
09/07/2020, 21:50:36,10.047462,-2.845066,4.7042894,-0.35900667,-0.30894113,-2.2309701,11.45321972,2.280692482,crawl
09/07/2020, 21:50:36,10.047462,-2.845066,4.7042894,-0.3492378,-0.29306668,-2.1906734,11.45321972,2.237611417,crawl
09/07/2020, 21:50:36,10.107283,-2.9383862,4.7210393,-0.3492378,-0.29306668,-2.1906734,11.53600831,2.237611417,crawl
09/07/2020, 21:50:36,10.107283,-2.9383862,4.7210393,-0.33458444,-0.26864445,-2.1467135,11.53600831,2.189176883,crawl
09/07/2020, 21:50:36,10.126426,-3.022135,4.718646,-0.33458444,-0.26864445,-2.1467135,11.57339272,2.189176883,crawl
09/07/2020, 21:50:36,10.126426,-3.022135,4.718646,-0.31993112,-0.2515489,-2.0929844,11.57339272,2.132185879,crawl
09/07/2020, 21:50:36,10.092926,-3.1393833,4.7042894,-0.31993112,-0.2515489,-2.0929844,11.56949534,2.132185879,crawl
09/07/2020, 21:50:36,10.092926,-3.1393833,4.7042894,-0.30039334,-0.24300112,-2.02216,11.56949534,2.058741602,crawl
09/07/2020, 21:50:36,10.0163555,-3.1944182,4.692325,-0.30039334,-0.24300112,-2.02216,11.51301873,2.058741602,crawl
09/07/2020, 21:50:36,10.0163555,-3.1944182,4.692325,-0.27475002,-0.23323223,-1.9415667,11.51301873,1.974731911,crawl
09/07/2020, 21:50:36,9.949356,-3.2398818,4.685147,-0.27475002,-0.23323223,-1.9415667,11.46460295,1.974731911,crawl
09/07/2020, 21:50:36,9.949356,-3.2398818,4.685147,-0.24422224,-0.2283478,-1.8609734,11.46460295,1.890769435,crawl
09/07/2020, 21:50:37,8.274381,-1.7371893,4.063013,-0.1746189,0.04151778,-0.4798967,9.380366603,0.512363468,crawl
09/07/2020, 21:50:37,8.274381,-1.7371893,4.063013,-0.12943779,0.03174889,-0.5519422,9.380366603,0.567804859,crawl
09/07/2020, 21:50:37,8.226524,-1.847259,4.019942,-0.12943779,0.03174889,-0.5519422,9.340663844,0.567804859,crawl
09/07/2020, 21:50:37,8.226524,-1.847259,4.019942,-0.046402223,0.013432222,-0.63619894,9.340663844,0.638030312,crawl
09/07/2020, 21:50:37,8.176275,-1.9046868,4.0295134,-0.046402223,0.013432222,-0.63619894,9.312158008,0.638030312,crawl
09/07/2020, 21:50:37,8.176275,-1.9046868,4.0295134,0.028085556,-0.014653334,-0.7167922,9.312158008,0.717491891,crawl
09/07/2020, 21:50:37,8.140383,-1.8592232,4.017549,0.028085556,-0.014653334,-0.7167922,9.266242115,0.717491891,crawl
09/07/2020, 21:50:37,8.140383,-1.8592232,4.017549,0.04396,-0.04151778,-0.79250115,9.266242115,0.794804556,crawl
09/07/2020, 21:50:37,8.147561,-1.7611175,4.019942,0.04396,-0.04151778,-0.79250115,9.25441615,0.794804556,crawl
09/07/2020, 21:50:37,8.147561,-1.7611175,4.019942,0.003663334,-0.047623336,-0.8547778,9.25441615,0.856111273,crawl
09/07/2020, 21:50:37,8.178668,-1.6319051,4.072584,0.003663334,-0.047623336,-0.8547778,9.281145753,0.856111273,crawl
09/07/2020, 21:50:37,8.178668,-1.6319051,4.072584,-0.06349778,-0.042738892,-0.9133912,9.281145753,0.916592612,crawl
09/07/2020, 21:50:37,8.286345,-1.605584,4.082155,-0.06349778,-0.042738892,-0.9133912,9.375787807,0.916592612,crawl
09/07/2020, 21:50:37,8.286345,-1.605584,4.082155,-0.11966889,-0.036633335,-0.9842156,9.375787807,0.992140628,crawl
09/07/2020, 21:50:37,8.391629,-1.6534405,4.0797625,-0.11966889,-0.036633335,-0.9842156,9.476168428,0.992140628,crawl
09/07/2020, 21:50:37,8.391629,-1.6534405,4.0797625,-0.14531223,-0.039075557,-1.0574822,9.476168428,1.068134466,crawl
09/07/2020, 21:50:37,8.446664,-1.7419748,4.065406,-0.14531223,-0.039075557,-1.0574822,9.53457557,1.068134466,crawl
09/07/2020, 21:50:37,8.446664,-1.7419748,4.065406,-0.15508112,-0.047623336,-1.1258645,9.53457557,1.137492427,crawl
09/07/2020, 21:50:37,8.504091,-1.8496519,4.0845485,-0.15508112,-0.047623336,-1.1258645,9.613756639,1.137492427,crawl
09/07/2020, 21:50:37,8.504091,-1.8496519,4.0845485,-0.16607112,-0.064718895,-1.1893623,9.613756639,1.202643256,crawl
09/07/2020, 21:50:38,10.164711,-2.5459633,3.9840498,0.17095557,0.24300112,1.735199,11.21052771,1.760451883,crawl
09/07/2020, 21:50:38,10.164711,-2.5459633,3.9840498,0.12821667,0.24910668,1.7535156,11.21052771,1.77575635,crawl
09/07/2020, 21:50:38,10.162318,-2.5459633,3.9577286,0.12821667,0.24910668,1.7535156,11.19902928,1.77575635,crawl
09/07/2020, 21:50:38,10.162318,-2.5459633,3.9577286,0.10501556,0.2515489,1.7681689,11.19902928,1.789057423,crawl
09/07/2020, 21:50:38,10.174282,-2.5794628,3.9098723,0.10501556,0.2515489,1.7681689,11.20074753,1.789057423,crawl
09/07/2020, 21:50:38,10.174282,-2.5794628,3.9098723,0.102573335,0.24788557,1.7840434,11.20074753,1.804100748,crawl
09/07/2020, 21:50:38,10.13839,-2.5603201,3.9888353,0.102573335,0.24788557,1.7840434,11.19164822,1.804100748,crawl
09/07/2020, 21:50:38,10.13839,-2.5603201,3.9888353,0.10013112,0.23567446,1.7999178,11.19164822,1.818040934,crawl
09/07/2020, 21:50:38,10.076176,-2.5172493,4.089334,0.10013112,0.23567446,1.7999178,11.16192248,1.818040934,crawl
09/07/2020, 21:50:38,10.076176,-2.5172493,4.089334,0.10135223,0.22712667,1.8194556,11.16192248,1.836376205,crawl
09/07/2020, 21:50:38,10.057034,-2.4646072,4.1467614,0.10135223,0.22712667,1.8194556,11.15409533,1.836376205,crawl
09/07/2020, 21:50:38,10.057034,-2.4646072,4.1467614,0.08792,0.23079,1.8353301,11.15409533,1.851872197,crawl
09/07/2020, 21:50:38,10.049855,-2.4382863,4.1491547,0.08792,0.23079,1.8353301,11.14272474,1.851872197,crawl
09/07/2020, 21:50:38,10.049855,-2.4382863,4.1491547,0.06349778,0.24788557,1.845099,11.14272474,1.862758557,crawl
09/07/2020, 21:50:38,9.990034,-2.428715,4.063013,0.06349778,0.24788557,1.845099,11.05475071,1.862758557,crawl
09/07/2020, 21:50:38,9.990034,-2.428715,4.063013,0.05250778,0.2503278,1.84632,11.05475071,1.86395245,crawl
09/07/2020, 21:50:38,9.906285,-2.388037,4.0534415,0.05250778,0.2503278,1.84632,10.96665842,1.86395245,crawl
09/07/2020, 21:50:38,9.906285,-2.388037,4.0534415,0.06105556,0.23323223,1.8389934,10.96665842,1.8547296,crawl
09/07/2020, 21:50:38,9.851251,-2.4071796,4.0127635,0.06105556,0.23323223,1.8389934,10.90614157,1.8547296,crawl
09/07/2020, 21:50:38,9.851251,-2.4071796,4.0127635,0.09402556,0.21613668,1.8292245,10.90614157,1.844347587,crawl
09/07/2020, 21:50:39,8.480164,-3.67059,4.685147,-0.009768889,-0.039075557,-0.6105556,10.36035739,0.611882716,crawl
09/07/2020, 21:50:39,8.451449,-3.629912,4.7210393,-0.009768889,-0.039075557,-0.6105556,10.33883307,0.611882716,crawl
09/07/2020, 21:50:39,8.451449,-3.629912,4.7210393,0.06105556,-0.05372889,-0.5372889,10.33883307,0.543409552,crawl
09/07/2020, 21:50:39,8.441878,-3.5892339,4.725825,0.06105556,-0.05372889,-0.5372889,10.3189791,0.543409552,crawl
09/07/2020, 21:50:39,8.441878,-3.5892339,4.725825,0.09524667,-0.048844445,-0.46402225,10.3189791,0.476208312,crawl
09/07/2020, 21:50:39,8.427522,-3.5700915,4.682754,0.09524667,-0.048844445,-0.46402225,10.28089786,0.476208312,crawl
09/07/2020, 21:50:39,8.427522,-3.5700915,4.682754,0.12211112,-0.04151778,-0.38831335,10.28089786,0.409172472,crawl
09/07/2020, 21:50:39,8.415557,-3.5389848,4.6636114,0.12211112,-0.04151778,-0.38831335,10.25159903,0.409172472,crawl
09/07/2020, 21:50:39,8.415557,-3.5389848,4.6636114,0.13920668,-0.03174889,-0.31016225,10.25159903,0.341448547,crawl
09/07/2020, 21:50:39,8.415557,-3.5557344,4.6492543,0.13920668,-0.03174889,-0.31016225,10.25087367,0.341448547,crawl
09/07/2020, 21:50:39,8.415557,-3.5557344,4.6492543,0.16485001,-0.03297,-0.2283478,10.25087367,0.283558216,crawl
09/07/2020, 21:50:39,8.4012,-3.5389848,4.65404,0.16485001,-0.03297,-0.2283478,10.23546123,0.283558216,crawl
09/07/2020, 21:50:39,8.4012,-3.5389848,4.65404,0.19293556,-0.035412222,-0.14287001,10.23546123,0.242672606,crawl
09/07/2020, 21:50:39,8.449057,-3.5246277,4.6731825,0.19293556,-0.035412222,-0.14287001,10.27853067,0.242672606,crawl
09/07/2020, 21:50:39,8.449057,-3.5246277,4.6731825,0.22224224,-0.039075557,-0.059834447,10.27853067,0.233449506,crawl
09/07/2020, 21:50:39,8.544769,-3.4695928,4.668397,0.22224224,-0.039075557,-0.059834447,10.33658969,0.233449506,crawl
09/07/2020, 21:50:39,8.544769,-3.4695928,4.668397,0.2295689,-0.035412222,0.025643334,10.33658969,0.233695283,crawl
09/07/2020, 21:50:39,8.592627,-3.4337006,4.6755753,0.2295689,-0.035412222,0.025643334,10.36747486,0.233695283,crawl
09/07/2020, 21:50:39,8.592627,-3.4337006,4.6755753,0.21491556,-0.026864445,0.109900005,10.36747486,0.242875291,crawl
09/07/2020, 21:50:39,8.652447,-3.3882368,4.709075,0.21491556,-0.026864445,0.109900005,10.41731108,0.242875291,crawl
09/07/2020, 21:50:40,8.26481,-2.9168508,4.7138605,0.13554333,0.002442222,-0.94880337,9.951662043,0.958439244,crawl
09/07/2020, 21:50:40,8.26481,-2.9168508,4.7138605,0.123332225,0.008547778,-0.9732256,9.951662043,0.981046359,crawl
09/07/2020, 21:50:40,8.300702,-2.9216363,4.6875396,0.123332225,0.008547778,-0.9732256,9.970488528,0.981046359,crawl
09/07/2020, 21:50:40,8.300702,-2.9216363,4.6875396,0.10867889,0.012211111,-1.00009,9.970488528,1.006051801,crawl
09/07/2020, 21:50:40,8.370093,-2.9312077,4.625326,0.10867889,0.012211111,-1.00009,10.00220391,1.006051801,crawl
09/07/2020, 21:50:40,8.370093,-2.9312077,4.625326,0.10013112,0.018316668,-1.020849,10.00220391,1.025911497,crawl
09/07/2020, 21:50:40,8.439486,-2.9479575,4.6061835,0.10013112,0.018316668,-1.020849,10.05645547,1.025911497,crawl
09/07/2020, 21:50:40,8.439486,-2.9479575,4.6061835,0.08425667,0.018316668,-1.0306178,10.05645547,1.034218451,crawl
09/07/2020, 21:50:40,8.475378,-2.955136,4.6037908,0.08425667,0.018316668,-1.0306178,10.08760385,1.034218451,crawl
09/07/2020, 21:50:40,8.475378,-2.955136,4.6037908,0.08425667,0.018316668,-1.0416079,10.08760385,1.045170615,crawl
09/07/2020, 21:50:40,8.5423765,-2.9647074,4.558327,0.08425667,0.018316668,-1.0416079,10.12620527,1.045170615,crawl
09/07/2020, 21:50:40,8.5423765,-2.9647074,4.558327,0.08303556,0.018316668,-1.0440501,10.12620527,1.047507045,crawl
09/07/2020, 21:50:40,8.633304,-2.928815,4.520042,0.08303556,0.018316668,-1.0440501,10.17559176,1.047507045,crawl
09/07/2020, 21:50:40,8.633304,-2.928815,4.520042,0.09036223,0.015874445,-1.0501556,10.17559176,1.05415568,crawl
09/07/2020, 21:50:40,8.664411,-2.955136,4.4985065,0.09036223,0.015874445,-1.0501556,10.20006868,1.05415568,crawl
09/07/2020, 21:50:40,8.664411,-2.955136,4.4985065,0.10135223,0.015874445,-1.0513767,10.20006868,1.05636984,crawl
09/07/2020, 21:50:40,8.693125,-2.9623144,4.4554358,0.10135223,0.015874445,-1.0513767,10.20767517,1.05636984,crawl
09/07/2020, 21:50:40,8.693125,-2.9623144,4.4554358,0.11356334,0.008547778,-1.0403867,10.20767517,1.046601229,crawl
09/07/2020, 21:50:40,8.707481,-2.9958138,4.386044,0.11356334,0.008547778,-1.0403867,10.19963307,1.046601229,crawl
09/07/2020, 21:50:40,8.707481,-2.9958138,4.386044,0.1306589,-0.002442222,-1.0330601,10.19963307,1.041292863,crawl
09/07/2020, 21:50:41,9.396614,-2.6321049,3.8907297,0.46402225,0.26620224,1.2638501,10.50533719,1.372405675,crawl
09/07/2020, 21:50:41,9.396614,-2.6321049,3.8907297,0.44082114,0.2625389,1.29682,10.50533719,1.394629766,crawl
09/07/2020, 21:50:41,9.458828,-2.589034,3.8739798,0.44082114,0.2625389,1.29682,10.54420427,1.394629766,crawl
09/07/2020, 21:50:41,9.458828,-2.589034,3.8739798,0.40785113,0.26620224,1.3285689,10.54420427,1.415027065,crawl
09/07/2020, 21:50:41,9.516255,-2.5794628,3.9098723,0.40785113,0.26620224,1.3285689,10.60659446,1.415027065,crawl
09/07/2020, 21:50:41,9.516255,-2.5794628,3.9098723,0.37854445,0.26376,1.3542123,10.60659446,1.430648856,crawl
09/07/2020, 21:50:41,9.556933,-2.5722845,3.8644085,0.37854445,0.26376,1.3542123,10.6247483,1.430648856,crawl
09/07/2020, 21:50:41,9.556933,-2.5722845,3.8644085,0.3370267,0.2613178,1.3774134,10.6247483,1.441922892,crawl
09/07/2020, 21:50:41,9.556933,-2.6009982,3.8548372,0.3370267,0.2613178,1.3774134,10.62826125,1.441922892,crawl
09/07/2020, 21:50:41,9.556933,-2.6009982,3.8548372,0.2942878,0.2613178,1.3993934,10.62826125,1.45368301,crawl
09/07/2020, 21:50:41,9.571291,-2.5914268,3.8548372,0.2942878,0.2613178,1.3993934,10.63883798,1.45368301,crawl
09/07/2020, 21:50:41,9.571291,-2.5914268,3.8548372,0.26009667,0.25765446,1.4262578,10.63883798,1.472497045,crawl
09/07/2020, 21:50:41,9.580862,-2.629712,3.8811584,0.26009667,0.25765446,1.4262578,10.66638146,1.472497045,crawl
09/07/2020, 21:50:41,9.580862,-2.629712,3.8811584,0.23689556,0.25399113,1.4470167,10.66638146,1.488115713,crawl
09/07/2020, 21:50:41,9.585648,-2.6679974,3.8380876,0.23689556,0.25399113,1.4470167,10.6646034,1.488115713,crawl
09/07/2020, 21:50:41,9.585648,-2.6679974,3.8380876,0.23079,0.24055889,1.4677756,10.6646034,1.505157058,crawl
09/07/2020, 21:50:41,9.583255,-2.7086751,3.8524444,0.23079,0.24055889,1.4677756,10.67787534,1.505157058,crawl
09/07/2020, 21:50:41,9.583255,-2.7086751,3.8524444,0.23445335,0.22590557,1.4836501,10.67787534,1.518953351,crawl
09/07/2020, 21:50:41,9.564112,-2.7421749,3.8500516,0.23445335,0.22590557,1.4836501,10.66839507,1.518953351,crawl
09/07/2020, 21:50:41,9.564112,-2.7421749,3.8500516,0.23567446,0.2185789,1.4958612,10.66839507,1.530006482,crawl
09/07/2020, 21:50:42,8.49452,-3.37388,4.4243293,-0.04029667,-0.10501556,-0.01099,10.15453733,0.113017122,crawl
09/07/2020, 21:50:42,8.484949,-3.4049866,4.386044,-0.04029667,-0.10501556,-0.01099,10.14029968,0.113017122,crawl
09/07/2020, 21:50:42,8.484949,-3.4049866,4.386044,-0.001221111,-0.10501556,0.047623336,10.14029968,0.115315833,crawl
09/07/2020, 21:50:42,8.506484,-3.400201,4.395615,-0.001221111,-0.10501556,0.047623336,10.16085971,0.115315833,crawl
09/07/2020, 21:50:42,8.506484,-3.400201,4.395615,0.028085556,-0.10501556,0.10013112,10.16085971,0.147794814,crawl
09/07/2020, 21:50:42,8.537591,-3.3403804,4.402794,0.028085556,-0.10501556,0.10013112,10.17021117,0.147794814,crawl
09/07/2020, 21:50:42,8.537591,-3.3403804,4.402794,0.04396,-0.10501556,0.15630223,10.17021117,0.193367878,crawl
09/07/2020, 21:50:42,8.583055,-3.2949169,4.436293,0.04396,-0.10501556,0.15630223,10.20813397,0.193367878,crawl
09/07/2020, 21:50:42,8.583055,-3.2949169,4.436293,0.048844445,-0.098910004,0.21003112,10.20813397,0.237238363,crawl
09/07/2020, 21:50:42,8.628518,-3.2590244,4.4482574,0.048844445,-0.098910004,0.21003112,10.24009565,0.237238363,crawl
09/07/2020, 21:50:42,8.628518,-3.2590244,4.4482574,0.037854444,-0.08059334,0.25887558,10.24009565,0.273760499,crawl
09/07/2020, 21:50:42,8.666803,-3.1896327,4.486542,0.037854444,-0.08059334,0.25887558,10.26724394,0.273760499,crawl
09/07/2020, 21:50:42,8.666803,-3.1896327,4.486542,0.023201112,-0.070824444,0.31382558,10.26724394,0.322553696,crawl
09/07/2020, 21:50:42,8.685946,-3.1657043,4.493721,0.023201112,-0.070824444,0.31382558,10.27914772,0.322553696,crawl
09/07/2020, 21:50:42,8.685946,-3.1657043,4.493721,0.02075889,-0.064718895,0.36999667,10.27914772,0.376187454,crawl
09/07/2020, 21:50:42,8.695518,-3.1776686,4.4985065,0.02075889,-0.064718895,0.36999667,10.2930153,0.376187454,crawl
09/07/2020, 21:50:42,8.695518,-3.1776686,4.4985065,0.026864445,-0.05372889,0.42372558,10.2930153,0.427962446,crawl
09/07/2020, 21:50:42,8.717052,-3.211168,4.5128636,0.026864445,-0.05372889,0.42372558,10.32785273,0.427962446,crawl
09/07/2020, 21:50:42,8.717052,-3.211168,4.5128636,0.04029667,-0.04151778,0.47623336,10.32785273,0.479735098,crawl
09/07/2020, 21:50:42,8.712267,-3.2135608,4.5248275,0.04029667,-0.04151778,0.47623336,10.3297934,0.479735098,crawl
09/07/2020, 21:50:43,8.681161,-2.349752,3.9074793,-0.16729222,-0.14042778,-1.5801178,9.805727083,1.595142307,crawl
09/07/2020, 21:50:43,8.822337,-2.3928227,3.9577286,-0.16729222,-0.14042778,-1.5801178,9.961066677,1.595142307,crawl
09/07/2020, 21:50:43,8.822337,-2.3928227,3.9577286,-0.16851334,-0.14775445,-1.6521634,9.961066677,1.667294808,crawl
09/07/2020, 21:50:43,8.937193,-2.3952155,3.9744785,-0.16851334,-0.14775445,-1.6521634,10.07010198,1.667294808,crawl
09/07/2020, 21:50:43,8.937193,-2.3952155,3.9744785,-0.15508112,-0.15386,-1.7132189,10.07010198,1.72709066,crawl
09/07/2020, 21:50:43,9.025727,-2.457429,4.0295134,-0.15508112,-0.15386,-1.7132189,10.18526817,1.72709066,crawl
09/07/2020, 21:50:43,9.025727,-2.457429,4.0295134,-0.14164889,-0.15996556,-1.7669479,10.18526817,1.779819695,crawl
09/07/2020, 21:50:43,9.071191,-2.507678,4.091727,-0.14164889,-0.15996556,-1.7669479,10.26241591,1.779819695,crawl
09/07/2020, 21:50:43,9.071191,-2.507678,4.091727,-0.123332225,-0.17339778,-1.812129,10.26241591,1.824579189,crawl
09/07/2020, 21:50:43,9.092726,-2.5722845,4.125226,-0.123332225,-0.17339778,-1.812129,10.31076131,1.824579189,crawl
09/07/2020, 21:50:43,9.092726,-2.5722845,4.125226,-0.10501556,-0.18805112,-1.8487623,10.31076131,1.861266622,crawl
09/07/2020, 21:50:43,9.099904,-2.6225336,4.141976,-0.10501556,-0.18805112,-1.8487623,10.33643557,1.861266622,crawl
09/07/2020, 21:50:43,9.099904,-2.6225336,4.141976,-0.085477784,-0.1965989,-1.8829534,10.33643557,1.895117703,crawl
09/07/2020, 21:50:43,9.159725,-2.6991038,4.1611185,-0.085477784,-0.1965989,-1.8829534,10.41636377,1.895117703,crawl
09/07/2020, 21:50:43,9.159725,-2.6991038,4.1611185,-0.054950003,-0.20881,-1.911039,10.41636377,1.923198159,crawl
09/07/2020, 21:50:43,9.241081,-2.7637103,4.173083,-0.054950003,-0.20881,-1.911039,10.50953363,1.923198159,crawl
09/07/2020, 21:50:43,9.241081,-2.7637103,4.173083,-0.019537779,-0.2185789,-1.9366823,10.50953363,1.949075925,crawl
09/07/2020, 21:50:43,9.341579,-2.7876384,4.223332,-0.019537779,-0.2185789,-1.9366823,10.62415018,1.949075925,crawl
09/07/2020, 21:50:43,9.341579,-2.7876384,4.223332,0.012211111,-0.2295689,-1.9586623,10.62415018,1.972107726,crawl
09/07/2020, 21:50:43,9.45165,-2.821138,4.2711883,0.012211111,-0.2295689,-1.9586623,10.74874642,1.972107726,crawl
09/07/2020, 21:50:44,8.17149,-3.1465619,3.9242291,-0.05250778,0.13432223,0.67283225,9.595502598,0.688115372,crawl
09/07/2020, 21:50:44,8.17149,-3.1465619,3.9242291,-0.05250778,0.12943779,0.6288723,9.595502598,0.644198376,crawl
09/07/2020, 21:50:44,8.166703,-3.0580273,3.9194436,-0.05250778,0.12943779,0.6288723,9.560785036,0.644198376,crawl
09/07/2020, 21:50:44,8.166703,-3.0580273,3.9194436,-0.059834447,0.11966889,0.5922389,9.560785036,0.607163671,crawl
09/07/2020, 21:50:44,8.157132,-2.9742785,3.9074793,-0.059834447,0.11966889,0.5922389,9.521214815,0.607163671,crawl
09/07/2020, 21:50:44,8.157132,-2.9742785,3.9074793,-0.07570889,0.11478445,0.54339445,9.521214815,0.560521926,crawl
09/07/2020, 21:50:44,8.140383,-2.9168508,3.9361932,-0.07570889,0.11478445,0.54339445,9.500919289,0.560521926,crawl
09/07/2020, 21:50:44,8.140383,-2.9168508,3.9361932,-0.09402556,0.10501556,0.4921078,9.500919289,0.511897616,crawl
09/07/2020, 21:50:44,8.145168,-2.87378,3.912265,-0.09402556,0.10501556,0.4921078,9.48199326,0.511897616,crawl
09/07/2020, 21:50:44,8.145168,-2.87378,3.912265,-0.10501556,0.10135223,0.44204223,9.48199326,0.465512489,crawl
09/07/2020, 21:50:44,8.128419,-2.8378878,3.9242291,-0.10501556,0.10135223,0.44204223,9.461732163,0.465512489,crawl
09/07/2020, 21:50:44,8.128419,-2.8378878,3.9242291,-0.123332225,0.102573335,0.38465002,9.461732163,0.416758642,crawl
09/07/2020, 21:50:44,8.123632,-2.8378878,3.8572302,-0.123332225,0.102573335,0.38465002,9.430017791,0.416758642,crawl
09/07/2020, 21:50:44,8.123632,-2.8378878,3.8572302,-0.12699556,0.09524667,0.33336335,9.430017791,0.369230183,crawl
09/07/2020, 21:50:44,8.128419,-2.8187451,3.830909,-0.12699556,0.09524667,0.33336335,9.417663309,0.369230183,crawl
09/07/2020, 21:50:44,8.128419,-2.8187451,3.830909,-0.11600556,0.085477784,0.2759711,9.417663309,0.311325871,crawl
09/07/2020, 21:50:44,8.118847,-2.804388,3.8069808,-0.11600556,0.085477784,0.2759711,9.395390911,0.311325871,crawl
09/07/2020, 21:50:44,8.118847,-2.804388,3.8069808,-0.09402556,0.08059334,0.22468445,9.395390911,0.256552515,crawl
09/07/2020, 21:50:44,8.133204,-2.804388,3.7830527,-0.09402556,0.08059334,0.22468445,9.398143152,0.256552515,crawl
09/07/2020, 21:50:44,8.133204,-2.804388,3.7830527,-0.06716111,0.05617111,0.17828223,9.398143152,0.198621154,crawl
09/07/2020, 21:50:45,9.334401,-1.4500505,3.9625144,0.10135223,0.15141778,-0.9976478,10.24378891,1.014150282,crawl
09/07/2020, 21:50:45,9.241081,-1.6319051,3.926622,0.10135223,0.15141778,-0.9976478,10.1724656,1.014150282,crawl
09/07/2020, 21:50:45,9.241081,-1.6319051,3.926622,0.19537778,0.12699556,-1.0452712,10.1724656,1.070930504,crawl
09/07/2020, 21:50:45,9.126225,-1.7395821,3.888337,0.19537778,0.12699556,-1.0452712,10.07141008,1.070930504,crawl
09/07/2020, 21:50:45,9.126225,-1.7395821,3.888337,0.27841336,0.098910004,-1.0892311,10.07141008,1.128592773,crawl
09/07/2020, 21:50:45,9.008977,-1.7970098,3.8763726,0.27841336,0.098910004,-1.0892311,9.97081612,1.128592773,crawl
09/07/2020, 21:50:45,9.008977,-1.7970098,3.8763726,0.34679556,0.07204556,-1.1295278,9.97081612,1.183761289,crawl
09/07/2020, 21:50:45,8.925228,-1.8281165,3.912265,0.34679556,0.07204556,-1.1295278,9.915015127,1.183761289,crawl
09/07/2020, 21:50:45,8.925228,-1.8281165,3.912265,0.38220778,0.068382226,-1.1576134,9.915015127,1.220994551,crawl
09/07/2020, 21:50:45,8.930014,-1.9070797,3.9242291,0.38220778,0.068382226,-1.1576134,9.938896883,1.220994551,crawl
09/07/2020, 21:50:45,8.930014,-1.9070797,3.9242291,0.39930335,0.06716111,-1.1710457,9.938896883,1.239072927,crawl
09/07/2020, 21:50:45,8.956335,-2.0075781,3.9338005,0.39930335,0.06716111,-1.1710457,9.986044956,1.239072927,crawl
09/07/2020, 21:50:45,8.956335,-2.0075781,3.9338005,0.40785113,0.06227667,-1.1832567,9.986044956,1.25312308,crawl
09/07/2020, 21:50:45,8.970692,-2.1535404,3.9696927,0.40785113,0.06227667,-1.1832567,10.04338118,1.25312308,crawl
09/07/2020, 21:50:45,8.970692,-2.1535404,3.9696927,0.39564002,0.06227667,-1.185699,10.04338118,1.251515677,crawl
09/07/2020, 21:50:45,9.004191,-2.2827528,3.9768713,0.39564002,0.06227667,-1.185699,10.10454986,1.251515677,crawl
09/07/2020, 21:50:45,9.004191,-2.2827528,3.9768713,0.37976557,0.057392225,-1.1783723,10.10454986,1.239385714,crawl
09/07/2020, 21:50:45,9.037691,-2.3712873,3.9553359,0.37976557,0.057392225,-1.1783723,10.14630702,1.239385714,crawl
09/07/2020, 21:50:45,9.037691,-2.3712873,3.9553359,0.3492378,0.05617111,-1.1698245,10.14630702,1.222134015,crawl
09/07/2020, 21:50:45,9.075976,-2.3952155,3.9098723,0.3492378,0.05617111,-1.1698245,10.16845641,1.222134015,crawl
09/07/2020, 21:50:46,8.800801,-2.5674987,3.6323047,-0.014653334,-0.11356334,-1.7950335,9.861023771,1.798681866,crawl
09/07/2020, 21:50:46,8.800801,-2.5674987,3.6323047,-0.019537779,-0.12089001,-1.8585312,9.861023771,1.862561268,crawl
09/07/2020, 21:50:46,8.88455,-2.589034,3.6873398,-0.019537779,-0.12089001,-1.8585312,9.961666654,1.862561268,crawl
09/07/2020, 21:50:46,8.88455,-2.589034,3.6873398,-0.029306669,-0.13432223,-1.9171445,9.961666654,1.922067771,crawl
09/07/2020, 21:50:46,8.99462,-2.629712,3.7423747,-0.029306669,-0.13432223,-1.9171445,10.09078533,1.922067771,crawl
09/07/2020, 21:50:46,8.99462,-2.629712,3.7423747,-0.04396,-0.14164889,-1.9708734,10.09078533,1.97644597,crawl
09/07/2020, 21:50:46,9.102298,-2.6895328,3.7950168,-0.04396,-0.14164889,-1.9708734,10.22191585,1.97644597,crawl
09/07/2020, 21:50:46,9.102298,-2.6895328,3.7950168,-0.05617111,-0.14409111,-2.0172756,10.22191585,2.023195041,crawl
09/07/2020, 21:50:46,9.233903,-2.7469604,3.8907297,-0.05617111,-0.14409111,-2.0172756,10.3898283,2.023195041,crawl
09/07/2020, 21:50:46,9.233903,-2.7469604,3.8907297,-0.059834447,-0.14653334,-2.0587933,10.3898283,2.064868533,crawl
09/07/2020, 21:50:46,9.3511505,-2.8402805,3.940979,-0.059834447,-0.14653334,-2.0587933,10.5376717,2.064868533,crawl
09/07/2020, 21:50:46,9.3511505,-2.8402805,3.940979,-0.058613338,-0.14164889,-2.086879,10.5376717,2.092501841,crawl
09/07/2020, 21:50:46,9.449257,-2.914458,4.031906,-0.058613338,-0.14164889,-2.086879,10.67889454,2.092501841,crawl
09/07/2020, 21:50:46,9.449257,-2.914458,4.031906,-0.047623336,-0.15019667,-2.107638,10.67889454,2.11351945,crawl
09/07/2020, 21:50:46,9.556933,-3.0293136,4.1084766,-0.047623336,-0.15019667,-2.107638,10.83472644,2.11351945,crawl
09/07/2020, 21:50:46,9.556933,-3.0293136,4.1084766,-0.045181114,-0.14897557,-2.1149645,10.83472644,2.120686169,crawl
09/07/2020, 21:50:46,9.616755,-3.0867412,4.1922255,-0.045181114,-0.14897557,-2.1149645,10.93547865,2.120686169,crawl
09/07/2020, 21:50:46,9.616755,-3.0867412,4.1922255,-0.046402223,-0.15019667,-2.1064167,10.93547865,2.112274492,crawl
