DATE,TIME,ax,ay,az,gx,gy,gz,ma,mg,label
09/07/2020, 21:52:34,-2.2181466,-0.15553348,9.65504,0.078151114,0.045181114,-0.33214223,9.907782705,0.344190926,crawl
09/07/2020, 21:52:34,-2.2181466,-0.15553348,9.65504,0.23079,0.078151114,-0.18438779,9.907782705,0.305565834,crawl
09/07/2020, 21:52:34,-2.359323,-0.46899325,9.561719,0.23079,0.078151114,-0.18438779,9.859656632,0.305565834,crawl
09/07/2020, 21:52:34,-2.359323,-0.46899325,9.561719,0.26620224,0.06960334,-0.013432222,9.859656632,0.275479006,crawl
09/07/2020, 21:52:34,-2.388037,-0.39481574,9.571291,0.26620224,0.06960334,-0.013432222,9.872598992,0.275479006,crawl
09/07/2020, 21:52:34,-2.388037,-0.39481574,9.571291,0.20881,0.07204556,0.014653334,9.872598992,0.22137502,crawl
09/07/2020, 21:52:34,-2.4478576,-0.1363909,9.561719,0.20881,0.07204556,0.014653334,9.871022161,0.22137502,crawl
09/07/2020, 21:52:34,-2.4478576,-0.1363909,9.561719,0.16851334,0.058613338,-0.001221111,9.871022161,0.178420181,crawl
09/07/2020, 21:52:34,-2.4789643,0.021535404,9.432507,0.16851334,0.058613338,-0.001221111,9.752841019,0.178420181,crawl
09/07/2020, 21:52:34,-2.4789643,0.021535404,9.432507,0.16607112,0.036633335,-0.008547778,9.752841019,0.170278248,crawl
09/07/2020, 21:52:34,-2.4335005,0.07178468,9.375079,0.16607112,0.036633335,-0.008547778,9.686030509,0.170278248,crawl
09/07/2020, 21:52:34,-2.4335005,0.07178468,9.375079,0.14897557,0.02198,-0.023201112,9.686030509,0.152365125,crawl
09/07/2020, 21:52:34,-2.28036,0.22731815,9.363115,0.14897557,0.02198,-0.023201112,9.639483571,0.152365125,crawl
09/07/2020, 21:52:34,-2.28036,0.22731815,9.363115,0.07570889,0.019537779,-0.081814446,9.639483571,0.113168742,crawl
09/07/2020, 21:52:34,-2.2277179,0.40677986,9.406186,0.07570889,0.019537779,-0.081814446,9.674943607,0.113168742,crawl
09/07/2020, 21:52:34,-2.2277179,0.40677986,9.406186,0.057392225,-0.01099,-0.14897557,9.674943607,0.160026144,crawl
09/07/2020, 21:52:34,-2.309074,0.23928227,9.583255,0.057392225,-0.01099,-0.14897557,9.86041841,0.160026144,crawl
09/07/2020, 21:52:34,-2.309074,0.23928227,9.583255,0.06227667,-0.02075889,-0.12699556,9.86041841,0.142958694,crawl
09/07/2020, 21:52:34,-2.3353949,0.07178468,9.616755,0.06227667,-0.02075889,-0.12699556,9.896524133,0.142958694,crawl
09/07/2020, 21:52:34,-2.3353949,0.07178468,9.616755,0.10135223,-0.023201112,-0.11112112,9.896524133,0.152179069,crawl
09/07/2020, 21:52:35,-8.327023,-3.1513474,4.3932223,-0.6068922,0.123332225,0.2820767,9.928277669,0.680511772,crawl
09/07/2020, 21:52:35,-8.327023,-3.1513474,4.3932223,-0.66062117,0.11844778,0.29795113,9.928277669,0.734319467,crawl
09/07/2020, 21:52:35,-8.370093,-3.2398818,4.4315076,-0.66062117,0.11844778,0.29795113,10.00967312,0.734319467,crawl
09/07/2020, 21:52:35,-8.370093,-3.2398818,4.4315076,-0.70946556,0.07448778,0.31260446,10.00967312,0.778852593,crawl
09/07/2020, 21:52:35,-8.437093,-3.3164523,4.3525443,-0.70946556,0.07448778,0.31260446,10.05624344,0.778852593,crawl
09/07/2020, 21:52:35,-8.437093,-3.3164523,4.3525443,-0.78395337,-0.026864445,0.33336335,10.05624344,0.852311978,crawl
09/07/2020, 21:52:35,-8.396415,-3.345166,4.182654,-0.78395337,-0.026864445,0.33336335,9.959142021,0.852311978,crawl
09/07/2020, 21:52:35,-8.396415,-3.345166,4.182654,-0.85599893,-0.16607112,0.34679556,9.959142021,0.938392748,crawl
09/07/2020, 21:52:35,-8.23131,-3.3954153,4.024728,-0.85599893,-0.16607112,0.34679556,9.77147592,0.938392748,crawl
09/07/2020, 21:52:35,-8.23131,-3.3954153,4.024728,-0.91461223,-0.29306668,0.34191114,9.77147592,1.019463998,crawl
09/07/2020, 21:52:35,-7.9776707,-3.4049866,3.9314077,-0.91461223,-0.29306668,0.34191114,9.523294053,1.019463998,crawl
09/07/2020, 21:52:35,-7.9776707,-3.4049866,3.9314077,-0.9280445,-0.3724389,0.32115224,9.523294053,1.050293336,crawl
09/07/2020, 21:52:35,-7.6713896,-3.4672,3.9673,-0.9280445,-0.3724389,0.32115224,9.30651186,1.050293336,crawl
09/07/2020, 21:52:35,-7.6713896,-3.4672,3.9673,-0.90240115,-0.38465002,0.28329778,9.30651186,1.021049021,crawl
09/07/2020, 21:52:35,-7.5110703,-3.4408789,4.0510488,-0.90240115,-0.38465002,0.28329778,9.201457478,1.021049021,crawl
09/07/2020, 21:52:35,-7.5110703,-3.4408789,4.0510488,-0.85599893,-0.34435335,0.22712667,9.201457478,0.950210465,crawl
09/07/2020, 21:52:35,-7.487142,-3.3619158,4.1204405,-0.85599893,-0.34435335,0.22712667,9.183561641,0.950210465,crawl
09/07/2020, 21:52:35,-7.487142,-3.3619158,4.1204405,-0.8205867,-0.28574002,0.16362889,9.183561641,0.884185656,crawl
09/07/2020, 21:52:35,-7.661818,-3.1800613,4.048656,-0.8205867,-0.28574002,0.16362889,9.230810415,0.884185656,crawl
09/07/2020, 21:52:35,-7.661818,-3.1800613,4.048656,-0.8205867,-0.26864445,0.09646778,9.230810415,0.86881435,crawl
09/07/2020, 21:52:36,-10.530812,-3.2614172,3.696911,1.185699,0.8364611,0.6288723,11.6276395,1.581464398,crawl
09/07/2020, 21:52:36,-10.717453,-3.251846,3.7088752,1.185699,0.8364611,0.6288723,11.7980531,1.581464398,crawl
09/07/2020, 21:52:36,-10.717453,-3.251846,3.7088752,1.2491968,0.82425004,0.6471889,11.7980531,1.630562532,crawl
09/07/2020, 21:52:36,-10.863415,-3.2542388,3.7016966,1.2491968,0.82425004,0.6471889,11.92922499,1.630562532,crawl
09/07/2020, 21:52:36,-10.863415,-3.2542388,3.7016966,1.3114734,0.77906895,0.65085226,11.92922499,1.65846902,crawl
09/07/2020, 21:52:36,-10.932807,-3.2446675,3.6275191,1.3114734,0.77906895,0.65085226,11.96716469,1.65846902,crawl
09/07/2020, 21:52:36,-10.932807,-3.2446675,3.6275191,1.3615389,0.70946556,0.63986224,11.96716469,1.663295888,crawl
09/07/2020, 21:52:36,-10.889736,-3.1896327,3.5940197,1.3615389,0.70946556,0.63986224,11.90281848,1.663295888,crawl
09/07/2020, 21:52:36,-10.889736,-3.1896327,3.5940197,1.4030567,0.6520734,0.61544,11.90281848,1.665092887,crawl
09/07/2020, 21:52:36,-10.688739,-3.1274192,3.548556,1.4030567,0.6520734,0.61544,11.68854734,1.665092887,crawl
09/07/2020, 21:52:36,-10.688739,-3.1274192,3.548556,1.4238156,0.60445005,0.58124894,11.68854734,1.652410686,crawl
09/07/2020, 21:52:36,-10.447063,-3.0125637,3.5389848,1.4238156,0.60445005,0.58124894,11.43420692,1.652410686,crawl
09/07/2020, 21:52:36,-10.447063,-3.0125637,3.5389848,1.4177101,0.55438447,0.5360678,11.43420692,1.613881235,crawl
09/07/2020, 21:52:36,-10.131211,-2.8666015,3.4863427,1.4177101,0.55438447,0.5360678,11.09114201,1.613881235,crawl
09/07/2020, 21:52:36,-10.131211,-2.8666015,3.4863427,1.3737501,0.5018767,0.47867557,11.09114201,1.538895659,crawl
09/07/2020, 21:52:36,-9.796216,-2.6919255,3.4408789,1.3737501,0.5018767,0.47867557,10.7262276,1.538895659,crawl
09/07/2020, 21:52:36,-9.796216,-2.6919255,3.4408789,1.3065889,0.4591378,0.4151778,10.7262276,1.445805879,crawl
09/07/2020, 21:52:36,-9.4636135,-2.5004997,3.3667014,1.3065889,0.4591378,0.4151778,10.35119112,1.445805879,crawl
09/07/2020, 21:52:36,-9.4636135,-2.5004997,3.3667014,1.2101212,0.42372558,0.35168,10.35119112,1.329516981,crawl
09/07/2020, 21:52:36,-9.140582,-2.2779672,3.278167,1.2101212,0.42372558,0.35168,9.97425458,1.329516981,crawl
09/07/2020, 21:52:37,-8.319844,-4.017549,3.2470603,-2.7450578,-1.5105145,1.90127,9.793054127,3.664945324,crawl
09/07/2020, 21:52:37,-8.319844,-4.017549,3.2470603,-2.6412635,-1.4787656,1.9586623,9.793054127,3.605465076,crawl
09/07/2020, 21:52:37,-8.329415,-3.9146578,3.3786657,-2.6412635,-1.4787656,1.9586623,9.804034238,3.605465076,crawl
09/07/2020, 21:52:37,-8.329415,-3.9146578,3.3786657,-2.6070724,-1.4421322,2.0111701,9.804034238,3.594631693,crawl
09/07/2020, 21:52:37,-8.310273,-3.845266,3.3762727,-2.6070724,-1.4421322,2.0111701,9.759402071,3.594631693,crawl
09/07/2020, 21:52:37,-8.310273,-3.845266,3.3762727,-2.60463,-1.4128256,2.0514667,9.759402071,3.603982404,crawl
09/07/2020, 21:52:37,-8.240881,-3.8763726,3.2949169,-2.60463,-1.4128256,2.0514667,9.684774681,3.603982404,crawl
09/07/2020, 21:52:37,-8.240881,-3.8763726,3.2949169,-2.6021879,-1.3871822,2.0856578,9.684774681,3.611872766,crawl
09/07/2020, 21:52:37,-8.2049885,-3.9433718,3.2327034,-2.6021879,-1.3871822,2.0856578,9.660351364,3.611872766,crawl
09/07/2020, 21:52:37,-8.2049885,-3.9433718,3.2327034,-2.591198,-1.3590968,2.1149645,9.660351364,3.610335954,crawl
09/07/2020, 21:52:37,-8.17149,-4.048656,3.1680973,-2.591198,-1.3590968,2.1149645,9.654102739,3.610335954,crawl
09/07/2020, 21:52:37,-8.17149,-4.048656,3.1680973,-2.5631123,-1.3383378,2.1381657,9.654102739,3.596170891,crawl
09/07/2020, 21:52:37,-8.149954,-4.2185464,3.2398818,-2.5631123,-1.3383378,2.1381657,9.732148532,3.596170891,crawl
09/07/2020, 21:52:37,-8.149954,-4.2185464,3.2398818,-2.504499,-1.3322322,2.1503768,9.732148532,3.559701973,crawl
09/07/2020, 21:52:37,-8.145168,-4.3932223,3.4360933,-2.504499,-1.3322322,2.1503768,9.871722572,3.559701973,crawl
09/07/2020, 21:52:37,-8.145168,-4.3932223,3.4360933,-2.4080312,-1.3163579,2.1393867,9.871722572,3.479710854,crawl
09/07/2020, 21:52:37,-8.159525,-4.4889355,3.6323047,-2.4080312,-1.3163579,2.1393867,9.996100527,3.479710854,crawl
09/07/2020, 21:52:37,-8.159525,-4.4889355,3.6323047,-2.316448,-1.2882723,2.1161857,9.996100527,3.391727938,crawl
09/07/2020, 21:52:37,-8.159525,-4.4554358,3.735196,-2.316448,-1.2882723,2.1161857,10.01900417,3.391727938,crawl
09/07/2020, 21:52:37,-8.159525,-4.4554358,3.735196,-2.2993524,-1.27484,2.0734468,10.01900417,3.348345851,crawl
09/07/2020, 21:52:38,-3.9170506,-8.664411,-0.9379865,-0.22590557,-0.26009667,-0.07570889,9.55484772,0.352725727,crawl
09/07/2020, 21:52:38,-3.9170506,-8.664411,-0.9379865,-0.1856089,-0.2955089,-0.06105556,9.55484772,0.354265363,crawl
09/07/2020, 21:52:38,-3.6921253,-8.717052,-0.9092726,-0.1856089,-0.2955089,-0.06105556,9.510287569,0.354265363,crawl
09/07/2020, 21:52:38,-3.6921253,-8.717052,-0.9092726,-0.09646778,-0.25887558,-0.059834447,9.510287569,0.28267076,crawl
09/07/2020, 21:52:38,-3.586841,-8.743374,-0.7537391,-0.09646778,-0.25887558,-0.059834447,9.480513616,0.28267076,crawl
09/07/2020, 21:52:38,-3.586841,-8.743374,-0.7537391,0.045181114,-0.22468445,-0.07326667,9.480513616,0.240608476,crawl
09/07/2020, 21:52:38,-3.8093736,-8.769695,-0.69152576,0.045181114,-0.22468445,-0.07326667,9.586297021,0.240608476,crawl
09/07/2020, 21:52:38,-3.8093736,-8.769695,-0.69152576,0.22346334,-0.23323223,-0.059834447,9.586297021,0.328501597,crawl
09/07/2020, 21:52:38,-4.278367,-8.836694,-0.6891329,0.22346334,-0.23323223,-0.059834447,9.842077292,0.328501597,crawl
09/07/2020, 21:52:38,-4.278367,-8.836694,-0.6891329,0.35168,-0.31993112,-0.014653334,9.842077292,0.475656884,crawl
09/07/2020, 21:52:38,-4.6971107,-8.839087,-0.9523434,0.35168,-0.31993112,-0.014653334,10.05481264,0.475656884,crawl
09/07/2020, 21:52:38,-4.6971107,-8.839087,-0.9523434,0.36999667,-0.4713489,0.04029667,10.05481264,0.600575683,crawl
09/07/2020, 21:52:38,-4.759324,-8.846265,-1.2251252,0.36999667,-0.4713489,0.04029667,10.11970844,0.600575683,crawl
09/07/2020, 21:52:38,-4.759324,-8.846265,-1.2251252,0.2503278,-0.6056711,0.11234222,10.11970844,0.664922756,crawl
09/07/2020, 21:52:38,-4.388437,-8.829515,-1.4620147,0.2503278,-0.6056711,0.11234222,9.967758405,0.664922756,crawl
09/07/2020, 21:52:38,-4.388437,-8.829515,-1.4620147,0.091583334,-0.6459678,0.18805112,9.967758405,0.678988295,crawl
09/07/2020, 21:52:38,-3.749553,-8.827123,-1.550549,0.091583334,-0.6459678,0.18805112,9.715011307,0.678988295,crawl
09/07/2020, 21:52:38,-3.749553,-8.827123,-1.550549,-0.05006556,-0.6227667,0.21613668,9.715011307,0.6611051,crawl
09/07/2020, 21:52:38,-3.2015967,-8.932407,-1.564906,-0.05006556,-0.6227667,0.21613668,9.617018979,0.6611051,crawl
09/07/2020, 21:52:38,-3.2015967,-8.932407,-1.564906,-0.098910004,-0.59346,0.20026223,9.617018979,0.634100111,crawl
09/07/2020, 21:52:39,-3.9888353,-8.082955,1.0217353,0.17217667,-0.45303226,0.15141778,9.071323924,0.507750307,crawl
09/07/2020, 21:52:39,-3.938586,-8.240881,0.8566305,0.17217667,-0.45303226,0.15141778,9.173788453,0.507750307,crawl
09/07/2020, 21:52:39,-3.938586,-8.240881,0.8566305,0.15386,-0.45181113,0.13676445,9.173788453,0.496498456,crawl
09/07/2020, 21:52:39,-3.9050865,-8.408379,0.6364908,0.15386,-0.45181113,0.13676445,9.292774181,0.496498456,crawl
09/07/2020, 21:52:39,-3.9050865,-8.408379,0.6364908,0.12943779,-0.4151778,0.13676445,9.292774181,0.455885134,crawl
09/07/2020, 21:52:39,-3.9673,-8.592627,0.45224348,0.12943779,-0.4151778,0.13676445,9.475084399,0.455885134,crawl
09/07/2020, 21:52:39,-3.9673,-8.592627,0.45224348,0.10867889,-0.38709223,0.15019667,9.475084399,0.429197552,crawl
09/07/2020, 21:52:39,-4.048656,-8.786445,0.30388847,0.10867889,-0.38709223,0.15019667,9.679130815,0.429197552,crawl
09/07/2020, 21:52:39,-4.048656,-8.786445,0.30388847,0.13310112,-0.38465002,0.16729222,9.679130815,0.440066171,crawl
09/07/2020, 21:52:39,-4.0869412,-8.891729,0.28235307,0.13310112,-0.38465002,0.16729222,9.790079821,0.440066171,crawl
09/07/2020, 21:52:39,-4.0869412,-8.891729,0.28235307,0.19293556,-0.36267,0.18805112,9.790079821,0.451792966,crawl
09/07/2020, 21:52:39,-4.031906,-8.922835,0.37806597,0.19293556,-0.36267,0.18805112,9.79878521,0.451792966,crawl
09/07/2020, 21:52:39,-4.031906,-8.922835,0.37806597,0.27108666,-0.34069002,0.21247335,9.79878521,0.484461134,crawl
09/07/2020, 21:52:39,-3.9194436,-8.906086,0.6436693,0.27108666,-0.34069002,0.21247335,9.751651944,0.484461134,crawl
09/07/2020, 21:52:39,-3.9194436,-8.906086,0.6436693,0.34435335,-0.31138334,0.2185789,9.751651944,0.513142815,crawl
09/07/2020, 21:52:39,-3.7974095,-8.827123,0.86859465,0.34435335,-0.31138334,0.2185789,9.648464685,0.513142815,crawl
09/07/2020, 21:52:39,-3.7974095,-8.827123,0.86859465,0.39930335,-0.2869611,0.20026223,9.648464685,0.530937664,crawl
09/07/2020, 21:52:39,-3.7136607,-8.709874,1.1222339,0.39930335,-0.2869611,0.20026223,9.534809518,0.530937664,crawl
09/07/2020, 21:52:39,-3.7136607,-8.709874,1.1222339,0.38709223,-0.28574002,0.16118668,9.534809518,0.507413934,crawl
09/07/2020, 21:52:39,-3.735196,-8.595019,1.3519448,0.38709223,-0.28574002,0.16118668,9.468569175,0.507413934,crawl
09/07/2020, 21:52:40,-7.623533,-3.6610186,-1.3495519,0.48111778,0.6020078,1.5727912,8.5640294,1.7514451,crawl
09/07/2020, 21:52:40,-7.274181,-4.6325045,-1.1940185,0.48111778,0.6020078,1.5727912,8.706289988,1.7514451,crawl
09/07/2020, 21:52:40,-7.274181,-4.6325045,-1.1940185,1.13197,1.0440501,1.4787656,8.706289988,2.134981151,crawl
09/07/2020, 21:52:40,-6.984649,-5.1493545,-1.0336994,1.13197,1.0440501,1.4787656,8.738976482,2.134981151,crawl
09/07/2020, 21:52:40,-6.984649,-5.1493545,-1.0336994,1.7278723,1.4860923,1.3334534,8.738976482,2.640475515,crawl
09/07/2020, 21:52:40,-6.9702926,-5.1828537,-1.0815558,1.7278723,1.4860923,1.3334534,8.753097394,2.640475515,crawl
09/07/2020, 21:52:40,-6.9702926,-5.1828537,-1.0815558,2.174799,1.8597523,1.2479756,8.753097394,3.121837955,crawl
09/07/2020, 21:52:40,-7.240681,-5.046463,-1.2299109,2.174799,1.8597523,1.2479756,8.91105681,3.121837955,crawl
09/07/2020, 21:52:40,-7.240681,-5.046463,-1.2299109,2.4300113,2.152819,1.24187,8.91105681,3.475892013,crawl
09/07/2020, 21:52:40,-7.645068,-4.8693943,-1.4524434,2.4300113,2.152819,1.24187,9.179741821,3.475892013,crawl
09/07/2020, 21:52:40,-7.645068,-4.8693943,-1.4524434,2.537469,2.394599,1.2626289,9.179741821,3.710402192,crawl
09/07/2020, 21:52:40,-8.018349,-4.881358,-1.6175481,2.537469,2.394599,1.2626289,9.525651422,3.710402192,crawl
09/07/2020, 21:52:40,-8.018349,-4.881358,-1.6175481,2.6217256,2.6290524,1.2760612,9.525651422,3.926027708,crawl
09/07/2020, 21:52:40,-8.267202,-5.1421757,-1.6103697,2.6217256,2.6290524,1.2760612,9.868226605,3.926027708,crawl
09/07/2020, 21:52:40,-8.267202,-5.1421757,-1.6103697,2.790239,2.9196768,1.2589656,9.868226605,4.230241261,crawl
09/07/2020, 21:52:40,-8.405986,-5.6039906,-1.4189439,2.790239,2.9196768,1.2589656,10.20189736,4.230241261,crawl
09/07/2020, 21:52:40,-8.405986,-5.6039906,-1.4189439,3.053999,3.240829,1.1905833,10.20189736,4.609487046,crawl
09/07/2020, 21:52:40,-8.595019,-6.0777693,-1.1365907,3.053999,3.240829,1.1905833,10.58798731,4.609487046,crawl
09/07/2020, 21:52:40,-8.595019,-6.0777693,-1.1365907,3.4301012,3.5741923,1.0416079,10.58798731,5.062152839,crawl
09/07/2020, 21:52:40,-8.817552,-6.491728,-0.9212367,3.4301012,3.5741923,1.0416079,10.98819474,5.062152839,crawl
09/07/2020, 21:52:41,-10.403993,-4.867001,2.132005,0.52141446,0.62643003,2.1809046,11.68230318,2.328225208,crawl
09/07/2020, 21:52:41,-10.403993,-4.867001,2.132005,0.48966557,0.66306335,1.8939434,11.68230318,2.065537965,crawl
09/07/2020, 21:52:41,-9.961321,-4.7449675,2.536392,0.48966557,0.66306335,1.8939434,11.32148021,2.065537965,crawl
09/07/2020, 21:52:41,-9.961321,-4.7449675,2.536392,0.49821335,0.71435004,1.6057612,11.32148021,1.826740667,crawl
09/07/2020, 21:52:41,-9.568898,-4.749753,2.9958138,0.49821335,0.71435004,1.6057612,11.09499288,1.826740667,crawl
09/07/2020, 21:52:41,-9.568898,-4.749753,2.9958138,0.56293225,0.80227005,1.3163579,11.09499288,1.641136178,crawl
09/07/2020, 21:52:41,-9.236296,-4.8646083,3.4073794,0.56293225,0.80227005,1.3163579,10.98106581,1.641136178,crawl
09/07/2020, 21:52:41,-9.236296,-4.8646083,3.4073794,0.6520734,0.88408446,1.0464922,10.98106581,1.517218178,crawl
09/07/2020, 21:52:41,-8.9108715,-5.127819,3.711268,0.6520734,0.88408446,1.0464922,10.93030965,1.517218178,crawl
09/07/2020, 21:52:41,-8.9108715,-5.127819,3.711268,0.7436567,0.9378134,0.7949434,10.93030965,1.436820884,crawl
09/07/2020, 21:52:41,-8.678768,-5.410172,3.9338005,0.7436567,0.9378134,0.7949434,10.95745243,1.436820884,crawl
09/07/2020, 21:52:41,-8.678768,-5.410172,3.9338005,0.83524,0.96589893,0.57270116,10.95745243,1.399490346,crawl
09/07/2020, 21:52:41,-8.437093,-5.721239,4.0941195,0.83524,0.96589893,0.57270116,10.98539604,1.399490346,crawl
09/07/2020, 21:52:41,-8.437093,-5.721239,4.0941195,0.94880337,0.9915423,0.38220778,10.98539604,1.424593523,crawl
09/07/2020, 21:52:41,-8.26481,-6.0418773,4.1850467,0.94880337,0.9915423,0.38220778,11.06010734,1.424593523,crawl
09/07/2020, 21:52:41,-8.26481,-6.0418773,4.1850467,1.1148745,0.99886894,0.20881,11.06010734,1.511385421,crawl
09/07/2020, 21:52:41,-8.054241,-6.34098,4.168297,1.1148745,0.99886894,0.20881,11.06587219,1.511385421,crawl
09/07/2020, 21:52:41,-8.054241,-6.34098,4.168297,1.3444434,0.98055226,0.045181114,11.06587219,1.664647778,crawl
09/07/2020, 21:52:41,-7.865208,-6.587441,4.063013,1.3444434,0.98055226,0.045181114,11.0346705,1.664647778,crawl
09/07/2020, 21:52:41,-7.865208,-6.587441,4.063013,1.6191934,0.95613,-0.11600556,11.0346705,1.883992914,crawl
09/07/2020, 21:52:42,-9.104691,-4.551149,2.201397,-1.0379444,-0.03297,4.4143167,10.41414878,4.534821628,crawl
09/07/2020, 21:52:42,-9.104691,-4.551149,2.201397,-1.0355023,-0.028085556,4.5913777,10.41414878,4.706782696,crawl
09/07/2020, 21:52:42,-9.602397,-4.651647,2.143969,-1.0355023,-0.028085556,4.5913777,10.88303503,4.706782696,crawl
09/07/2020, 21:52:42,-9.602397,-4.651647,2.143969,-1.0355023,-0.029306669,4.737911,10.88303503,4.849837801,crawl
09/07/2020, 21:52:42,-10.107283,-4.8239303,2.1008983,-1.0355023,-0.029306669,4.737911,11.39479,4.849837801,crawl
09/07/2020, 21:52:42,-10.107283,-4.8239303,2.1008983,-1.0196278,-0.017095556,4.855138,11.39479,4.961078152,crawl
09/07/2020, 21:52:42,-10.578669,-5.0177493,2.0027926,-1.0196278,-0.017095556,4.855138,11.87843489,4.961078152,crawl
09/07/2020, 21:52:42,-10.578669,-5.0177493,2.0027926,-0.98055226,0.001221111,4.938174,11.87843489,5.03458483,crawl
09/07/2020, 21:52:42,-11.062019,-5.2235317,2.0075781,-0.98055226,0.001221111,4.938174,12.39693211,5.03458483,crawl
09/07/2020, 21:52:42,-11.062019,-5.2235317,2.0075781,-0.8987378,0.037854444,5.00045,12.39693211,5.080714922,crawl
09/07/2020, 21:52:42,-11.62194,-5.4484572,2.105684,-0.8987378,0.037854444,5.00045,13.00727001,5.080714922,crawl
09/07/2020, 21:52:42,-11.62194,-5.4484572,2.105684,-0.79250115,0.09402556,5.0370836,13.00727001,5.099912777,crawl
09/07/2020, 21:52:42,-12.260823,-5.709275,2.239682,-0.79250115,0.09402556,5.0370836,13.70911304,5.099912777,crawl
09/07/2020, 21:52:42,-12.260823,-5.709275,2.239682,-0.6557367,0.15630223,5.0358624,13.70911304,5.080780605,crawl
09/07/2020, 21:52:42,-12.96192,-6.0346985,2.37368,-0.6557367,0.15630223,5.0358624,14.4935609,5.080780605,crawl
09/07/2020, 21:52:42,-12.96192,-6.0346985,2.37368,-0.4823389,0.18194556,4.98946,14.4935609,5.016020934,crawl
09/07/2020, 21:52:42,-13.682159,-6.3194447,2.5316064,-0.4823389,0.18194556,4.98946,15.28220856,5.016020934,crawl
09/07/2020, 21:52:42,-13.682159,-6.3194447,2.5316064,-0.29917222,0.16485001,4.9015403,15.28220856,4.913428198,crawl
09/07/2020, 21:52:42,-14.266008,-6.558727,2.6488547,-0.29917222,0.16485001,4.9015403,15.9233264,4.913428198,crawl
09/07/2020, 21:52:42,-14.266008,-6.558727,2.6488547,-0.13920668,0.109900005,4.7635546,15.9233264,4.766855219,crawl
09/07/2020, 21:52:43,-6.005985,-2.1655045,3.2207394,0.15019667,0.4163989,0.3712178,7.150833855,0.577710776,crawl
09/07/2020, 21:52:43,-6.0514483,-1.820938,3.196811,0.15019667,0.4163989,0.3712178,7.082050731,0.577710776,crawl
09/07/2020, 21:52:43,-6.0514483,-1.820938,3.196811,0.29795113,0.5556056,0.34557447,7.082050731,0.718953519,crawl
09/07/2020, 21:52:43,-6.3481584,-1.524228,2.9862428,0.29795113,0.5556056,0.34557447,7.179138623,0.718953519,crawl
09/07/2020, 21:52:43,-6.3481584,-1.524228,2.9862428,0.38831335,0.6191034,0.3284789,7.179138623,0.801233196,crawl
09/07/2020, 21:52:43,-6.869794,-1.3016955,2.656033,0.38831335,0.6191034,0.3284789,7.47950471,0.801233196,crawl
09/07/2020, 21:52:43,-6.869794,-1.3016955,2.656033,0.4163989,0.59834445,0.32970002,7.47950471,0.800066394,crawl
09/07/2020, 21:52:43,-7.513463,-1.0767702,2.2157538,0.4163989,0.59834445,0.32970002,7.907030129,0.800066394,crawl
09/07/2020, 21:52:43,-7.513463,-1.0767702,2.2157538,0.35168,0.5140878,0.35168,7.907030129,0.715292892,crawl
09/07/2020, 21:52:43,-8.16431,-0.87338024,1.7706888,0.35168,0.5140878,0.35168,8.399648623,0.715292892,crawl
09/07/2020, 21:52:43,-8.16431,-0.87338024,1.7706888,0.20514667,0.38831335,0.38709223,8.399648623,0.585416786,crawl
09/07/2020, 21:52:43,-8.721839,-0.6580262,1.3016955,0.20514667,0.38831335,0.38709223,8.842956761,0.585416786,crawl
09/07/2020, 21:52:43,-8.721839,-0.6580262,1.3016955,-0.013432222,0.2625389,0.43105224,8.842956761,0.504889231,crawl
09/07/2020, 21:52:43,-9.159725,-0.49052864,0.95473623,-0.013432222,0.2625389,0.43105224,9.222402353,0.504889231,crawl
09/07/2020, 21:52:43,-9.159725,-0.49052864,0.95473623,-0.27841336,0.14164889,0.4933289,9.222402353,0.583910787,crawl
09/07/2020, 21:52:43,-9.533006,-0.37567315,0.6771688,-0.27841336,0.14164889,0.4933289,9.564407239,0.583910787,crawl
09/07/2020, 21:52:43,-9.533006,-0.37567315,0.6771688,-0.57636446,0.03297,0.5580478,9.564407239,0.802932328,crawl
09/07/2020, 21:52:43,-9.817751,-0.3684947,0.44506502,-0.57636446,0.03297,0.5580478,9.834739679,0.802932328,crawl
09/07/2020, 21:52:43,-9.817751,-0.3684947,0.44506502,-0.88896894,-0.06105556,0.6349778,9.834739679,1.09416196,crawl
09/07/2020, 21:52:43,-10.054641,-0.44506502,0.29192436,-0.88896894,-0.06105556,0.6349778,10.06871907,1.09416196,crawl
09/07/2020, 21:52:44,-8.690732,-3.438486,1.4715859,-0.58979666,-0.14409111,-0.6984756,9.461372753,0.925467728,crawl
09/07/2020, 21:52:44,-8.690732,-3.438486,1.4715859,-0.57514334,0.02198,-0.5690378,9.461372753,0.809368267,crawl
09/07/2020, 21:52:44,-8.956335,-3.35713,1.4931214,-0.57514334,0.02198,-0.5690378,9.680685487,0.809368267,crawl
09/07/2020, 21:52:44,-8.956335,-3.35713,1.4931214,-0.5556056,0.12089001,-0.4371578,9.680685487,0.71723003,crawl
09/07/2020, 21:52:44,-9.241081,-3.3164523,1.4069797,-0.5556056,0.12089001,-0.4371578,9.91846913,0.71723003,crawl
09/07/2020, 21:52:44,-9.241081,-3.3164523,1.4069797,-0.56171113,0.09768889,-0.33214223,9.91846913,0.659834054,crawl
09/07/2020, 21:52:44,-9.430114,-3.2566316,1.2418749,-0.56171113,0.09768889,-0.33214223,10.05360378,0.659834054,crawl
09/07/2020, 21:52:44,-9.430114,-3.2566316,1.2418749,-0.58613336,0.001221111,-0.22346334,10.05360378,0.627287552,crawl
09/07/2020, 21:52:44,-9.454042,-3.199204,1.1700903,-0.58613336,0.001221111,-0.22346334,10.04902661,0.627287552,crawl
09/07/2020, 21:52:44,-9.454042,-3.199204,1.1700903,-0.64108336,0.013432222,-0.07204556,10.04902661,0.645258755,crawl
09/07/2020, 21:52:44,-9.425328,-3.1322048,1.3160524,-0.64108336,0.013432222,-0.07204556,10.0189577,0.645258755,crawl
09/07/2020, 21:52:44,-9.425328,-3.1322048,1.3160524,-0.7265611,0.16118668,0.14287001,10.0189577,0.75781532,crawl
09/07/2020, 21:52:44,-9.501899,-3.1489546,1.4739788,-0.7265611,0.16118668,0.14287001,10.11803384,0.75781532,crawl
09/07/2020, 21:52:44,-9.501899,-3.1489546,1.4739788,-0.8437878,0.3309211,0.37610224,10.11803384,0.981294813,crawl
09/07/2020, 21:52:44,-9.769895,-3.1944182,1.5553347,-0.8437878,0.3309211,0.37610224,10.39587486,0.981294813,crawl
09/07/2020, 21:52:44,-9.769895,-3.1944182,1.5553347,-0.97078335,0.40907225,0.5788067,10.39587486,1.201989026,crawl
09/07/2020, 21:52:44,-10.100104,-3.3547373,1.5457634,-0.97078335,0.40907225,0.5788067,10.75433653,1.201989026,crawl
09/07/2020, 21:52:44,-10.100104,-3.3547373,1.5457634,-1.0672512,0.33336335,0.7424356,10.75433653,1.342150082,crawl
09/07/2020, 21:52:44,-10.289138,-3.5437703,1.564906,-1.0672512,0.33336335,0.7424356,10.99425288,1.342150082,crawl
09/07/2020, 21:52:44,-10.289138,-3.5437703,1.564906,-1.1038845,0.15996556,0.8877478,10.99425288,1.425568686,crawl
09/07/2020, 21:52:45,-9.556933,-1.8400806,0.7537391,1.3481067,-1.3200212,-1.4873134,9.761608239,2.402488033,crawl
09/07/2020, 21:52:45,-9.556933,-1.8400806,0.7537391,0.9866578,-1.350549,-1.5251678,9.761608239,2.263539939,crawl
09/07/2020, 21:52:45,-9.353543,-1.7419748,0.67477596,0.9866578,-1.350549,-1.5251678,9.538268754,2.263539939,crawl
09/07/2020, 21:52:45,-9.353543,-1.7419748,0.67477596,0.67283225,-1.3847401,-1.5569167,9.538268754,2.189565727,crawl
09/07/2020, 21:52:45,-9.111869,-1.7395821,0.58624154,0.67283225,-1.3847401,-1.5569167,9.294943732,2.189565727,crawl
09/07/2020, 21:52:45,-9.111869,-1.7395821,0.58624154,0.39686114,-1.3981723,-1.5776756,9.294943732,2.145097822,crawl
09/07/2020, 21:52:45,-8.913264,-1.8592232,0.66999036,0.39686114,-1.3981723,-1.5776756,9.129724979,2.145097822,crawl
09/07/2020, 21:52:45,-8.913264,-1.8592232,0.66999036,0.15874445,-1.3810767,-1.5935501,9.129724979,2.114704356,crawl
09/07/2020, 21:52:45,-8.666803,-2.0051854,0.80159557,0.15874445,-1.3810767,-1.5935501,8.931786176,2.114704356,crawl
09/07/2020, 21:52:45,-8.666803,-2.0051854,0.80159557,-0.046402223,-1.3456645,-1.5911078,8.931786176,2.08436808,crawl
09/07/2020, 21:52:45,-8.49452,-2.2157538,0.90448695,-0.046402223,-1.3456645,-1.5911078,8.825221512,2.08436808,crawl
09/07/2020, 21:52:45,-8.49452,-2.2157538,0.90448695,-0.20636779,-1.2980411,-1.5727912,8.825221512,2.049675729,crawl
09/07/2020, 21:52:45,-8.305488,-2.4335005,1.012164,-0.20636779,-1.2980411,-1.5727912,8.713640203,2.049675729,crawl
09/07/2020, 21:52:45,-8.305488,-2.4335005,1.012164,-0.3309211,-1.2430911,-1.5422634,8.713640203,2.008322843,crawl
09/07/2020, 21:52:45,-8.2049885,-2.6632116,1.0743774,-0.3309211,-1.2430911,-1.5422634,8.693032769,2.008322843,crawl
09/07/2020, 21:52:45,-8.2049885,-2.6632116,1.0743774,-0.40540892,-1.1942468,-1.5080723,8.693032769,1.965925652,crawl
09/07/2020, 21:52:45,-8.109276,-2.8977082,1.1126626,-0.40540892,-1.1942468,-1.5080723,8.683034316,1.965925652,crawl
09/07/2020, 21:52:45,-8.109276,-2.8977082,1.1126626,-0.44570556,-1.1454023,-1.4775445,8.683034316,1.921909933,crawl
09/07/2020, 21:52:45,-8.070991,-3.1202407,1.1509477,-0.44570556,-1.1454023,-1.4775445,8.729345405,1.921909933,crawl
09/07/2020, 21:52:45,-8.070991,-3.1202407,1.1509477,-0.46158,-1.1014422,-1.4421322,8.729345405,1.872425284,crawl
09/07/2020, 21:52:46,-11.504691,-3.4767714,3.574877,0.27963445,-1.6900178,-1.2394278,12.53896338,2.114364429,crawl
09/07/2020, 21:52:46,-11.002198,-3.4408789,3.3834512,0.27963445,-1.6900178,-1.2394278,12.01398166,2.114364429,crawl
09/07/2020, 21:52:46,-11.002198,-3.4408789,3.3834512,0.20636779,-1.6753645,-1.3774134,12.01398166,2.178692614,crawl
09/07/2020, 21:52:46,-10.633704,-3.4097722,3.158526,0.20636779,-1.6753645,-1.3774134,11.60510651,2.178692614,crawl
09/07/2020, 21:52:46,-10.633704,-3.4097722,3.158526,0.1746189,-1.6411734,-1.5251678,11.60510651,2.247238006,crawl
09/07/2020, 21:52:46,-10.423136,-3.3834512,2.8594232,0.1746189,-1.6411734,-1.5251678,11.32544931,2.247238006,crawl
09/07/2020, 21:52:46,-10.423136,-3.3834512,2.8594232,0.17828223,-1.6106457,-1.6729223,11.32544931,2.32908412,crawl
09/07/2020, 21:52:46,-10.3681,-3.347559,2.6368906,0.17828223,-1.6106457,-1.6729223,11.20967638,2.32908412,crawl
09/07/2020, 21:52:46,-10.3681,-3.347559,2.6368906,0.22590557,-1.5886656,-1.812129,11.20967638,2.420475845,crawl
09/07/2020, 21:52:46,-10.396814,-3.3834512,2.4454648,0.22590557,-1.5886656,-1.812129,11.2036507,2.420475845,crawl
09/07/2020, 21:52:46,-10.396814,-3.3834512,2.4454648,0.29917222,-1.5691278,-1.9317979,11.2036507,2.50669285,crawl
09/07/2020, 21:52:46,-10.454242,-3.4360933,2.309074,0.29917222,-1.5691278,-1.9317979,11.24409758,2.50669285,crawl
09/07/2020, 21:52:46,-10.454242,-3.4360933,2.309074,0.39930335,-1.5398211,-2.0258234,11.24409758,2.575743115,crawl
09/07/2020, 21:52:46,-10.516456,-3.5653057,2.3138595,0.39930335,-1.5398211,-2.0258234,11.3428916,2.575743115,crawl
09/07/2020, 21:52:46,-10.516456,-3.5653057,2.3138595,0.5226356,-1.5092934,-2.1125224,11.3428916,2.648370322,crawl
09/07/2020, 21:52:46,-10.530812,-3.6849468,2.3162522,0.5226356,-1.5092934,-2.1125224,11.39481742,2.648370322,crawl
09/07/2020, 21:52:46,-10.530812,-3.6849468,2.3162522,0.6655056,-1.4689968,-2.1931157,11.39481742,2.72224277,crawl
09/07/2020, 21:52:46,-10.566705,-3.8380876,2.457429,0.6655056,-1.4689968,-2.1931157,11.5076115,2.72224277,crawl
09/07/2020, 21:52:46,-10.566705,-3.8380876,2.457429,0.8327978,-1.4079412,-2.2566135,11.5076115,2.787141037,crawl
09/07/2020, 21:52:46,-10.631311,-4.024728,2.5004997,0.8327978,-1.4079412,-2.2566135,11.63940357,2.787141037,crawl
09/07/2020, 21:52:47,-10.904093,-5.4843497,4.5248275,-0.7216767,1.3029256,1.7498523,13.01734978,2.297915452,crawl
09/07/2020, 21:52:47,-10.743773,-5.1756754,4.855037,-0.7216767,1.3029256,1.7498523,12.8758561,2.297915452,crawl
09/07/2020, 21:52:47,-10.743773,-5.1756754,4.855037,-0.50676113,1.2931567,1.6717012,12.8758561,2.17339506,crawl
09/07/2020, 21:52:47,-10.561919,-4.8047876,5.1876397,-0.50676113,1.2931567,1.6717012,12.71030005,2.17339506,crawl
09/07/2020, 21:52:47,-10.561919,-4.8047876,5.1876397,-0.3809867,1.2919356,1.5837811,12.71030005,2.079088984,crawl
09/07/2020, 21:52:47,-10.387243,-4.412365,5.4699926,-0.3809867,1.2919356,1.5837811,12.54131599,2.079088984,crawl
09/07/2020, 21:52:47,-10.387243,-4.412365,5.4699926,-0.35900667,1.2772822,1.4885345,12.54131599,1.994008655,crawl
09/07/2020, 21:52:47,-10.202995,-4.017549,5.5872407,-0.35900667,1.2772822,1.4885345,12.30687092,1.994008655,crawl
09/07/2020, 21:52:47,-10.202995,-4.017549,5.5872407,-0.42861003,1.2259957,1.3871822,12.30687092,1.900275366,crawl
09/07/2020, 21:52:47,-9.997213,-3.6753755,5.6279187,-0.42861003,1.2259957,1.3871822,12.04683066,1.900275366,crawl
09/07/2020, 21:52:47,-9.997213,-3.6753755,5.6279187,-0.56293225,1.1380756,1.2882723,12.04683066,1.808799102,crawl
09/07/2020, 21:52:47,-9.738789,-3.4121652,5.639883,-0.56293225,1.1380756,1.2882723,11.75989606,1.808799102,crawl
09/07/2020, 21:52:47,-9.738789,-3.4121652,5.639883,-0.71801335,1.0245123,1.1954678,11.75989606,1.730408025,crawl
09/07/2020, 21:52:47,-9.377472,-3.3260236,5.6853466,-0.71801335,1.0245123,1.1954678,11.45960639,1.730408025,crawl
09/07/2020, 21:52:47,-9.377472,-3.3260236,5.6853466,-0.83524,0.93537116,1.1087689,11.45960639,1.673891764,crawl
09/07/2020, 21:52:47,-9.018549,-3.3236306,5.7260246,-0.83524,0.93537116,1.1087689,11.18785519,1.673891764,crawl
09/07/2020, 21:52:47,-9.018549,-3.3236306,5.7260246,-0.8975167,0.8730945,1.02207,11.18785519,1.61630983,crawl
09/07/2020, 21:52:47,-8.673982,-3.37388,5.7930236,-0.8975167,0.8730945,1.02207,10.96267056,1.61630983,crawl
09/07/2020, 21:52:47,-8.673982,-3.37388,5.7930236,-0.8877478,0.8425667,0.9182756,10.96267056,1.530112728,crawl
09/07/2020, 21:52:47,-8.396415,-3.4839497,5.905486,-0.8877478,0.8425667,0.9182756,10.84031605,1.530112728,crawl
09/07/2020, 21:52:48,-9.590433,-3.0053852,2.2492533,-1.28583,1.7999178,2.4153578,10.29892653,3.275212425,crawl
09/07/2020, 21:52:48,-10.51167,-3.1226335,2.2947168,-1.28583,1.7999178,2.4153578,11.20320372,3.275212425,crawl
09/07/2020, 21:52:48,-10.51167,-3.1226335,2.2947168,-1.4543434,1.9977379,2.7120879,11.20320372,3.668990611,crawl
09/07/2020, 21:52:48,-11.6339035,-3.2877383,2.306681,-1.4543434,1.9977379,2.7120879,12.30762816,3.668990611,crawl
09/07/2020, 21:52:48,-11.6339035,-3.2877383,2.306681,-1.6179723,2.1332812,2.988059,12.30762816,4.01213408,crawl
09/07/2020, 21:52:48,-12.918849,-3.4504502,2.201397,-1.6179723,2.1332812,2.988059,13.55169415,4.01213408,crawl
09/07/2020, 21:52:48,-12.918849,-3.4504502,2.201397,-1.7547368,2.0929844,3.19809,13.55169415,4.205646819,crawl
09/07/2020, 21:52:48,-14.086547,-3.6586258,2.009971,-1.7547368,2.0929844,3.19809,14.69204988,4.205646819,crawl
09/07/2020, 21:52:48,-14.086547,-3.6586258,2.009971,-1.867079,1.834109,3.3189802,14.69204988,4.226768196,crawl
09/07/2020, 21:52:48,-14.770894,-3.8811584,1.8400806,-1.867079,1.834109,3.3189802,15.38273701,4.226768196,crawl
09/07/2020, 21:52:48,-14.770894,-3.8811584,1.8400806,-1.9171445,1.4311423,3.3617191,15.38273701,4.12610798,crawl
09/07/2020, 21:52:48,-14.636896,-4.1204405,1.9166509,-1.9171445,1.4311423,3.3617191,15.32613157,4.12610798,crawl
09/07/2020, 21:52:48,-14.636896,-4.1204405,1.9166509,-1.91226,1.0709145,3.3873622,15.32613157,4.034577965,crawl
09/07/2020, 21:52:48,-13.703695,-4.304688,2.2875385,-1.91226,1.0709145,3.3873622,14.544911,4.034577965,crawl
09/07/2020, 21:52:48,-13.703695,-4.304688,2.2875385,-1.9024912,0.8914111,3.4264379,14.544911,4.019273937,crawl
09/07/2020, 21:52:48,-12.399607,-4.4075794,2.8689942,-1.9024912,0.8914111,3.4264379,13.46878356,4.019273937,crawl
09/07/2020, 21:52:48,-12.399607,-4.4075794,2.8689942,-1.8939434,0.9170545,3.4520812,13.46878356,4.042879575,crawl
09/07/2020, 21:52:48,-11.023734,-4.3836513,3.3762727,-1.8939434,0.9170545,3.4520812,12.33443671,4.042879575,crawl
09/07/2020, 21:52:48,-11.023734,-4.3836513,3.3762727,-1.8597523,1.0574822,3.4239957,12.33443671,4.037411805,crawl
09/07/2020, 21:52:48,-9.925428,-4.304688,3.735196,-1.8597523,1.0574822,3.4239957,11.44535527,4.037411805,crawl
09/07/2020, 21:52:49,-5.8887367,-2.8546374,3.0556345,0.7485411,0.4921078,-0.051286668,7.222401055,0.897281573,crawl
09/07/2020, 21:52:49,-6.1830535,-2.7756743,3.0699914,0.7485411,0.4921078,-0.051286668,7.440387453,0.897281573,crawl
09/07/2020, 21:52:49,-6.1830535,-2.7756743,3.0699914,0.7631945,0.58491224,0.07204556,7.440387453,0.96425035,crawl
09/07/2020, 21:52:49,-6.570691,-2.7493532,2.9862428,0.7631945,0.58491224,0.07204556,7.723378172,0.96425035,crawl
09/07/2020, 21:52:49,-6.570691,-2.7493532,2.9862428,0.76441556,0.6191034,0.18927222,7.723378172,1.001720576,crawl
09/07/2020, 21:52:49,-6.9559355,-2.7613173,2.9479575,0.76441556,0.6191034,0.18927222,8.043653701,1.001720576,crawl
09/07/2020, 21:52:49,-6.9559355,-2.7613173,2.9479575,0.77052116,0.6252089,0.29795113,8.043653701,1.036032783,crawl
09/07/2020, 21:52:49,-7.2789664,-2.7062824,2.9766715,0.77052116,0.6252089,0.29795113,8.316723484,1.036032783,crawl
09/07/2020, 21:52:49,-7.2789664,-2.7062824,2.9766715,0.7754056,0.61299783,0.40663,8.316723484,1.068816227,crawl
09/07/2020, 21:52:49,-7.52782,-2.6129622,3.0436704,0.7754056,0.61299783,0.40663,8.529922445,1.068816227,crawl
09/07/2020, 21:52:49,-7.52782,-2.6129622,3.0436704,0.76441556,0.61299783,0.5092034,8.529922445,1.104257926,crawl
09/07/2020, 21:52:49,-7.6953177,-2.5172493,3.1322048,0.76441556,0.61299783,0.5092034,8.681311318,1.104257926,crawl
09/07/2020, 21:52:49,-7.6953177,-2.5172493,3.1322048,0.7265611,0.6288723,0.6068922,8.681311318,1.136525226,crawl
09/07/2020, 21:52:49,-7.769495,-2.3377876,3.2805598,0.7265611,0.6288723,0.6068922,8.751707043,1.136525226,crawl
09/07/2020, 21:52:49,-7.769495,-2.3377876,3.2805598,0.65329444,0.6618422,0.7021389,8.751707043,1.165258684,crawl
09/07/2020, 21:52:49,-7.836494,-2.1463618,3.345166,0.65329444,0.6618422,0.7021389,8.786787933,1.165258684,crawl
09/07/2020, 21:52:49,-7.836494,-2.1463618,3.345166,0.5519422,0.7167922,0.7998278,8.786787933,1.207541242,crawl
09/07/2020, 21:52:49,-7.9106717,-2.0171494,3.4097722,0.5519422,0.7167922,0.7998278,8.847268787,1.207541242,crawl
09/07/2020, 21:52:49,-7.9106717,-2.0171494,3.4097722,0.43471557,0.77906895,0.8975167,8.847268787,1.265488967,crawl
09/07/2020, 21:52:49,-8.078169,-1.9190438,3.493521,0.43471557,0.77906895,0.8975167,9.00800922,1.265488967,crawl
09/07/2020, 21:52:50,-10.243673,-3.1896327,4.438686,0.9536878,-0.81448114,-0.7106867,11.61070765,1.441518465,crawl
09/07/2020, 21:52:50,-10.243673,-3.1896327,4.438686,0.87920004,-0.8730945,-0.7631945,11.61070765,1.455250001,crawl
09/07/2020, 21:52:50,-10.269995,-3.0580273,4.28076,0.87920004,-0.8730945,-0.7631945,11.5390306,1.455250001,crawl
09/07/2020, 21:52:50,-10.269995,-3.0580273,4.28076,0.7754056,-0.8743156,-0.8083756,11.5390306,1.420968941,crawl
09/07/2020, 21:52:50,-10.4351,-2.9886355,4.1180477,0.7754056,-0.8743156,-0.8083756,11.6095462,1.420968941,crawl
09/07/2020, 21:52:50,-10.4351,-2.9886355,4.1180477,0.7070234,-0.85722005,-0.8450089,11.6095462,1.395975767,crawl
09/07/2020, 21:52:50,-10.801202,-3.1082766,3.9960139,0.7070234,-0.85722005,-0.8450089,11.92876654,1.395975767,crawl
09/07/2020, 21:52:50,-10.801202,-3.1082766,3.9960139,0.71557117,-0.8621045,-0.8816423,11.92876654,1.425678552,crawl
09/07/2020, 21:52:50,-11.356337,-3.400201,3.9720855,0.71557117,-0.8621045,-0.8816423,12.50220826,1.425678552,crawl
09/07/2020, 21:52:50,-11.356337,-3.400201,3.9720855,0.7937223,-0.9329289,-0.92071784,12.50220826,1.532342242,crawl
09/07/2020, 21:52:50,-11.877972,-3.7304106,3.9338005,0.7937223,-0.9329289,-0.92071784,13.05668257,1.532342242,crawl
09/07/2020, 21:52:50,-11.877972,-3.7304106,3.9338005,0.9194967,-1.1002212,-0.95735115,13.05668257,1.724088752,crawl
09/07/2020, 21:52:50,-12.196217,-3.9649072,3.9050865,0.9194967,-1.1002212,-0.95735115,13.40589007,1.724088752,crawl
09/07/2020, 21:52:50,-12.196217,-3.9649072,3.9050865,1.0391656,-1.2992623,-0.9878789,13.40589007,1.934903724,crawl
09/07/2020, 21:52:50,-12.119647,-4.125226,3.9290147,1.0391656,-1.2992623,-0.9878789,13.39180683,1.934903724,crawl
09/07/2020, 21:52:50,-12.119647,-4.125226,3.9290147,1.1234223,-1.4457957,-1.0086378,13.39180683,2.09039538,crawl
09/07/2020, 21:52:50,-11.772687,-4.141976,3.9242291,1.1234223,-1.4457957,-1.0086378,13.08249582,2.09039538,crawl
09/07/2020, 21:52:50,-11.772687,-4.141976,3.9242291,1.1429601,-1.50563,-1.0318389,13.08249582,2.153594896,crawl
09/07/2020, 21:52:50,-11.351551,-4.0677986,3.8237305,1.1429601,-1.50563,-1.0318389,12.65012299,2.153594896,crawl
09/07/2020, 21:52:50,-11.351551,-4.0677986,3.8237305,1.1063267,-1.4921979,-1.0599245,12.65012299,2.138703617,crawl
09/07/2020, 21:52:51,-9.485149,-4.6468616,5.2546387,0.6191034,0.28085557,0.4041878,11.79714409,0.790908725,crawl
09/07/2020, 21:52:51,-9.669396,-4.735396,5.288138,0.6191034,0.28085557,0.4041878,11.99523254,0.790908725,crawl
09/07/2020, 21:52:51,-9.669396,-4.735396,5.288138,0.7436567,0.28574002,0.3284789,11.99523254,0.86172561,crawl
09/07/2020, 21:52:51,-10.013963,-4.8239303,5.2809596,0.7436567,0.28574002,0.3284789,12.30602647,0.86172561,crawl
09/07/2020, 21:52:51,-10.013963,-4.8239303,5.2809596,0.8755367,0.23323223,0.2283478,12.30602647,0.934400592,crawl
09/07/2020, 21:52:51,-10.540383,-4.85743,5.087141,0.8755367,0.23323223,0.2283478,12.67175248,0.934400592,crawl
09/07/2020, 21:52:51,-10.540383,-4.85743,5.087141,0.9964267,0.12455334,0.12699556,12.67175248,1.012179618,crawl
09/07/2020, 21:52:51,-11.07159,-4.8622155,4.85743,0.9964267,0.12455334,0.12699556,13.03134223,1.012179618,crawl
09/07/2020, 21:52:51,-11.07159,-4.8622155,4.85743,1.0953367,-0.012211111,0.02075889,13.03134223,1.095601422,crawl
09/07/2020, 21:52:51,-11.612369,-4.776074,4.618148,1.0953367,-0.012211111,0.02075889,13.37853788,1.095601422,crawl
09/07/2020, 21:52:51,-11.612369,-4.776074,4.618148,1.1588345,-0.16729222,-0.078151114,13.37853788,1.173452847,crawl
09/07/2020, 21:52:51,-12.102897,-4.685147,4.3501515,1.1588345,-0.16729222,-0.078151114,13.687751,1.173452847,crawl
09/07/2020, 21:52:51,-12.102897,-4.685147,4.3501515,1.1991311,-0.32725778,-0.17584,13.687751,1.255361634,crawl
09/07/2020, 21:52:51,-12.638889,-4.618148,4.0941195,1.1991311,-0.32725778,-0.17584,14.0652276,1.255361634,crawl
09/07/2020, 21:52:51,-12.638889,-4.618148,4.0941195,1.2345434,-0.52141446,-0.27719223,14.0652276,1.368505055,crawl
09/07/2020, 21:52:51,-13.076776,-4.6037908,3.912265,1.2345434,-0.52141446,-0.27719223,14.4049563,1.368505055,crawl
09/07/2020, 21:52:51,-13.076776,-4.6037908,3.912265,1.28583,-0.77052116,-0.3931978,14.4049563,1.549731015,crawl
09/07/2020, 21:52:51,-13.371093,-4.615755,3.792624,1.28583,-0.77052116,-0.3931978,14.64497574,1.549731015,crawl
09/07/2020, 21:52:51,-13.371093,-4.615755,3.792624,1.3236845,-1.0428289,-0.51775116,14.64497574,1.762866684,crawl
09/07/2020, 21:52:51,-13.344772,-4.551149,3.6227336,1.3236845,-1.0428289,-0.51775116,14.55747587,1.762866684,crawl
09/07/2020, 21:52:52,-8.702696,-4.5918264,4.388437,-1.6790278,0.48966557,0.8999589,10.77405042,1.96693486,crawl
09/07/2020, 21:52:52,-8.702696,-4.5918264,4.388437,-1.4177101,0.5458367,0.8547778,10.77405042,1.743124961,crawl
09/07/2020, 21:52:52,-8.750552,-4.5966125,4.493721,-1.4177101,0.5458367,0.8547778,10.85792512,1.743124961,crawl
09/07/2020, 21:52:52,-8.750552,-4.5966125,4.493721,-1.1270856,0.5788067,0.8034911,10.85792512,1.500312315,crawl
09/07/2020, 21:52:52,-8.810373,-4.5248275,4.5535417,-1.1270856,0.5788067,0.8034911,10.90098542,1.500312315,crawl
09/07/2020, 21:52:52,-8.810373,-4.5248275,4.5535417,-0.8730945,0.58491224,0.7485411,10.90098542,1.290244216,crawl
09/07/2020, 21:52:52,-8.810373,-4.4339004,4.5559344,-0.8730945,0.58491224,0.7485411,10.86456114,1.290244216,crawl
09/07/2020, 21:52:52,-8.810373,-4.4339004,4.5559344,-0.6935911,0.5653745,0.7119078,10.86456114,1.14347264,crawl
09/07/2020, 21:52:52,-8.755338,-4.316652,4.54397,-0.6935911,0.5653745,0.7119078,10.7674085,1.14347264,crawl
09/07/2020, 21:52:52,-8.755338,-4.316652,4.54397,-0.5788067,0.5140878,0.69237006,10.7674085,1.038595086,crawl
09/07/2020, 21:52:52,-8.633304,-4.1611185,4.429115,-0.5788067,0.5140878,0.69237006,10.5577411,1.038595086,crawl
09/07/2020, 21:52:52,-8.633304,-4.1611185,4.429115,-0.5104245,0.45181113,0.6789378,10.5577411,0.962093027,crawl
09/07/2020, 21:52:52,-8.453842,-4.0558343,4.302295,-0.5104245,0.45181113,0.6789378,10.31634544,0.962093027,crawl
09/07/2020, 21:52:52,-8.453842,-4.0558343,4.302295,-0.47867557,0.40174556,0.67039,10.31634544,0.91648926,crawl
09/07/2020, 21:52:52,-8.2049885,-3.9146578,4.15394,-0.47867557,0.40174556,0.67039,9.995078843,0.91648926,crawl
09/07/2020, 21:52:52,-8.2049885,-3.9146578,4.15394,-0.47623336,0.36267,0.66062117,9.995078843,0.89148644,crawl
09/07/2020, 21:52:52,-8.015956,-3.8093736,4.0127635,-0.47623336,0.36267,0.66062117,9.740079448,0.89148644,crawl
09/07/2020, 21:52:52,-8.015956,-3.8093736,4.0127635,-0.49821335,0.33214223,0.6423045,9.740079448,0.878117334,crawl
09/07/2020, 21:52:52,-7.84128,-3.6993039,3.897908,-0.49821335,0.33214223,0.6423045,9.506009017,0.878117334,crawl
09/07/2020, 21:52:52,-7.84128,-3.6993039,3.897908,-0.5238567,0.29306668,0.63131446,9.506009017,0.871132518,crawl
09/07/2020, 21:52:53,-6.4151573,-2.6703901,1.7587247,-0.4689067,-0.84623003,-0.9317078,7.167868539,1.34315233,crawl
09/07/2020, 21:52:53,-6.4151573,-2.6703901,1.7587247,-0.4921078,-0.76441556,-0.8083756,7.167868539,1.216541143,crawl
09/07/2020, 21:52:53,-6.245267,-2.7565317,1.7826529,-0.4921078,-0.76441556,-0.8083756,7.055471432,1.216541143,crawl
09/07/2020, 21:52:53,-6.245267,-2.7565317,1.7826529,-0.4933289,-0.6789378,-0.67283225,7.055471432,1.075654762,crawl
09/07/2020, 21:52:53,-6.111269,-2.8594232,1.8137596,-0.4933289,-0.6789378,-0.67283225,6.986675413,1.075654762,crawl
09/07/2020, 21:52:53,-6.111269,-2.8594232,1.8137596,-0.4798967,-0.5836911,-0.5336256,6.986675413,0.925068887,crawl
09/07/2020, 21:52:53,-5.9557357,-2.9503503,1.8233309,-0.4798967,-0.5836911,-0.5336256,6.892016383,0.925068887,crawl
09/07/2020, 21:52:53,-5.9557357,-2.9503503,1.8233309,-0.44692668,-0.48722336,-0.3931978,6.892016383,0.769242857,crawl
09/07/2020, 21:52:53,-5.8504515,-3.0293136,1.8113668,-0.44692668,-0.48722336,-0.3931978,6.832684153,0.769242857,crawl
09/07/2020, 21:52:53,-5.8504515,-3.0293136,1.8113668,-0.39686114,-0.38953447,-0.25643334,6.832684153,0.612367475,crawl
09/07/2020, 21:52:53,-5.759524,-3.0939198,1.8640088,-0.39686114,-0.38953447,-0.25643334,6.798454485,0.612367475,crawl
09/07/2020, 21:52:53,-5.759524,-3.0939198,1.8640088,-0.32970002,-0.29062447,-0.12699556,6.798454485,0.457485039,crawl
09/07/2020, 21:52:53,-5.6614184,-3.1441689,1.9046868,-0.32970002,-0.29062447,-0.12699556,6.750206541,0.457485039,crawl
09/07/2020, 21:52:53,-5.6614184,-3.1441689,1.9046868,-0.25643334,-0.17828223,0.003663334,6.750206541,0.312339608,crawl
09/07/2020, 21:52:53,-5.5944195,-3.1322048,1.9334008,-0.25643334,-0.17828223,0.003663334,6.696736108,0.312339608,crawl
09/07/2020, 21:52:53,-5.5944195,-3.1322048,1.9334008,-0.18316667,-0.047623336,0.14164889,6.696736108,0.236394623,crawl
09/07/2020, 21:52:53,-5.5800624,-3.0987053,1.995614,-0.18316667,-0.047623336,0.14164889,6.687417005,0.236394623,crawl
09/07/2020, 21:52:53,-5.5800624,-3.0987053,1.995614,-0.109900005,0.089141116,0.28329778,6.687417005,0.316672986,crawl
09/07/2020, 21:52:53,-5.6614184,-3.103491,2.0267208,-0.109900005,0.089141116,0.28329778,6.766898299,0.316672986,crawl
09/07/2020, 21:52:53,-5.6614184,-3.103491,2.0267208,-0.047623336,0.22346334,0.4273889,6.766898299,0.484628852,crawl
09/07/2020, 21:52:54,-9.176475,-3.1226335,2.617748,1.1979101,-1.1527289,-0.93415004,10.04047459,1.906937017,crawl
09/07/2020, 21:52:54,-8.953942,-3.0197423,2.3784657,1.1979101,-1.1527289,-0.93415004,9.744179022,1.906937017,crawl
09/07/2020, 21:52:54,-8.874979,-2.9838498,2.1798615,1.1979101,-1.1527289,-0.93415004,9.613553368,1.906937017,crawl
09/07/2020, 21:52:54,-8.851051,-2.9647074,2.065006,1.1979101,-1.1527289,-0.93415004,9.560065341,1.906937017,crawl
09/07/2020, 21:52:54,-8.851051,-2.9647074,2.065006,1.0086378,-1.0696933,-1.3932878,9.560065341,2.025548032,crawl
09/07/2020, 21:52:54,-8.841479,-2.9958138,1.9932213,1.0086378,-1.0696933,-1.3932878,9.545658067,2.025548032,crawl
09/07/2020, 21:52:54,-8.817552,-3.050849,1.9908284,1.0086378,-1.0696933,-1.3932878,9.540455625,2.025548032,crawl
09/07/2020, 21:52:54,-8.855837,-3.1561332,2.0889342,1.0086378,-1.0696933,-1.3932878,9.630714889,2.025548032,crawl
09/07/2020, 21:52:54,-8.855837,-3.1561332,2.0889342,1.2528601,-0.91094893,-1.56058,9.630714889,2.198839761,crawl
09/07/2020, 21:52:54,-8.939586,-3.347559,2.239682,1.2528601,-0.91094893,-1.56058,9.805025171,2.198839761,crawl
09/07/2020, 21:52:54,-8.939586,-3.347559,2.239682,1.3884034,-0.8535567,-1.6008767,9.805025171,2.284519478,crawl
09/07/2020, 21:52:54,-9.097511,-3.5676985,2.4095724,1.3884034,-0.8535567,-1.6008767,10.06475152,2.284519478,crawl
09/07/2020, 21:52:54,-9.097511,-3.5676985,2.4095724,1.5630223,-0.7949434,-1.6191934,10.06475152,2.386788836,crawl
09/07/2020, 21:52:54,-9.286545,-3.8500516,2.565106,1.5630223,-0.7949434,-1.6191934,10.37509423,2.386788836,crawl
09/07/2020, 21:52:54,-9.286545,-3.8500516,2.565106,1.7608423,-0.7326667,-1.6204145,10.37509423,2.502620482,crawl
09/07/2020, 21:52:54,-9.518648,-4.113262,2.6632116,1.7608423,-0.7326667,-1.6204145,10.70589951,2.502620482,crawl
09/07/2020, 21:52:54,-9.518648,-4.113262,2.6632116,1.9867479,-0.66428447,-1.5972134,10.70589951,2.634299057,crawl
09/07/2020, 21:52:54,-9.889536,-4.398008,2.7852457,1.9867479,-0.66428447,-1.5972134,11.17600049,2.634299057,crawl
09/07/2020, 21:52:54,-9.889536,-4.398008,2.7852457,2.218759,-0.6007867,-1.5495901,11.17600049,2.772195145,crawl
09/07/2020, 21:52:54,-10.277173,-4.6229334,2.8354948,2.218759,-0.6007867,-1.5495901,11.62031968,2.772195145,crawl
09/07/2020, 21:52:55,-7.972885,-3.7471602,4.091727,0.13310112,0.7570889,1.0428289,9.713410055,1.295527561,crawl
09/07/2020, 21:52:55,-8.149954,-3.5676985,3.9481573,0.13310112,0.7570889,1.0428289,9.733353287,1.295527561,crawl
09/07/2020, 21:52:55,-8.149954,-3.5676985,3.9481573,0.12455334,0.7082445,1.0391656,9.733353287,1.263720296,crawl
09/07/2020, 21:52:55,-8.348558,-3.3762727,3.7615173,0.12455334,0.7082445,1.0391656,9.759439394,1.263720296,crawl
09/07/2020, 21:52:55,-8.348558,-3.3762727,3.7615173,0.06105556,0.63742,1.0403867,9.759439394,1.221653172,crawl
09/07/2020, 21:52:55,-8.539984,-3.1226335,3.5988052,0.06105556,0.63742,1.0403867,9.779241327,1.221653172,crawl
09/07/2020, 21:52:55,-8.539984,-3.1226335,3.5988052,-0.04396,0.5568267,1.0330601,9.779241327,1.174394135,crawl
09/07/2020, 21:52:55,-8.71466,-2.9455647,3.4480574,-0.04396,0.5568267,1.0330601,9.82398825,1.174394135,crawl
09/07/2020, 21:52:55,-8.71466,-2.9455647,3.4480574,-0.18316667,0.47623336,1.02207,9.82398825,1.142355213,crawl
09/07/2020, 21:52:55,-8.834301,-2.7900312,3.3260236,-0.18316667,0.47623336,1.02207,9.843352121,1.142355213,crawl
09/07/2020, 21:52:55,-8.834301,-2.7900312,3.3260236,-0.3309211,0.40296668,1.0049745,9.843352121,1.132194613,crawl
09/07/2020, 21:52:55,-8.941978,-2.7110682,3.211168,-0.3309211,0.40296668,1.0049745,9.880307154,1.132194613,crawl
09/07/2020, 21:52:55,-8.941978,-2.7110682,3.211168,-0.46280113,0.33580557,0.98055226,9.880307154,1.135091621,crawl
09/07/2020, 21:52:55,-9.008977,-2.7038896,3.1752756,-0.46280113,0.33580557,0.98055226,9.927490084,1.135091621,crawl
09/07/2020, 21:52:55,-9.008977,-2.7038896,3.1752756,-0.5702589,0.27230778,0.94880337,9.927490084,1.139988853,crawl
09/07/2020, 21:52:55,-9.047262,-2.778067,3.2015967,-0.5702589,0.27230778,0.94880337,9.991037569,1.139988853,crawl
09/07/2020, 21:52:55,-9.047262,-2.778067,3.2015967,-0.6337567,0.2185789,0.9097278,9.991037569,1.13005707,crawl
09/07/2020, 21:52:55,-8.987442,-2.9647074,3.2685957,-0.6337567,0.2185789,0.9097278,10.01235845,1.13005707,crawl
09/07/2020, 21:52:55,-8.987442,-2.9647074,3.2685957,-0.6520734,0.18438779,0.8621045,10.01235845,1.096550355,crawl
09/07/2020, 21:52:55,-8.915657,-3.1848469,3.3643086,-0.6520734,0.18438779,0.8621045,10.04742566,1.096550355,crawl
09/07/2020, 21:52:56,-11.655439,-3.4911282,2.5986054,-0.52752,0.8315767,1.6655957,12.44146266,1.93494342,crawl
09/07/2020, 21:52:56,-11.655439,-3.4911282,2.5986054,-0.5238567,0.76930004,1.7413045,12.44146266,1.97443405,crawl
09/07/2020, 21:52:56,-11.188839,-3.5605202,2.845066,-0.5238567,0.76930004,1.7413045,12.08146606,1.97443405,crawl
09/07/2020, 21:52:56,-11.188839,-3.5605202,2.845066,-0.5104245,0.6899278,1.7754956,12.08146606,1.972034065,crawl
09/07/2020, 21:52:56,-10.444671,-3.5581272,3.1226335,-0.5104245,0.6899278,1.7754956,11.46744323,1.972034065,crawl
09/07/2020, 21:52:56,-10.444671,-3.5581272,3.1226335,-0.5140878,0.6581789,1.7938123,11.46744323,1.978698622,crawl
09/07/2020, 21:52:56,-9.568898,-3.4313076,3.4408789,-0.5140878,0.6581789,1.7938123,10.73207024,1.978698622,crawl
09/07/2020, 21:52:56,-9.568898,-3.4313076,3.4408789,-0.53484666,0.69114894,1.7999178,10.73207024,2.000862803,crawl
09/07/2020, 21:52:56,-8.7266245,-3.318845,3.7280176,-0.53484666,0.69114894,1.7999178,10.05319961,2.000862803,crawl
09/07/2020, 21:52:56,-8.003992,-3.1680973,3.9050865,-0.53484666,0.69114894,1.7999178,9.452535648,2.000862803,crawl
09/07/2020, 21:52:56,-8.003992,-3.1680973,3.9050865,-0.5592689,0.9610145,1.7925912,9.452535648,2.109434484,crawl
09/07/2020, 21:52:56,-7.5493555,-3.0580273,3.95055,-0.5592689,0.9610145,1.7925912,9.052687185,2.109434484,crawl
09/07/2020, 21:52:56,-7.5493555,-3.0580273,3.95055,-0.5287411,1.0977789,1.7559578,9.052687185,2.137305234,crawl
09/07/2020, 21:52:56,-7.396215,-3.0412776,3.95055,-0.5287411,1.0977789,1.7559578,8.9196531,2.137305234,crawl
09/07/2020, 21:52:56,-7.396215,-3.0412776,3.95055,-0.46768558,1.1844778,1.6887968,8.9196531,2.115124575,crawl
09/07/2020, 21:52:56,-7.499106,-3.0532417,3.912265,-0.46768558,1.1844778,1.6887968,8.992479788,2.115124575,crawl
09/07/2020, 21:52:56,-7.499106,-3.0532417,3.912265,-0.37488112,1.2223322,1.6094245,8.992479788,2.055451066,crawl
09/07/2020, 21:52:56,-7.769495,-3.1130621,3.897908,-0.37488112,1.2223322,1.6094245,9.23308698,2.055451066,crawl
09/07/2020, 21:52:56,-8.123632,-3.1848469,3.9074793,-0.37488112,1.2223322,1.6094245,9.56059872,2.055451066,crawl
09/07/2020, 21:52:56,-8.123632,-3.1848469,3.9074793,-0.11112112,1.2186689,1.4738811,9.56059872,1.915679372,crawl
09/07/2020, 21:52:57,-8.391629,-1.6773686,2.3353949,-0.6288723,-0.40052447,-0.102573335,8.870573581,0.752609777,crawl
09/07/2020, 21:52:57,-8.082955,-1.4548361,2.2779672,-0.6288723,-0.40052447,-0.102573335,8.52290151,0.752609777,crawl
09/07/2020, 21:52:57,-8.082955,-1.4548361,2.2779672,-0.7167922,-0.34679556,0.009768889,8.52290151,0.796337671,crawl
09/07/2020, 21:52:57,-7.8029947,-1.2418749,2.2229323,-0.7167922,-0.34679556,0.009768889,8.207947871,0.796337671,crawl
09/07/2020, 21:52:57,-7.8029947,-1.2418749,2.2229323,-0.8083756,-0.24055889,0.11966889,8.207947871,0.85185699,crawl
09/07/2020, 21:52:57,-7.661818,-1.0671989,2.2205393,-0.8083756,-0.24055889,0.11966889,8.048177672,0.85185699,crawl
09/07/2020, 21:52:57,-7.661818,-1.0671989,2.2205393,-0.8669889,-0.085477784,0.23201112,8.048177672,0.901557187,crawl
09/07/2020, 21:52:57,-7.759924,-0.9738788,2.2899313,-0.8669889,-0.085477784,0.23201112,8.14914994,0.901557187,crawl
09/07/2020, 21:52:57,-7.759924,-0.9738788,2.2899313,-0.90362227,0.10745778,0.35290113,8.14914994,0.97602233,crawl
09/07/2020, 21:52:57,-8.147561,-0.98584294,2.349752,-0.90362227,0.10745778,0.35290113,8.536742469,0.97602233,crawl
09/07/2020, 21:52:57,-8.147561,-0.98584294,2.349752,-0.94391894,0.28085557,0.48844448,8.536742469,1.099291057,crawl
09/07/2020, 21:52:57,-8.829515,-1.1294123,2.3377876,-0.94391894,0.28085557,0.48844448,9.203323657,1.099291057,crawl
09/07/2020, 21:52:57,-8.829515,-1.1294123,2.3377876,-0.99032116,0.38709223,0.6325356,9.203323657,1.237205582,crawl
09/07/2020, 21:52:57,-9.583255,-1.3950156,2.2492533,-0.99032116,0.38709223,0.6325356,9.942031062,1.237205582,crawl
09/07/2020, 21:52:57,-9.583255,-1.3950156,2.2492533,-1.0452712,0.43349445,0.7937223,9.942031062,1.382209925,crawl
09/07/2020, 21:52:57,-10.403993,-1.672583,2.1128623,-1.0452712,0.43349445,0.7937223,10.74731521,1.382209925,crawl
09/07/2020, 21:52:57,-10.403993,-1.672583,2.1128623,-1.0916734,0.4591378,0.9732256,10.74731521,1.532881707,crawl
09/07/2020, 21:52:57,-11.100305,-1.9549361,1.9908284,-1.0916734,0.4591378,0.9732256,11.44560769,1.532881707,crawl
09/07/2020, 21:52:57,-11.100305,-1.9549361,1.9908284,-1.1563922,0.47501224,1.1661612,11.44560769,1.7096232,crawl
09/07/2020, 21:52:57,-11.71526,-2.2564318,1.8496519,-1.1563922,0.47501224,1.1661612,12.07311075,1.7096232,crawl
09/07/2020, 21:52:58,-6.4031935,-2.239682,2.4071796,-0.029306669,-0.004884445,-0.37732336,7.198025808,0.378491289,crawl
09/07/2020, 21:52:58,-6.458228,-2.225325,2.498107,-0.029306669,-0.004884445,-0.37732336,7.273329398,0.378491289,crawl
09/07/2020, 21:52:58,-6.458228,-2.225325,2.498107,0.03052778,0.09280445,-0.22102112,7.273329398,0.241650459,crawl
09/07/2020, 21:52:58,-6.6185474,-2.2779672,2.5914268,0.03052778,0.09280445,-0.22102112,7.463899648,0.241650459,crawl
09/07/2020, 21:52:58,-6.6185474,-2.2779672,2.5914268,0.12211112,0.16851334,-0.06716111,7.463899648,0.218674386,crawl
09/07/2020, 21:52:58,-6.8171515,-2.3234308,2.7062824,0.12211112,0.16851334,-0.06716111,7.69388394,0.218674386,crawl
09/07/2020, 21:52:58,-6.8171515,-2.3234308,2.7062824,0.20514667,0.23567446,0.08303556,7.69388394,0.323299411,crawl
09/07/2020, 21:52:58,-7.0325055,-2.3377876,2.7828526,0.20514667,0.23567446,0.08303556,7.916164074,0.323299411,crawl
09/07/2020, 21:52:58,-7.0325055,-2.3377876,2.7828526,0.2625389,0.2869611,0.23689556,7.916164074,0.455404067,crawl
09/07/2020, 21:52:58,-7.3052874,-2.3234308,2.7948167,0.2625389,0.2869611,0.23689556,8.159445727,0.455404067,crawl
09/07/2020, 21:52:58,-7.3052874,-2.3234308,2.7948167,0.28574002,0.3260367,0.3858711,8.159445727,0.580382458,crawl
09/07/2020, 21:52:58,-7.513463,-2.2612174,2.7900312,0.28574002,0.3260367,0.3858711,8.327634992,0.580382458,crawl
09/07/2020, 21:52:58,-7.513463,-2.2612174,2.7900312,0.27108666,0.3382478,0.5324045,8.327634992,0.686552321,crawl
09/07/2020, 21:52:58,-7.664211,-2.1702902,2.6871397,0.27108666,0.3382478,0.5324045,8.406604954,0.686552321,crawl
09/07/2020, 21:52:58,-7.664211,-2.1702902,2.6871397,0.21125223,0.34313223,0.6777167,8.406604954,0.788458697,crawl
09/07/2020, 21:52:58,-7.7144604,-2.091327,2.5962126,0.21125223,0.34313223,0.6777167,8.403979252,0.788458697,crawl
09/07/2020, 21:52:58,-7.7144604,-2.091327,2.5962126,0.11844778,0.36389112,0.81936556,8.403979252,0.904326573,crawl
09/07/2020, 21:52:58,-7.7742805,-1.9884356,2.5555346,0.11844778,0.36389112,0.81936556,8.421643033,0.904326573,crawl
09/07/2020, 21:52:58,-7.7742805,-1.9884356,2.5555346,0.01099,0.40052447,0.9646778,8.421643033,1.04457834,crawl
09/07/2020, 21:52:58,-7.865208,-1.9501505,2.5746772,0.01099,0.40052447,0.9646778,8.50256132,1.04457834,crawl
09/07/2020, 21:52:59,-9.202796,-3.2303107,2.333002,1.7156612,-1.0086378,-1.911039,10.02842259,2.75915086,crawl
09/07/2020, 21:52:59,-9.202796,-3.2303107,2.333002,1.85731,-0.99032116,-1.9281346,10.02842259,2.854477103,crawl
09/07/2020, 21:52:59,-9.339187,-3.4193435,2.455036,1.85731,-0.99032116,-1.9281346,10.24399916,2.854477103,crawl
09/07/2020, 21:52:59,-9.339187,-3.4193435,2.455036,1.9928534,-0.97078335,-1.9379034,10.24399916,2.944376778,crawl
09/07/2020, 21:52:59,-9.554541,-3.6370904,2.5339992,1.9928534,-0.97078335,-1.9379034,10.53275014,2.944376778,crawl
09/07/2020, 21:52:59,-9.554541,-3.6370904,2.5339992,2.1308389,-0.94880337,-1.9354612,10.53275014,3.03095893,crawl
09/07/2020, 21:52:59,-9.80818,-3.8141594,2.6009982,2.1308389,-0.94880337,-1.9354612,10.84035956,3.03095893,crawl
09/07/2020, 21:52:59,-9.80818,-3.8141594,2.6009982,2.2688246,-0.93903446,-1.9244711,10.84035956,3.119765993,crawl
09/07/2020, 21:52:59,-10.10489,-3.9553359,2.5698915,2.2688246,-0.93903446,-1.9244711,11.15158388,3.119765993,crawl
09/07/2020, 21:52:59,-10.10489,-3.9553359,2.5698915,2.3994834,-0.9500245,-1.9037123,11.15158388,3.2068969,crawl
09/07/2020, 21:52:59,-10.4016,-4.0701914,2.5387847,2.3994834,-0.9500245,-1.9037123,11.45448235,3.2068969,crawl
09/07/2020, 21:52:59,-10.4016,-4.0701914,2.5387847,2.5093834,-0.9426978,-1.8585312,11.45448235,3.261874123,crawl
09/07/2020, 21:52:59,-10.746166,-4.1371903,2.5052853,2.5093834,-0.9426978,-1.8585312,11.78443409,3.261874123,crawl
09/07/2020, 21:52:59,-10.746166,-4.1371903,2.5052853,2.5960822,-0.9182756,-1.7974756,11.78443409,3.288432964,crawl
09/07/2020, 21:52:59,-11.157732,-4.132405,2.440679,2.5960822,-0.9182756,-1.7974756,12.14613796,3.288432964,crawl
09/07/2020, 21:52:59,-11.157732,-4.132405,2.440679,2.6559167,-0.9133912,-1.7278723,12.14613796,3.297532323,crawl
09/07/2020, 21:52:59,-11.614761,-4.101298,2.306681,2.6559167,-0.9133912,-1.7278723,12.53172383,3.297532323,crawl
09/07/2020, 21:52:59,-11.614761,-4.101298,2.306681,2.6620224,-0.9744467,-1.6655957,12.53172383,3.287874431,crawl
09/07/2020, 21:52:59,-12.031113,-4.017549,2.158326,2.6620224,-0.9744467,-1.6655957,12.86649692,3.287874431,crawl
09/07/2020, 21:52:59,-12.031113,-4.017549,2.158326,2.6522534,-1.0330601,-1.6057612,12.86649692,3.268046832,crawl
09/07/2020, 21:53:00,-9.877572,-1.9645073,3.7974095,-0.97688895,0.39564002,0.9304867,10.76317974,1.405933324,crawl
09/07/2020, 21:53:00,-9.877572,-1.9645073,3.7974095,-1.1063267,0.27719223,0.84745115,10.76317974,1.420903851,crawl
09/07/2020, 21:53:00,-9.860822,-1.9070797,3.7256248,-1.1063267,0.27719223,0.84745115,10.71228445,1.420903851,crawl
09/07/2020, 21:53:00,-9.860822,-1.9070797,3.7256248,-1.1966889,0.16851334,0.77052116,10.71228445,1.43323547,crawl
09/07/2020, 21:53:00,-9.729217,-1.9501505,3.7663028,-1.1966889,0.16851334,0.77052116,10.61347158,1.43323547,crawl
09/07/2020, 21:53:00,-9.729217,-1.9501505,3.7663028,-1.2516389,0.08303556,0.69237006,10.61347158,1.43278439,crawl
09/07/2020, 21:53:00,-9.523434,-2.0865414,3.888337,-1.2516389,0.08303556,0.69237006,10.49612348,1.43278439,crawl
09/07/2020, 21:53:00,-9.523434,-2.0865414,3.888337,-1.3029256,0.03174889,0.6117767,10.49612348,1.439754777,crawl
09/07/2020, 21:53:00,-9.35833,-2.28036,4.106084,-1.3029256,0.03174889,0.6117767,10.47083103,1.439754777,crawl
09/07/2020, 21:53:00,-9.35833,-2.28036,4.106084,-1.3334534,0.009768889,0.54095227,10.47083103,1.439035371,crawl
09/07/2020, 21:53:00,-9.243474,-2.5292134,4.328616,-1.3334534,0.009768889,0.54095227,10.51549571,1.439035371,crawl
09/07/2020, 21:53:00,-9.243474,-2.5292134,4.328616,-1.3151367,-0.024422223,0.48722336,10.51549571,1.402700078,crawl
09/07/2020, 21:53:00,-9.12144,-2.7900312,4.5559344,-1.3151367,-0.024422223,0.48722336,10.57078422,1.402700078,crawl
09/07/2020, 21:53:00,-9.12144,-2.7900312,4.5559344,-1.2443123,-0.07693,0.44082114,10.57078422,1.322329221,crawl
09/07/2020, 21:53:00,-8.973084,-3.0867412,4.7545385,-1.2443123,-0.07693,0.44082114,10.61366348,1.322329221,crawl
09/07/2020, 21:53:00,-8.973084,-3.0867412,4.7545385,-1.1234223,-0.11478445,0.3834289,10.61366348,1.192589945,crawl
09/07/2020, 21:53:00,-8.788837,-3.3714871,5.003392,-1.1234223,-0.11478445,0.3834289,10.6604185,1.192589945,crawl
09/07/2020, 21:53:00,-8.788837,-3.3714871,5.003392,-0.9597934,-0.11112112,0.31993112,10.6604185,1.017795251,crawl
09/07/2020, 21:53:00,-8.630911,-3.6131623,5.221139,-0.9597934,-0.11112112,0.31993112,10.7148428,1.017795251,crawl
09/07/2020, 21:53:00,-8.630911,-3.6131623,5.221139,-0.76075226,-0.10379445,0.25521225,10.7148428,0.809104802,crawl
09/07/2020, 21:53:01,-8.992228,-3.7184465,6.195018,0.8547778,1.4262578,0.5568267,11.53539104,1.753542856,crawl
09/07/2020, 21:53:01,-8.796016,-3.3810585,6.216553,0.8547778,1.4262578,0.5568267,11.28924191,1.753542856,crawl
09/07/2020, 21:53:01,-8.796016,-3.3810585,6.216553,1.0782411,1.3126945,0.48478112,11.28924191,1.766573973,crawl
09/07/2020, 21:53:01,-8.626125,-3.0293136,6.3074803,1.0782411,1.3126945,0.48478112,11.10725381,1.766573973,crawl
09/07/2020, 21:53:01,-8.626125,-3.0293136,6.3074803,1.27484,1.2430911,0.43471557,11.10725381,1.832885742,crawl
09/07/2020, 21:53:01,-8.58784,-2.524428,6.3194447,1.27484,1.2430911,0.43471557,10.957149,1.832885742,crawl
09/07/2020, 21:53:01,-8.58784,-2.524428,6.3194447,1.3822979,1.16494,0.39808223,10.957149,1.851027302,crawl
09/07/2020, 21:53:01,-8.690732,-1.9549361,6.192625,1.3822979,1.16494,0.39808223,10.84892635,1.851027302,crawl
09/07/2020, 21:53:01,-8.690732,-1.9549361,6.192625,1.3285689,1.0257334,0.36267,10.84892635,1.717193599,crawl
09/07/2020, 21:53:01,-8.906086,-1.2466606,5.871987,1.3285689,1.0257334,0.36267,10.7402402,1.717193599,crawl
09/07/2020, 21:53:01,-8.906086,-1.2466606,5.871987,1.1063267,0.81448114,0.34801668,10.7402402,1.417199316,crawl
09/07/2020, 21:53:01,-9.224331,-0.5096712,5.4388857,1.1063267,0.81448114,0.34801668,10.72051878,1.417199316,crawl
09/07/2020, 21:53:01,-9.224331,-0.5096712,5.4388857,0.72778225,0.5470578,0.35900667,10.72051878,0.978685362,crawl
09/07/2020, 21:53:01,-9.482756,0.19621146,4.924429,0.72778225,0.5470578,0.35900667,10.68696188,0.978685362,crawl
09/07/2020, 21:53:01,-9.482756,0.19621146,4.924429,0.2625389,0.21125223,0.3944189,10.68696188,0.518768202,crawl
09/07/2020, 21:53:01,-9.585648,0.6771688,4.496114,0.2625389,0.21125223,0.3944189,10.60934665,0.518768202,crawl
09/07/2020, 21:53:01,-9.585648,0.6771688,4.496114,-0.18927222,-0.10013112,0.41762,10.60934665,0.469315121,crawl
09/07/2020, 21:53:01,-9.489935,0.9236295,4.254439,-0.18927222,-0.10013112,0.41762,10.44089108,0.469315121,crawl
09/07/2020, 21:53:01,-9.489935,0.9236295,4.254439,-0.5641534,-0.33214223,0.37488112,10.44089108,0.754402641,crawl
09/07/2020, 21:53:01,-9.212367,0.8709874,4.1180477,-0.5641534,-0.33214223,0.37488112,10.12840772,0.754402641,crawl
09/07/2020, 21:53:02,-11.46162,-4.587041,2.4622145,-1.5092934,1.3065889,2.845189,12.58857359,3.47566428,crawl
09/07/2020, 21:53:02,-11.46162,-4.587041,2.4622145,-1.2894934,1.2919356,2.9294457,12.58857359,3.451600093,crawl
09/07/2020, 21:53:02,-10.463814,-4.6037908,2.8666015,-1.2894934,1.2919356,2.9294457,11.78574105,3.451600093,crawl
09/07/2020, 21:53:02,-10.463814,-4.6037908,2.8666015,-1.0684723,1.3749712,2.997828,11.78574105,3.466864781,crawl
09/07/2020, 21:53:02,-9.504292,-4.551149,3.211168,-1.0684723,1.3749712,2.997828,11.01617511,3.466864781,crawl
09/07/2020, 21:53:02,-9.504292,-4.551149,3.211168,-0.8450089,1.5227256,3.03324,11.01617511,3.497610418,crawl
09/07/2020, 21:53:02,-8.7577305,-4.3764725,3.4025939,-0.8450089,1.5227256,3.03324,10.36479616,3.497610418,crawl
09/07/2020, 21:53:02,-8.7577305,-4.3764725,3.4025939,-0.64108336,1.7022289,3.0246923,10.36479616,3.529494951,crawl
09/07/2020, 21:53:02,-8.334201,-4.130012,3.4672,-0.64108336,1.7022289,3.0246923,9.926599594,3.529494951,crawl
09/07/2020, 21:53:02,-8.334201,-4.130012,3.4672,-0.45425335,1.9232501,2.9917223,9.926599594,3.585476197,crawl
09/07/2020, 21:53:02,-8.370093,-3.8644085,3.4480574,-0.45425335,1.9232501,2.9917223,9.842825587,3.585476197,crawl
09/07/2020, 21:53:02,-8.370093,-3.8644085,3.4480574,-0.2735289,2.16503,2.9502046,9.842825587,3.669588563,crawl
09/07/2020, 21:53:02,-8.927621,-3.682554,3.2542388,-0.2735289,2.16503,2.9502046,10.19086302,3.669588563,crawl
09/07/2020, 21:53:02,-8.927621,-3.682554,3.2542388,-0.12211112,2.3372068,2.9196768,10.19086302,3.741919219,crawl
09/07/2020, 21:53:02,-9.925428,-3.4887354,2.845066,-0.12211112,2.3372068,2.9196768,10.8986148,3.741919219,crawl
09/07/2020, 21:53:02,-9.925428,-3.4887354,2.845066,-0.039075557,2.3860512,2.90136,10.8986148,3.756681671,crawl
09/07/2020, 21:53:02,-11.207981,-3.3092737,2.3042881,-0.039075557,2.3860512,2.90136,11.91133397,3.756681671,crawl
09/07/2020, 21:53:02,-11.207981,-3.3092737,2.3042881,-0.04396,2.3140056,2.8915913,11.91133397,3.703762245,crawl
09/07/2020, 21:53:02,-12.567104,-3.2015967,1.7826529,-0.04396,2.3140056,2.8915913,13.09046158,3.703762245,crawl
09/07/2020, 21:53:02,-12.567104,-3.2015967,1.7826529,-0.12211112,2.16503,2.8915913,13.09046158,3.614355592,crawl
09/07/2020, 21:53:03,-5.548956,-2.469393,1.2035898,-2.0478034,-0.69481224,-0.78761667,6.191723672,2.301434952,crawl
09/07/2020, 21:53:03,-5.548956,-2.469393,1.2035898,-1.8304456,-0.56171113,-0.6191034,6.191723672,2.012297108,crawl
09/07/2020, 21:53:03,-5.5106707,-2.6775684,1.4261223,-1.8304456,-0.56171113,-0.6191034,6.290523723,2.012297108,crawl
09/07/2020, 21:53:03,-5.5106707,-2.6775684,1.4261223,-1.5898868,-0.40907225,-0.4566956,6.290523723,1.704010256,crawl
09/07/2020, 21:53:03,-5.5800624,-2.792424,1.6007984,-1.5898868,-0.40907225,-0.4566956,6.441838501,1.704010256,crawl
09/07/2020, 21:53:03,-5.5800624,-2.792424,1.6007984,-1.3493278,-0.24544334,-0.2869611,6.441838501,1.401169023,crawl
09/07/2020, 21:53:03,-5.6327047,-2.8354948,1.7563318,-1.3493278,-0.24544334,-0.2869611,6.546151124,1.401169023,crawl
09/07/2020, 21:53:03,-5.6327047,-2.8354948,1.7563318,-1.1185378,-0.081814446,-0.10745778,6.546151124,1.126662128,crawl
09/07/2020, 21:53:03,-5.7403817,-2.7900312,1.8783658,-1.1185378,-0.081814446,-0.10745778,6.653158216,1.126662128,crawl
09/07/2020, 21:53:03,-5.7403817,-2.7900312,1.8783658,-0.92071784,0.06594,0.07326667,6.653158216,0.925979169,crawl
09/07/2020, 21:53:03,-5.9174504,-2.7445676,1.9669002,-0.92071784,0.06594,0.07326667,6.813043928,0.925979169,crawl
09/07/2020, 21:53:03,-5.9174504,-2.7445676,1.9669002,-0.76075226,0.21369445,0.25399113,6.813043928,0.830012539,crawl
09/07/2020, 21:53:03,-6.1567326,-2.7302105,2.105684,-0.76075226,0.21369445,0.25399113,7.056437536,0.830012539,crawl
09/07/2020, 21:53:03,-6.1567326,-2.7302105,2.105684,-0.6105556,0.36999667,0.45303226,7.056437536,0.845525804,crawl
09/07/2020, 21:53:03,-6.4295144,-2.7948167,2.2085752,-0.6105556,0.36999667,0.45303226,7.350337456,0.845525804,crawl
09/07/2020, 21:53:03,-6.4295144,-2.7948167,2.2085752,-0.4701278,0.52752,0.65329444,7.350337456,0.962336283,crawl
09/07/2020, 21:53:03,-6.7836523,-2.8953154,2.309074,-0.4701278,0.52752,0.65329444,7.728687619,0.962336283,crawl
09/07/2020, 21:53:03,-6.7836523,-2.8953154,2.309074,-0.34191114,0.6752745,0.86576784,7.728687619,1.149979483,crawl
09/07/2020, 21:53:03,-7.1712894,-3.0173492,2.3712873,-0.34191114,0.6752745,0.86576784,8.13355964,1.149979483,crawl
09/07/2020, 21:53:03,-7.1712894,-3.0173492,2.3712873,-0.21491556,0.8083756,1.0941156,8.13355964,1.37722503,crawl
09/07/2020, 21:53:04,-12.873385,-4.8789654,2.6488547,1.3542123,-1.8109078,-2.2236435,14.01944318,3.171414309,crawl
09/07/2020, 21:53:04,-12.873385,-4.8789654,2.6488547,1.4116045,-1.7999178,-2.1393867,14.01944318,3.131981279,crawl
09/07/2020, 21:53:04,-12.669996,-4.706682,2.4263222,1.4116045,-1.7999178,-2.1393867,13.73203198,3.131981279,crawl
09/07/2020, 21:53:04,-12.669996,-4.706682,2.4263222,1.4274789,-1.7938123,-2.0710046,13.73203198,3.089420445,crawl
09/07/2020, 21:53:04,-12.380465,-4.421936,2.120041,1.4274789,-1.7938123,-2.0710046,13.31630558,3.089420445,crawl
09/07/2020, 21:53:04,-12.380465,-4.421936,2.120041,1.4238156,-1.7889278,-2.0172756,13.31630558,3.049084169,crawl
09/07/2020, 21:53:04,-12.062219,-4.089334,1.8065811,1.4238156,-1.7889278,-2.0172756,12.8640393,3.049084169,crawl
09/07/2020, 21:53:04,-12.062219,-4.089334,1.8065811,1.3822979,-1.779159,-1.9696523,12.8640393,2.992604909,crawl
09/07/2020, 21:53:04,-11.696117,-3.7854455,1.4931214,1.3822979,-1.779159,-1.9696523,12.38378662,2.992604909,crawl
09/07/2020, 21:53:04,-11.696117,-3.7854455,1.4931214,1.3017045,-1.7706112,-1.9403456,12.38378662,2.9316275,crawl
09/07/2020, 21:53:04,-11.404193,-3.5006995,1.1988041,1.3017045,-1.7706112,-1.9403456,11.98948059,2.9316275,crawl
09/07/2020, 21:53:04,-11.404193,-3.5006995,1.1988041,1.1832567,-1.7803801,-1.922029,11.98948059,2.874725288,crawl
09/07/2020, 21:53:04,-11.117054,-3.2614172,0.89013004,1.1832567,-1.7803801,-1.922029,11.6197273,2.874725288,crawl
09/07/2020, 21:53:04,-11.117054,-3.2614172,0.89013004,1.0513767,-1.7938123,-1.9159234,11.6197273,2.827351721,crawl
09/07/2020, 21:53:04,-10.796415,-3.034099,0.6436693,1.0513767,-1.7938123,-1.9159234,11.23310516,2.827351721,crawl
09/07/2020, 21:53:04,-10.796415,-3.034099,0.6436693,0.9072856,-1.8109078,-1.9073756,11.23310516,2.78219983,crawl
09/07/2020, 21:53:04,-10.490134,-2.8378878,0.44745782,0.9072856,-1.8109078,-1.9073756,10.87643056,2.78219983,crawl
09/07/2020, 21:53:04,-10.490134,-2.8378878,0.44745782,0.7522045,-1.8206767,-1.9085968,10.87643056,2.742884747,crawl
09/07/2020, 21:53:04,-10.176675,-2.629712,0.30149564,0.7522045,-1.8206767,-1.9085968,10.51527442,2.742884747,crawl
09/07/2020, 21:53:04,-10.176675,-2.629712,0.30149564,0.5922389,-1.8218979,-1.9098178,10.51527442,2.705080929,crawl
09/07/2020, 21:53:05,-10.789237,-4.6301117,4.35733,0.5556056,-0.15141778,-0.31138334,12.5232541,0.654663652,crawl
09/07/2020, 21:53:05,-10.789237,-4.6301117,4.35733,0.6655056,-0.11234222,-0.4261678,12.5232541,0.798208898,crawl
09/07/2020, 21:53:05,-11.468799,-4.773681,4.5391846,0.6655056,-0.11234222,-0.4261678,13.22594309,0.798208898,crawl
09/07/2020, 21:53:05,-11.468799,-4.773681,4.5391846,0.7888378,-0.08059334,-0.53484666,13.22594309,0.956462911,crawl
09/07/2020, 21:53:05,-12.358929,-4.9674997,4.642076,0.7888378,-0.08059334,-0.53484666,14.10560319,0.956462911,crawl
09/07/2020, 21:53:05,-12.358929,-4.9674997,4.642076,0.8987378,-0.12455334,-0.63986224,14.10560319,1.1102553,crawl
09/07/2020, 21:53:05,-13.378271,-5.046463,4.6899323,0.8987378,-0.12455334,-0.63986224,15.04793647,1.1102553,crawl
09/07/2020, 21:53:05,-13.378271,-5.046463,4.6899323,0.97566783,-0.2942878,-0.74609894,15.04793647,1.263010948,crawl
09/07/2020, 21:53:05,-14.268401,-5.029713,4.5487556,0.97566783,-0.2942878,-0.74609894,15.79798923,1.263010948,crawl
09/07/2020, 21:53:05,-14.268401,-5.029713,4.5487556,0.98910004,-0.57514334,-0.8437878,15.79798923,1.421649246,crawl
09/07/2020, 21:53:05,-14.806787,-4.9052863,4.347759,0.98910004,-0.57514334,-0.8437878,16.19276899,1.421649246,crawl
09/07/2020, 21:53:05,-14.806787,-4.9052863,4.347759,0.9500245,-0.9280445,-0.94758224,16.19276899,1.631479459,crawl
09/07/2020, 21:53:05,-14.809179,-4.6372905,4.1108694,0.9500245,-0.9280445,-0.94758224,16.05351992,1.631479459,crawl
09/07/2020, 21:53:05,-14.809179,-4.6372905,4.1108694,0.84745115,-1.27484,-1.064809,16.05351992,1.864727487,crawl
09/07/2020, 21:53:05,-14.155939,-4.2831526,3.8404803,0.84745115,-1.27484,-1.064809,15.28022569,1.864727487,crawl
09/07/2020, 21:53:05,-14.155939,-4.2831526,3.8404803,0.6838223,-1.5447056,-1.1954678,15.28022569,2.069510018,crawl
09/07/2020, 21:53:05,-13.055241,-3.8380876,3.586841,0.6838223,-1.5447056,-1.1954678,14.0725141,2.069510018,crawl
09/07/2020, 21:53:05,-13.055241,-3.8380876,3.586841,0.4823389,-1.6790278,-1.350549,14.0725141,2.208114063,crawl
09/07/2020, 21:53:05,-11.849257,-3.3667014,3.2973096,0.4823389,-1.6790278,-1.350549,12.75193442,2.208114063,crawl
09/07/2020, 21:53:05,-11.849257,-3.3667014,3.2973096,0.25521225,-1.7168823,-1.5386001,12.75193442,2.319506093,crawl
09/07/2020, 21:53:06,-7.726424,-3.7950168,4.302295,0.6337567,0.6386411,0.9829945,9.623384409,1.332587037,crawl
09/07/2020, 21:53:06,-7.726424,-3.7950168,4.302295,0.6935911,0.6252089,0.93415004,9.623384409,1.32082971,crawl
09/07/2020, 21:53:06,-7.6163545,-3.5437703,4.345366,0.6935911,0.6252089,0.93415004,9.457767657,1.32082971,crawl
09/07/2020, 21:53:06,-7.6163545,-3.5437703,4.345366,0.6984756,0.61788225,0.8718734,9.457767657,1.276640054,crawl
09/07/2020, 21:53:06,-7.570891,-3.2638102,4.2999024,0.6984756,0.61788225,0.8718734,9.298387323,1.276640054,crawl
09/07/2020, 21:53:06,-7.570891,-3.2638102,4.2999024,0.65329444,0.59956557,0.81081784,9.298387323,1.201539872,crawl
09/07/2020, 21:53:06,-7.556534,-3.050849,4.261617,0.65329444,0.59956557,0.81081784,9.196209201,1.201539872,crawl
09/07/2020, 21:53:06,-7.556534,-3.050849,4.261617,0.57148004,0.56049,0.7436567,9.196209201,1.092594968,crawl
09/07/2020, 21:53:06,-7.587641,-2.9168508,4.2329035,0.57148004,0.56049,0.7436567,9.165030433,1.092594968,crawl
09/07/2020, 21:53:06,-7.587641,-2.9168508,4.2329035,0.4921078,0.5226356,0.68138003,9.165030433,0.989745823,crawl
09/07/2020, 21:53:06,-7.6809607,-2.8666015,4.2329035,0.4921078,0.5226356,0.68138003,9.226702143,0.989745823,crawl
09/07/2020, 21:53:06,-7.6809607,-2.8666015,4.2329035,0.41884112,0.48478112,0.6191034,9.226702143,0.890915037,crawl
09/07/2020, 21:53:06,-7.838887,-2.9096723,4.2855453,0.41884112,0.48478112,0.6191034,9.395756721,0.890915037,crawl
09/07/2020, 21:53:06,-7.838887,-2.9096723,4.2855453,0.35534334,0.45181113,0.5653745,9.395756721,0.806257099,crawl
09/07/2020, 21:53:06,-8.059027,-2.955136,4.3070807,0.35534334,0.45181113,0.5653745,9.603732885,0.806257099,crawl
09/07/2020, 21:53:06,-8.059027,-2.955136,4.3070807,0.32115224,0.40540892,0.5128667,9.603732885,0.728373105,crawl
09/07/2020, 21:53:06,-8.331808,-3.0364919,4.2975097,0.32115224,0.40540892,0.5128667,9.854333986,0.728373105,crawl
09/07/2020, 21:53:06,-8.331808,-3.0364919,4.2975097,0.30405667,0.34191114,0.45303226,9.854333986,0.64388812,crawl
09/07/2020, 21:53:06,-8.606983,-3.1465619,4.28076,0.30405667,0.34191114,0.45303226,10.11463868,0.64388812,crawl
09/07/2020, 21:53:06,-8.606983,-3.1465619,4.28076,0.29062447,0.24788557,0.38831335,10.11463868,0.54469909,crawl
09/07/2020, 21:53:07,-11.162518,-1.1892328,3.8237305,0.068382226,1.7315357,1.5666857,11.85904665,2.336107002,crawl
09/07/2020, 21:53:07,-11.162518,-1.1892328,3.8237305,0.09036223,1.5996556,1.5495901,11.85904665,2.228966795,crawl
09/07/2020, 21:53:07,-11.763116,-1.1964114,3.65384,0.09036223,1.5996556,1.5495901,12.37549363,2.228966795,crawl
09/07/2020, 21:53:07,-11.763116,-1.1964114,3.65384,0.13432223,1.4140468,1.5178412,12.37549363,2.07880078,crawl
09/07/2020, 21:53:07,-12.035898,-1.2418749,3.6681972,0.13432223,1.4140468,1.5178412,12.64360587,2.07880078,crawl
09/07/2020, 21:53:07,-12.035898,-1.2418749,3.6681972,0.21125223,1.2272167,1.4592278,12.64360587,1.918341512,crawl
09/07/2020, 21:53:07,-11.810972,-1.3543376,3.888337,0.21125223,1.2272167,1.4592278,12.50809573,1.918341512,crawl
09/07/2020, 21:53:07,-11.810972,-1.3543376,3.888337,0.32481557,1.0806834,1.3859612,12.50809573,1.787252091,crawl
09/07/2020, 21:53:07,-11.270195,-1.39023,4.3836513,0.32481557,1.0806834,1.3859612,12.1723635,1.787252091,crawl
09/07/2020, 21:53:07,-11.270195,-1.39023,4.3836513,0.4798967,1.0367234,1.3358957,12.1723635,1.757758061,crawl
09/07/2020, 21:53:07,-10.561919,-1.3112668,4.912465,0.4798967,1.0367234,1.3358957,11.72202505,1.757758061,crawl
09/07/2020, 21:53:07,-10.561919,-1.3112668,4.912465,0.6252089,1.0709145,1.2907145,11.72202505,1.789884911,crawl
09/07/2020, 21:53:07,-9.868001,-1.1700903,5.3742795,0.6252089,1.0709145,1.2907145,11.29731981,1.789884911,crawl
09/07/2020, 21:53:07,-9.868001,-1.1700903,5.3742795,0.7070234,1.1283067,1.229659,11.29731981,1.812462231,crawl
09/07/2020, 21:53:07,-9.226724,-0.92602235,5.721239,0.7070234,1.1283067,1.229659,10.89598659,1.812462231,crawl
09/07/2020, 21:53:07,-9.226724,-0.92602235,5.721239,0.7302245,1.1624979,1.1600556,10.89598659,1.797319728,crawl
09/07/2020, 21:53:07,-8.786445,-0.66999036,6.0011992,0.7302245,1.1624979,1.1600556,10.66137371,1.797319728,crawl
09/07/2020, 21:53:07,-8.786445,-0.66999036,6.0011992,0.74732006,1.1771512,1.1026634,10.66137371,1.777649794,crawl
09/07/2020, 21:53:07,-8.465807,-0.47138608,6.2404814,0.74732006,1.1771512,1.1026634,10.52785354,1.777649794,crawl
09/07/2020, 21:53:07,-8.465807,-0.47138608,6.2404814,0.80593336,1.1905833,1.0513767,10.52785354,1.781126119,crawl
09/07/2020, 21:53:08,-5.2402816,0.72023964,4.2592244,-2.9673002,0.96589893,1.7767167,6.791192002,3.590898682,crawl
09/07/2020, 21:53:08,-5.2402816,0.72023964,4.2592244,-3.4569657,1.0391656,1.8683001,6.791192002,4.064606022,crawl
09/07/2020, 21:53:08,-5.3479586,0.8207382,3.711268,-3.4569657,1.0391656,1.8683001,6.561080839,4.064606022,crawl
09/07/2020, 21:53:08,-5.3479586,0.8207382,3.711268,-3.9466312,1.0684723,1.9171445,6.561080839,4.515858051,crawl
09/07/2020, 21:53:08,-5.548956,0.782453,3.2015967,-3.9466312,1.0684723,1.9171445,6.453941907,4.515858051,crawl
09/07/2020, 21:53:08,-5.548956,0.782453,3.2015967,-4.3898945,1.0794623,1.9525567,6.453941907,4.924316217,crawl
09/07/2020, 21:53:08,-5.76431,0.567099,2.766103,-4.3898945,1.0794623,1.9525567,6.418737854,4.924316217,crawl
09/07/2020, 21:53:08,-5.76431,0.567099,2.766103,-4.745238,1.0880101,2.0111701,6.418737854,5.267433277,crawl
09/07/2020, 21:53:08,-6.0323057,0.15553348,2.4382863,-4.745238,1.0880101,2.0111701,6.508313379,5.267433277,crawl
09/07/2020, 21:53:08,-6.0323057,0.15553348,2.4382863,-5.010219,1.1295278,2.1137433,6.508313379,5.553921068,crawl
09/07/2020, 21:53:08,-6.300302,-0.37567315,2.2564318,-5.010219,1.1295278,2.1137433,6.702717398,5.553921068,crawl
09/07/2020, 21:53:08,-6.300302,-0.37567315,2.2564318,-5.1799536,1.2491968,2.2724879,6.702717398,5.792806985,crawl
09/07/2020, 21:53:08,-6.65444,-0.91884387,2.1870399,-5.1799536,1.2491968,2.2724879,7.064629367,5.792806985,crawl
09/07/2020, 21:53:08,-6.65444,-0.91884387,2.1870399,-5.248336,1.416489,2.4764135,7.064629367,5.973616487,crawl
09/07/2020, 21:53:08,-7.1569324,-1.4452649,2.1343977,-5.248336,1.416489,2.4764135,7.606978716,5.973616487,crawl
09/07/2020, 21:53:08,-7.1569324,-1.4452649,2.1343977,-5.228798,1.5972134,2.6974347,7.606978716,6.096521302,crawl
09/07/2020, 21:53:08,-7.850851,-1.8520447,2.1343977,-5.228798,1.5972134,2.6974347,8.343955037,6.096521302,crawl
09/07/2020, 21:53:08,-7.850851,-1.8520447,2.1343977,-5.148205,1.779159,2.9172347,8.343955037,6.178970572,crawl
09/07/2020, 21:53:08,-8.700303,-2.2157538,2.1463618,-5.148205,1.779159,2.9172347,9.231018774,6.178970572,crawl
09/07/2020, 21:53:08,-8.700303,-2.2157538,2.1463618,-5.062727,1.9464512,3.118718,9.231018774,6.256698653,crawl
09/07/2020, 21:53:09,-7.4344997,-3.251846,0.95473623,-1.6082034,-1.339559,-1.3334534,8.170545304,2.481699908,crawl
09/07/2020, 21:53:09,-7.4344997,-3.251846,0.95473623,-1.50563,-1.1588345,-1.2553023,8.170545304,2.277191897,crawl
09/07/2020, 21:53:09,-7.6139617,-3.3619158,1.0480564,-1.50563,-1.1588345,-1.2553023,8.388880312,2.277191897,crawl
09/07/2020, 21:53:09,-7.6139617,-3.3619158,1.0480564,-1.3725289,-1.053819,-1.174709,8.388880312,2.091485385,crawl
09/07/2020, 21:53:09,-7.7886376,-3.507878,1.0001999,-1.3725289,-1.053819,-1.174709,8.600493279,2.091485385,crawl
09/07/2020, 21:53:09,-7.7886376,-3.507878,1.0001999,-1.2284378,-0.9976478,-1.1002212,8.600493279,1.927393876,crawl
09/07/2020, 21:53:09,-7.8628154,-3.5772698,0.93320084,-1.2284378,-0.9976478,-1.1002212,8.688589567,1.927393876,crawl
09/07/2020, 21:53:09,-7.8628154,-3.5772698,0.93320084,-1.0843467,-0.93903446,-1.01108,8.688589567,1.754957607,crawl
09/07/2020, 21:53:09,-7.8556366,-3.5605202,0.9954142,-1.0843467,-0.93903446,-1.01108,8.682118385,1.754957607,crawl
09/07/2020, 21:53:09,-7.8556366,-3.5605202,0.9954142,-0.9512456,-0.82425004,-0.9182756,8.682118385,1.558039282,crawl
09/07/2020, 21:53:09,-7.776674,-3.4648073,1.1246266,-0.9512456,-0.82425004,-0.9182756,8.587568329,1.558039282,crawl
09/07/2020, 21:53:09,-7.776674,-3.4648073,1.1246266,-0.8437878,-0.6764956,-0.82913446,8.587568329,1.362750199,crawl
09/07/2020, 21:53:09,-7.6713896,-3.2853456,1.2610176,-0.8437878,-0.6764956,-0.82913446,8.440016516,1.362750199,crawl
09/07/2020, 21:53:09,-7.6713896,-3.2853456,1.2610176,-0.7387723,-0.53973114,-0.7485411,8.440016516,1.182120122,crawl
09/07/2020, 21:53:09,-7.60439,-3.0867412,1.3686945,-0.7387723,-0.53973114,-0.7485411,8.320339267,1.182120122,crawl
09/07/2020, 21:53:09,-7.60439,-3.0867412,1.3686945,-0.6569578,-0.41762,-0.65940005,8.320339267,1.020200199,crawl
09/07/2020, 21:53:09,-7.5086775,-2.8977082,1.3734802,-0.6569578,-0.41762,-0.65940005,8.164765648,1.020200199,crawl
09/07/2020, 21:53:09,-7.5086775,-2.8977082,1.3734802,-0.59468114,-0.28085557,-0.5507211,8.164765648,0.857799074,crawl
09/07/2020, 21:53:09,-7.4679995,-2.6823542,1.3782659,-0.59468114,-0.28085557,-0.5507211,8.053921827,0.857799074,crawl
09/07/2020, 21:53:09,-7.4679995,-2.6823542,1.3782659,-0.54095227,-0.10745778,-0.4151778,8.053921827,0.690325378,crawl
09/07/2020, 21:53:10,-11.0811615,-3.7615173,2.132005,2.7230778,-1.1344123,-2.0331502,11.8948139,3.582700591,crawl
09/07/2020, 21:53:10,-11.167303,-3.4217365,1.8161523,2.7230778,-1.1344123,-2.0331502,11.8201247,3.582700591,crawl
09/07/2020, 21:53:10,-11.167303,-3.4217365,1.8161523,2.5765445,-1.1991311,-1.9342401,11.8201247,3.437700092,crawl
09/07/2020, 21:53:10,-11.160125,-3.1561332,1.5696917,2.5765445,-1.1991311,-1.9342401,11.70356756,3.437700092,crawl
09/07/2020, 21:53:10,-11.160125,-3.1561332,1.5696917,2.3860512,-1.2699556,-1.8377723,11.70356756,3.268552337,crawl
09/07/2020, 21:53:10,-11.059627,-2.9503503,1.4333007,2.3860512,-1.2699556,-1.8377723,11.53578163,3.268552337,crawl
09/07/2020, 21:53:10,-11.059627,-2.9503503,1.4333007,2.1577034,-1.3334534,-1.7388623,11.53578163,3.075292505,crawl
09/07/2020, 21:53:10,-10.892129,-2.7708886,1.3351951,2.1577034,-1.3334534,-1.7388623,11.31808474,3.075292505,crawl
09/07/2020, 21:53:10,-10.892129,-2.7708886,1.3351951,1.9159234,-1.3859612,-1.6533846,11.31808474,2.885365005,crawl
09/07/2020, 21:53:10,-10.643275,-2.6488547,1.253839,1.9159234,-1.3859612,-1.6533846,11.03937734,2.885365005,crawl
09/07/2020, 21:53:10,-10.643275,-2.6488547,1.253839,1.6778067,-1.4128256,-1.5642434,11.03937734,2.694061822,crawl
09/07/2020, 21:53:10,-10.399207,-2.5698915,1.2897314,1.6778067,-1.4128256,-1.5642434,10.78940488,2.694061822,crawl
09/07/2020, 21:53:10,-10.399207,-2.5698915,1.2897314,1.4555645,-1.4116045,-1.4763234,10.78940488,2.508151914,crawl
09/07/2020, 21:53:10,-10.152746,-2.5698915,1.2466606,1.4555645,-1.4116045,-1.4763234,10.54688391,2.508151914,crawl
09/07/2020, 21:53:10,-10.152746,-2.5698915,1.2466606,1.2601867,-1.4030567,-1.3920667,10.54688391,2.344032511,crawl
09/07/2020, 21:53:10,-9.930214,-2.6225336,1.2155539,1.2601867,-1.4030567,-1.3920667,10.3423596,2.344032511,crawl
09/07/2020, 21:53:10,-9.930214,-2.6225336,1.2155539,1.0867889,-1.40672,-1.3090311,10.3423596,2.207608179,crawl
09/07/2020, 21:53:10,-9.74836,-2.684747,1.2107682,1.0867889,-1.40672,-1.3090311,10.18353291,2.207608179,crawl
09/07/2020, 21:53:10,-9.74836,-2.684747,1.2107682,0.9402556,-1.3981723,-1.23088,10.18353291,2.086631701,crawl
09/07/2020, 21:53:10,-9.611969,-2.7637103,1.2035898,0.9402556,-1.3981723,-1.23088,10.07356296,2.086631701,crawl
09/07/2020, 21:53:11,-9.736395,-4.237689,4.388437,0.018316668,0.6252089,0.8266923,11.48972458,1.036649322,crawl
09/07/2020, 21:53:11,-9.736395,-4.237689,4.388437,0.025643334,0.5519422,0.7216767,11.48972458,0.908908727,crawl
09/07/2020, 21:53:11,-9.688539,-4.421936,4.520042,0.025643334,0.5519422,0.7216767,11.56944583,0.908908727,crawl
09/07/2020, 21:53:11,-9.688539,-4.421936,4.520042,0.034191113,0.47501224,0.61788225,11.56944583,0.78011803,crawl
09/07/2020, 21:53:11,-9.686146,-4.5296135,4.658826,0.034191113,0.47501224,0.61788225,11.6637677,0.78011803,crawl
09/07/2020, 21:53:11,-9.686146,-4.5296135,4.658826,0.036633335,0.40907225,0.51775116,11.6637677,0.660869403,crawl
09/07/2020, 21:53:11,-9.820144,-4.6636114,4.883751,0.036633335,0.40907225,0.51775116,11.91786544,0.660869403,crawl
09/07/2020, 21:53:11,-9.820144,-4.6636114,4.883751,0.06594,0.3712178,0.42128336,11.91786544,0.565358649,crawl
09/07/2020, 21:53:11,-10.047462,-4.843073,5.17089,0.06594,0.3712178,0.42128336,12.29410261,0.565358649,crawl
09/07/2020, 21:53:11,-10.047462,-4.843073,5.17089,0.15386,0.34679556,0.3174889,12.29410261,0.494711297,crawl
09/07/2020, 21:53:11,-10.506885,-5.144569,5.541777,0.15386,0.34679556,0.3174889,12.94497998,0.494711297,crawl
09/07/2020, 21:53:11,-10.506885,-5.144569,5.541777,0.30039334,0.30894113,0.20392556,12.94497998,0.476724675,crawl
09/07/2020, 21:53:11,-11.078769,-5.508278,5.838487,0.30039334,0.30894113,0.20392556,13.680942,0.476724675,crawl
09/07/2020, 21:53:11,-11.078769,-5.508278,5.838487,0.4798967,0.21735778,0.09036223,13.680942,0.534519014,crawl
09/07/2020, 21:53:11,-11.674582,-5.8265233,5.9150577,0.4798967,0.21735778,0.09036223,14.32592527,0.534519014,crawl
09/07/2020, 21:53:11,-11.674582,-5.8265233,5.9150577,0.63986224,0.051286668,-0.014653334,14.32592527,0.642081559,crawl
09/07/2020, 21:53:11,-12.165111,-5.8767724,5.7427745,0.63986224,0.051286668,-0.014653334,14.68011677,0.642081559,crawl
09/07/2020, 21:53:11,-12.165111,-5.8767724,5.7427745,0.7302245,-0.18438779,-0.11600556,14.68011677,0.762026215,crawl
09/07/2020, 21:53:11,-12.327823,-5.733203,5.400601,0.7302245,-0.18438779,-0.11600556,14.62912568,0.762026215,crawl
09/07/2020, 21:53:11,-12.327823,-5.733203,5.400601,0.73755115,-0.47501224,-0.22590557,14.62912568,0.905898261,crawl
09/07/2020, 21:53:12,-8.260024,-4.261617,4.6396832,0.01099,0.59834445,1.1002212,10.3882645,1.252446985,crawl
09/07/2020, 21:53:12,-8.398808,-4.3405805,4.802395,0.01099,0.59834445,1.1002212,10.60394281,1.252446985,crawl
09/07/2020, 21:53:12,-8.398808,-4.3405805,4.802395,0.11478445,0.57636446,1.0281756,10.60394281,1.184278897,crawl
09/07/2020, 21:53:12,-8.551949,-4.4434714,4.8909297,0.11478445,0.57636446,1.0281756,10.80747221,1.184278897,crawl
09/07/2020, 21:53:12,-8.551949,-4.4434714,4.8909297,0.20881,0.5018767,0.9500245,10.80747221,1.094544825,crawl
09/07/2020, 21:53:12,-8.652447,-4.45065,4.8502517,0.20881,0.5018767,0.9500245,10.87189327,1.094544825,crawl
09/07/2020, 21:53:12,-8.652447,-4.45065,4.8502517,0.28085557,0.41762,0.8669889,10.87189327,1.002474969,crawl
09/07/2020, 21:53:12,-8.650054,-4.409972,4.7545385,0.28085557,0.41762,0.8669889,10.8109632,1.002474969,crawl
09/07/2020, 21:53:12,-8.650054,-4.409972,4.7545385,0.31138334,0.35656446,0.7900589,10.8109632,0.921027079,crawl
09/07/2020, 21:53:12,-8.623733,-4.3094735,4.7210393,0.31138334,0.35656446,0.7900589,10.73445562,0.921027079,crawl
09/07/2020, 21:53:12,-8.623733,-4.3094735,4.7210393,0.32481557,0.32725778,0.7119078,10.73445562,0.848183667,crawl
09/07/2020, 21:53:12,-8.647661,-4.173083,4.6707897,0.32481557,0.32725778,0.7119078,10.67768427,0.848183667,crawl
09/07/2020, 21:53:12,-8.647661,-4.173083,4.6707897,0.33580557,0.31382558,0.6191034,10.67768427,0.771064755,crawl
09/07/2020, 21:53:12,-8.736196,-4.139583,4.587041,0.33580557,0.31382558,0.6191034,10.70038343,0.771064755,crawl
09/07/2020, 21:53:12,-8.736196,-4.139583,4.587041,0.37610224,0.27841336,0.5140878,10.70038343,0.695164119,crawl
09/07/2020, 21:53:12,-8.915657,-4.182654,4.54397,0.37610224,0.27841336,0.5140878,10.84579174,0.695164119,crawl
09/07/2020, 21:53:12,-8.915657,-4.182654,4.54397,0.4383789,0.23689556,0.40785113,10.84579174,0.643923995,crawl
09/07/2020, 21:53:12,-9.188439,-4.26401,4.5272202,0.4383789,0.23689556,0.40785113,11.09526575,0.643923995,crawl
09/07/2020, 21:53:12,-9.188439,-4.26401,4.5272202,0.52752,0.20514667,0.30649891,11.09526575,0.643664581,crawl
09/07/2020, 21:53:12,-9.568898,-4.3764725,4.642076,0.52752,0.20514667,0.30649891,11.50070406,0.643664581,crawl
09/07/2020, 21:53:13,-8.999406,-3.845266,3.900301,-0.8266923,0.5910178,1.6167512,10.53507119,1.909609011,crawl
09/07/2020, 21:53:13,-8.9013,-3.7734814,3.9481573,-0.8266923,0.5910178,1.6167512,10.4431919,1.909609011,crawl
09/07/2020, 21:53:13,-8.9013,-3.7734814,3.9481573,-0.7851745,0.57148004,1.5947711,10.4431919,1.867185963,crawl
09/07/2020, 21:53:13,-8.788837,-3.696911,3.9888353,-0.7851745,0.57148004,1.5947711,10.33545463,1.867185963,crawl
09/07/2020, 21:53:13,-8.788837,-3.696911,3.9888353,-0.7619734,0.5470578,1.57157,10.33545463,1.830220769,crawl
09/07/2020, 21:53:13,-8.673982,-3.65384,4.046263,-0.7619734,0.5470578,1.57157,10.24503544,1.830220769,crawl
09/07/2020, 21:53:13,-8.673982,-3.65384,4.046263,-0.7448778,0.5226356,1.5410423,10.24503544,1.789637495,crawl
09/07/2020, 21:53:13,-8.532805,-3.656233,4.106084,-0.7448778,0.5226356,1.5410423,10.15070115,1.789637495,crawl
09/07/2020, 21:53:13,-8.532805,-3.656233,4.106084,-0.7302245,0.5043189,1.504409,10.15070115,1.746657281,crawl
09/07/2020, 21:53:13,-8.384451,-3.6466618,4.1874394,-0.7302245,0.5043189,1.504409,10.05643118,1.746657281,crawl
09/07/2020, 21:53:13,-8.384451,-3.6466618,4.1874394,-0.7228978,0.49577114,1.4677756,10.05643118,1.709600964,crawl
09/07/2020, 21:53:13,-8.216953,-3.656233,4.2281175,-0.7228978,0.49577114,1.4677756,9.93797458,1.709600964,crawl
09/07/2020, 21:53:13,-8.216953,-3.656233,4.2281175,-0.7082445,0.48356003,1.4287001,9.93797458,1.666320653,crawl
09/07/2020, 21:53:13,-8.063812,-3.6514473,4.26401,-0.7082445,0.48356003,1.4287001,9.82547283,1.666320653,crawl
09/07/2020, 21:53:13,-8.063812,-3.6514473,4.26401,-0.6752745,0.47745445,1.3835189,9.82547283,1.611857015,crawl
09/07/2020, 21:53:13,-7.920243,-3.6586258,4.287938,-0.6752745,0.47745445,1.3835189,9.721224313,1.611857015,crawl
09/07/2020, 21:53:13,-7.920243,-3.6586258,4.287938,-0.61666113,0.46646446,1.3322322,9.721224313,1.540358003,crawl
09/07/2020, 21:53:13,-7.752745,-3.723232,4.2831526,-0.61666113,0.46646446,1.3322322,9.60796077,1.540358003,crawl
09/07/2020, 21:53:13,-7.752745,-3.723232,4.2831526,-0.5372889,0.45059,1.2760612,9.60796077,1.456036695,crawl
09/07/2020, 21:53:13,-7.594819,-3.8069808,4.2568316,-0.5372889,0.45059,1.2760612,9.502367891,1.456036695,crawl
09/07/2020, 21:53:14,-6.7381887,-3.3092737,3.897908,-0.47623336,1.0245123,1.5886656,8.458614937,1.949431213,crawl
09/07/2020, 21:53:14,-7.7072816,-3.6251264,3.8811584,-0.47623336,1.0245123,1.5886656,9.359867563,1.949431213,crawl
09/07/2020, 21:53:14,-7.7072816,-3.6251264,3.8811584,-0.14897557,1.0843467,1.6582689,9.359867563,1.986921544,crawl
09/07/2020, 21:53:14,-8.829515,-3.9984066,3.8548372,-0.14897557,1.0843467,1.6582689,10.43107706,1.986921544,crawl
09/07/2020, 21:53:14,-8.829515,-3.9984066,3.8548372,0.12089001,1.0794623,1.7693901,10.43107706,2.076197143,crawl
09/07/2020, 21:53:14,-9.937392,-4.328616,3.7615173,0.12089001,1.0794623,1.7693901,11.47334713,2.076197143,crawl
09/07/2020, 21:53:14,-9.937392,-4.328616,3.7615173,0.33336335,0.9952056,1.8902801,11.47334713,2.16211106,crawl
09/07/2020, 21:53:14,-10.8969145,-4.5798626,3.534199,0.33336335,0.9952056,1.8902801,12.33727884,2.16211106,crawl
09/07/2020, 21:53:14,-10.8969145,-4.5798626,3.534199,0.47501224,0.82791334,1.9891901,12.33727884,2.206344125,crawl
09/07/2020, 21:53:14,-11.648261,-4.709075,3.2063823,0.47501224,0.82791334,1.9891901,12.96681381,2.206344125,crawl
09/07/2020, 21:53:14,-11.648261,-4.709075,3.2063823,0.5372889,0.6020078,2.0514667,12.96681381,2.20445195,crawl
09/07/2020, 21:53:14,-11.968899,-4.6492543,2.8402805,0.5372889,0.6020078,2.0514667,13.15056262,2.20445195,crawl
09/07/2020, 21:53:14,-11.968899,-4.6492543,2.8402805,0.50676113,0.36877558,2.1003113,13.15056262,2.191827945,crawl
09/07/2020, 21:53:14,-11.952149,-4.438686,2.5004997,0.50676113,0.36877558,2.1003113,12.99262508,2.191827945,crawl
09/07/2020, 21:53:14,-11.952149,-4.438686,2.5004997,0.36389112,0.15019667,2.1430502,12.99262508,2.178907966,crawl
09/07/2020, 21:53:14,-11.526227,-4.007978,2.225325,0.36389112,0.15019667,2.1430502,12.40442937,2.178907966,crawl
09/07/2020, 21:53:14,-11.526227,-4.007978,2.225325,0.14287001,-0.03052778,2.1699145,12.40442937,2.17482704,crawl
09/07/2020, 21:53:14,-10.820344,-3.4648073,2.0315065,0.14287001,-0.03052778,2.1699145,11.54173955,2.17482704,crawl
09/07/2020, 21:53:14,-10.820344,-3.4648073,2.0315065,-0.16973445,-0.16485001,2.1589246,11.54173955,2.171851894,crawl
09/07/2020, 21:53:14,-9.97807,-2.952743,1.9142581,-0.16973445,-0.16485001,2.1589246,10.58040461,2.171851894,crawl
09/07/2020, 21:53:15,-8.99462,-2.6751757,1.3016955,-0.30161446,-1.3358957,-1.5215045,9.473867779,2.047086833,crawl
09/07/2020, 21:53:15,-8.82473,-2.713461,1.2993027,-0.30161446,-1.3358957,-1.5215045,9.323460507,2.047086833,crawl
09/07/2020, 21:53:15,-8.82473,-2.713461,1.2993027,-0.3858711,-1.3212423,-1.4470167,9.323460507,1.997106705,crawl
09/07/2020, 21:53:15,-8.60459,-2.7110682,1.308874,-0.3858711,-1.3212423,-1.4470167,9.116030821,1.997106705,crawl
09/07/2020, 21:53:15,-8.60459,-2.7110682,1.308874,-0.47745445,-1.29682,-1.3725289,9.116030821,1.947701362,crawl
09/07/2020, 21:53:15,-8.365308,-2.7038896,1.2969099,-0.47745445,-1.29682,-1.3725289,8.886583657,1.947701362,crawl
09/07/2020, 21:53:15,-8.365308,-2.7038896,1.2969099,-0.57270116,-1.2553023,-1.29682,8.886583657,1.893545017,crawl
09/07/2020, 21:53:15,-8.133204,-2.696711,1.2490535,-0.57270116,-1.2553023,-1.29682,8.659180096,1.893545017,crawl
09/07/2020, 21:53:15,-8.133204,-2.696711,1.2490535,-0.66428447,-1.2089001,-1.2186689,8.659180096,1.840616003,crawl
09/07/2020, 21:53:15,-7.9298143,-2.6775684,1.1772687,-0.66428447,-1.2089001,-1.2186689,8.452058321,1.840616003,crawl
09/07/2020, 21:53:15,-7.9298143,-2.6775684,1.1772687,-0.74976224,-1.1588345,-1.1356333,8.452058321,1.787373441,crawl
09/07/2020, 21:53:15,-7.728817,-2.6344976,1.1150553,-0.74976224,-1.1588345,-1.1356333,8.241270424,1.787373441,crawl
09/07/2020, 21:53:15,-7.728817,-2.6344976,1.1150553,-0.8315767,-1.1014422,-1.06603,8.241270424,1.743879236,crawl
09/07/2020, 21:53:15,-7.570891,-2.5986054,1.0767702,-0.8315767,-1.1014422,-1.06603,8.076544626,1.743879236,crawl
09/07/2020, 21:53:15,-7.570891,-2.5986054,1.0767702,-0.90118,-1.0477134,-0.9976478,8.076544626,1.704444187,crawl
09/07/2020, 21:53:15,-7.432107,-2.5603201,1.0145568,-0.90118,-1.0477134,-0.9976478,7.925956011,1.704444187,crawl
09/07/2020, 21:53:15,-7.432107,-2.5603201,1.0145568,-0.9610145,-0.9927634,-0.93415004,7.925956011,1.66786221,crawl
09/07/2020, 21:53:15,-7.2789664,-2.536392,1.0193424,-0.9610145,-0.9927634,-0.93415004,7.775326068,1.66786221,crawl
09/07/2020, 21:53:15,-7.2789664,-2.536392,1.0193424,-1.0123012,-0.93415004,-0.8730945,7.775326068,1.630853775,crawl
09/07/2020, 21:53:15,-7.099505,-2.5339992,1.0432707,-1.0123012,-0.93415004,-0.8730945,7.610028662,1.630853775,crawl
09/07/2020, 21:53:16,-11.609976,-3.940979,1.8305093,2.8427467,-0.7631945,-0.27475002,12.39651638,2.956207439,crawl
09/07/2020, 21:53:16,-11.609976,-3.940979,1.8305093,2.7523847,-0.88408446,-0.25277,12.39651638,2.901916495,crawl
09/07/2020, 21:53:16,-11.456835,-3.5988052,1.8376877,2.7523847,-0.88408446,-0.25277,12.14856199,2.901916495,crawl
09/07/2020, 21:53:16,-11.456835,-3.5988052,1.8376877,2.5667756,-0.9866578,-0.24055889,12.14856199,2.760380222,crawl
09/07/2020, 21:53:16,-11.255837,-3.182454,1.7898313,2.5667756,-0.9866578,-0.24055889,11.8332323,2.760380222,crawl
09/07/2020, 21:53:16,-11.255837,-3.182454,1.7898313,2.2773724,-1.0684723,-0.22712667,11.8332323,2.525795791,crawl
09/07/2020, 21:53:16,-11.02852,-2.7014968,1.6007984,2.2773724,-1.0684723,-0.22712667,11.46686033,2.525795791,crawl
09/07/2020, 21:53:16,-11.02852,-2.7014968,1.6007984,1.8976067,-1.1563922,-0.22468445,11.46686033,2.23352577,crawl
09/07/2020, 21:53:16,-10.782059,-2.2636101,1.3878372,1.8976067,-1.1563922,-0.22468445,11.10417998,2.23352577,crawl
09/07/2020, 21:53:16,-10.782059,-2.2636101,1.3878372,1.4433534,-1.2638501,-0.24422224,11.10417998,1.93396759,crawl
09/07/2020, 21:53:16,-10.523634,-1.8376877,1.119841,1.4433534,-1.2638501,-0.24422224,10.74141572,1.93396759,crawl
09/07/2020, 21:53:16,-10.523634,-1.8376877,1.119841,0.9329289,-1.3798556,-0.2759711,10.74141572,1.688347711,crawl
09/07/2020, 21:53:16,-10.260424,-1.4452649,0.8877372,0.9329289,-1.3798556,-0.2759711,10.39967123,1.688347711,crawl
09/07/2020, 21:53:16,-10.260424,-1.4452649,0.8877372,0.4041878,-1.4482379,-0.31504667,10.39967123,1.536234091,crawl
09/07/2020, 21:53:16,-10.100104,-1.1174482,0.7393822,0.4041878,-1.4482379,-0.31504667,10.18859578,1.536234091,crawl
09/07/2020, 21:53:16,-10.100104,-1.1174482,0.7393822,-0.12455334,-1.4702178,-0.35656446,10.18859578,1.517956587,crawl
09/07/2020, 21:53:16,-10.0163555,-0.8542377,0.68195444,-0.12455334,-1.4702178,-0.35656446,10.07582064,1.517956587,crawl
09/07/2020, 21:53:16,-10.0163555,-0.8542377,0.68195444,-0.63986224,-1.4860923,-0.41273558,10.07582064,1.669803808,crawl
09/07/2020, 21:53:16,-10.001999,-0.6891329,0.66759753,-0.63986224,-1.4860923,-0.41273558,10.04791385,1.669803808,crawl
09/07/2020, 21:53:16,-10.001999,-0.6891329,0.66759753,-1.1124322,-1.559359,-0.50554,10.04791385,1.981079641,crawl
09/07/2020, 21:53:17,-14.959928,-5.1158547,2.4382863,-0.42006224,-2.9294457,-1.57157,15.99739486,3.3508114,crawl
09/07/2020, 21:53:17,-14.244473,-4.4458647,2.1415763,-0.42006224,-2.9294457,-1.57157,15.07504845,3.3508114,crawl
09/07/2020, 21:53:17,-14.244473,-4.4458647,2.1415763,-0.3614489,-2.8903701,-1.5447056,15.07504845,3.297119999,crawl
09/07/2020, 21:53:17,-13.416556,-3.6873398,1.6749759,-0.3614489,-2.8903701,-1.5447056,14.01449262,3.297119999,crawl
09/07/2020, 21:53:17,-13.416556,-3.6873398,1.6749759,-0.3504589,-2.8574002,-1.5324945,14.01449262,3.261302922,crawl
09/07/2020, 21:53:17,-12.535997,-2.8833513,1.2251252,-0.3504589,-2.8574002,-1.5324945,12.92152766,3.261302922,crawl
09/07/2020, 21:53:17,-12.535997,-2.8833513,1.2251252,-0.3944189,-2.823209,-1.5288311,12.92152766,3.234717947,crawl
09/07/2020, 21:53:17,-11.676974,-2.091327,0.8350951,-0.3944189,-2.823209,-1.5288311,11.89213021,3.234717947,crawl
09/07/2020, 21:53:17,-11.676974,-2.091327,0.8350951,-0.5226356,-2.7743645,-1.5349368,11.89213021,3.213452521,crawl
09/07/2020, 21:53:17,-10.801202,-1.3950156,0.4642076,-0.5226356,-2.7743645,-1.5349368,10.90080355,3.213452521,crawl
09/07/2020, 21:53:17,-10.801202,-1.3950156,0.4642076,-0.75098336,-2.7157512,-1.5471479,10.90080355,3.214490155,crawl
09/07/2020, 21:53:17,-9.956535,-0.7920243,0.09810573,-0.75098336,-2.7157512,-1.5471479,9.988469513,3.214490155,crawl
09/07/2020, 21:53:17,-9.956535,-0.7920243,0.09810573,-1.0599245,-2.6400423,-1.5495901,9.988469513,3.239520457,crawl
09/07/2020, 21:53:17,-9.150154,-0.3684947,-0.05742774,-1.0599245,-2.6400423,-1.5495901,9.157751175,3.239520457,crawl
09/07/2020, 21:53:17,-9.150154,-0.3684947,-0.05742774,-1.4018356,-2.5130467,-1.5324945,9.157751175,3.260227967,crawl
09/07/2020, 21:53:17,-8.472985,-0.16510476,-0.078963146,-1.4018356,-2.5130467,-1.5324945,8.474961599,3.260227967,crawl
09/07/2020, 21:53:17,-8.472985,-0.16510476,-0.078963146,-1.7156612,-2.339649,-1.4836501,8.474961599,3.258629788,crawl
09/07/2020, 21:53:17,-7.941778,-0.14356937,-0.002392823,-1.7156612,-2.339649,-1.4836501,7.943076142,3.258629788,crawl
09/07/2020, 21:53:17,-7.941778,-0.14356937,-0.002392823,-1.9513357,-2.1430502,-1.4116045,7.943076142,3.223817978,crawl
09/07/2020, 21:53:17,-7.62114,-0.29910284,0.086141616,-1.9513357,-2.1430502,-1.4116045,7.627493549,3.223817978,crawl
09/07/2020, 21:53:18,-8.078169,-2.0051854,2.9096723,0.27475002,-0.10379445,-3.8086457,8.817242953,3.819953288,crawl
09/07/2020, 21:53:18,-8.535198,-2.2995026,3.0269206,0.27475002,-0.10379445,-3.8086457,9.343423828,3.819953288,crawl
09/07/2020, 21:53:18,-8.535198,-2.2995026,3.0269206,0.16118668,-0.02198,-3.9209878,9.343423828,3.924361087,crawl
09/07/2020, 21:53:18,-9.111869,-2.7589245,3.1657043,0.16118668,-0.02198,-3.9209878,10.0329209,3.924361087,crawl
09/07/2020, 21:53:18,-9.111869,-2.7589245,3.1657043,0.14653334,0.04151778,-3.98937,10.0329209,3.992276243,crawl
09/07/2020, 21:53:18,-9.79143,-3.3284163,3.3379877,0.14653334,0.04151778,-3.98937,10.86704319,3.992276243,crawl
09/07/2020, 21:53:18,-9.79143,-3.3284163,3.3379877,0.26864445,0.11844778,-3.999139,10.86704319,4.009901872,crawl
09/07/2020, 21:53:18,-10.514063,-4.074977,3.5318062,0.26864445,0.11844778,-3.999139,11.81628581,4.009901872,crawl
09/07/2020, 21:53:18,-10.514063,-4.074977,3.5318062,0.54461557,0.21491556,-3.955179,11.81628581,3.998279073,crawl
09/07/2020, 21:53:18,-11.29173,-4.9316072,3.711268,0.54461557,0.21491556,-3.955179,12.86846629,3.998279073,crawl
09/07/2020, 21:53:18,-11.29173,-4.9316072,3.711268,0.9817734,0.30039334,-3.8684802,12.86846629,4.002406054,crawl
09/07/2020, 21:53:18,-12.136396,-5.749953,3.830909,0.9817734,0.30039334,-3.8684802,13.96531198,4.002406054,crawl
09/07/2020, 21:53:18,-12.136396,-5.749953,3.830909,1.5349368,0.35656446,-3.7329369,13.96531198,4.051911493,crawl
09/07/2020, 21:53:18,-12.94517,-6.424729,3.751946,1.5349368,0.35656446,-3.7329369,14.9308967,4.051911493,crawl
09/07/2020, 21:53:18,-12.94517,-6.424729,3.751946,2.1149645,0.34191114,-3.5851824,14.9308967,4.176542954,crawl
09/07/2020, 21:53:18,-13.643875,-6.719046,3.455236,2.1149645,0.34191114,-3.5851824,15.59613941,4.176542954,crawl
09/07/2020, 21:53:18,-13.643875,-6.719046,3.455236,2.6205046,0.22224224,-3.4349856,15.59613941,4.326148679,crawl
09/07/2020, 21:53:18,-14.160725,-6.6185474,3.1633115,2.6205046,0.22224224,-3.4349856,15.94797266,4.326148679,crawl
09/07/2020, 21:53:18,-14.160725,-6.6185474,3.1633115,3.008818,0.048844445,-3.283568,15.94797266,4.453895957,crawl
09/07/2020, 21:53:18,-14.404793,-6.3122663,2.928815,3.008818,0.048844445,-3.283568,15.99752226,4.453895957,crawl
09/07/2020, 21:53:19,-9.942178,-0.64606214,2.2061825,-0.018316668,1.1392968,0.9597934,10.20448609,1.489810719,crawl
09/07/2020, 21:53:19,-9.942178,-0.64606214,2.2061825,-0.41884112,1.0819045,0.8364611,10.20448609,1.43024911,crawl
09/07/2020, 21:53:19,-9.853643,-0.3684947,2.0578275,-0.41884112,1.0819045,0.8364611,10.07297031,1.43024911,crawl
09/07/2020, 21:53:19,-9.853643,-0.3684947,2.0578275,-0.8486723,1.0232911,0.73999333,10.07297031,1.521499082,crawl
09/07/2020, 21:53:19,-9.829716,-0.2440679,2.0291135,-0.8486723,1.0232911,0.73999333,10.03992939,1.521499082,crawl
09/07/2020, 21:53:19,-9.829716,-0.2440679,2.0291135,-1.2809457,0.9536878,0.6691689,10.03992939,1.731510664,crawl
09/07/2020, 21:53:19,-9.860822,-0.3278167,2.1224337,-1.2809457,0.9536878,0.6691689,10.09197669,1.731510664,crawl
09/07/2020, 21:53:19,-9.860822,-0.3278167,2.1224337,-1.7034501,0.8816423,0.6435256,10.09197669,2.023156074,crawl
09/07/2020, 21:53:19,-9.882358,-0.567099,2.2707887,-1.7034501,0.8816423,0.6435256,10.15574094,2.023156074,crawl
09/07/2020, 21:53:19,-9.882358,-0.567099,2.2707887,-2.0929844,0.7986067,0.6618422,10.15574094,2.335892044,crawl
09/07/2020, 21:53:19,-9.925428,-0.9236295,2.524428,-2.0929844,0.7986067,0.6618422,10.28299355,2.335892044,crawl
09/07/2020, 21:53:19,-9.925428,-0.9236295,2.524428,-2.4361167,0.6899278,0.7204556,10.28299355,2.632436362,crawl
09/07/2020, 21:53:19,-9.8727865,-1.3423735,2.8570302,-2.4361167,0.6899278,0.7204556,10.36515806,2.632436362,crawl
09/07/2020, 21:53:19,-9.8727865,-1.3423735,2.8570302,-2.7096457,0.57636446,0.79616445,10.36515806,2.882404188,crawl
09/07/2020, 21:53:19,-9.671789,-1.820938,3.3116665,-2.7096457,0.57636446,0.79616445,10.38395184,2.882404188,crawl
09/07/2020, 21:53:19,-9.671789,-1.820938,3.3116665,-2.9086869,0.45425335,0.88042116,10.38395184,3.072775109,crawl
09/07/2020, 21:53:19,-9.339187,-2.3353949,3.739982,-2.9086869,0.45425335,0.88042116,10.32772682,3.072775109,crawl
09/07/2020, 21:53:19,-9.339187,-2.3353949,3.739982,-3.0442302,0.3602278,0.9683412,10.32772682,3.21477625,crawl
09/07/2020, 21:53:19,-8.9013,-2.914458,4.1371903,-3.0442302,0.3602278,0.9683412,10.23931438,3.21477625,crawl
09/07/2020, 21:53:19,-8.9013,-2.914458,4.1371903,-3.1004012,0.28085557,1.0623667,10.23931438,3.289375363,crawl
09/07/2020, 21:53:20,-13.093526,-4.273581,1.4380864,-0.8083756,0.2942878,2.3555233,13.84817704,2.507701469,crawl
09/07/2020, 21:53:20,-12.452249,-4.412365,1.8448663,-0.8083756,0.2942878,2.3555233,13.33907758,2.507701469,crawl
09/07/2020, 21:53:20,-12.452249,-4.412365,1.8448663,-0.73633003,0.22102112,2.4019256,13.33907758,2.521959291,crawl
09/07/2020, 21:53:20,-11.475977,-4.5296135,2.4215364,-0.73633003,0.22102112,2.4019256,12.57295844,2.521959291,crawl
09/07/2020, 21:53:20,-11.475977,-4.5296135,2.4215364,-0.6764956,0.27963445,2.4300113,12.57295844,2.53787244,crawl
09/07/2020, 21:53:20,-10.449456,-4.5415773,2.9120653,-0.6764956,0.27963445,2.4300113,11.75998231,2.53787244,crawl
09/07/2020, 21:53:20,-10.449456,-4.5415773,2.9120653,-0.6142189,0.40540892,2.426348,11.75998231,2.535505021,crawl
09/07/2020, 21:53:20,-9.592826,-4.426722,3.211168,-0.6142189,0.40540892,2.426348,11.04218171,2.535505021,crawl
09/07/2020, 21:53:20,-9.592826,-4.426722,3.211168,-0.53973114,0.53851,2.3677344,11.04218171,2.487462381,crawl
09/07/2020, 21:53:20,-8.927621,-4.2352962,3.3164523,-0.53973114,0.53851,2.3677344,10.42300363,2.487462381,crawl
09/07/2020, 21:53:20,-8.927621,-4.2352962,3.3164523,-0.46402225,0.7021389,2.2688246,10.42300363,2.419892693,crawl
09/07/2020, 21:53:20,-8.559127,-3.95055,3.2327034,-0.46402225,0.7021389,2.2688246,9.965734795,2.419892693,crawl
09/07/2020, 21:53:20,-8.559127,-3.95055,3.2327034,-0.40785113,0.8853056,2.1613667,9.965734795,2.370994419,crawl
09/07/2020, 21:53:20,-8.559127,-3.6658044,3.0580273,-0.40785113,0.8853056,2.1613667,9.800423719,2.370994419,crawl
09/07/2020, 21:53:20,-8.559127,-3.6658044,3.0580273,-0.37854445,1.0513767,2.0600145,9.800423719,2.343576018,crawl
09/07/2020, 21:53:20,-8.9108715,-3.4025939,2.8761728,-0.37854445,1.0513767,2.0600145,9.962612397,2.343576018,crawl
09/07/2020, 21:53:20,-8.9108715,-3.4025939,2.8761728,-0.36877558,1.1698245,1.9696523,9.962612397,2.320348014,crawl
09/07/2020, 21:53:20,-9.554541,-3.2470603,2.7158537,-0.36877558,1.1698245,1.9696523,10.45028749,2.320348014,crawl
09/07/2020, 21:53:20,-9.554541,-3.2470603,2.7158537,-0.3382478,1.2003523,1.8805112,10.45028749,2.256452856,crawl
09/07/2020, 21:53:20,-10.375279,-3.2805598,2.6225336,-0.3382478,1.2003523,1.8805112,11.19313084,2.256452856,crawl
09/07/2020, 21:53:21,-13.304094,-4.8191447,-0.1052842,-2.4861822,-1.6680379,3.5619812,14.15041223,4.653080966,crawl
09/07/2020, 21:53:21,-13.304094,-4.8191447,-0.1052842,-2.5350268,-1.8048023,3.6096046,14.15041223,4.76580712,crawl
09/07/2020, 21:53:21,-12.421143,-4.800002,-0.014356935,-2.5350268,-1.8048023,3.6096046,13.31634369,4.76580712,crawl
09/07/2020, 21:53:21,-12.421143,-4.800002,-0.014356935,-2.636379,-1.8133501,3.6486802,13.31634369,4.852999077,crawl
09/07/2020, 21:53:21,-11.466406,-4.6468616,0.13878371,-2.636379,-1.8133501,3.6486802,12.37299668,4.852999077,crawl
09/07/2020, 21:53:21,-11.466406,-4.6468616,0.13878371,-2.8073347,-1.7107767,3.6755445,12.37299668,4.931278957,crawl
09/07/2020, 21:53:21,-10.63849,-4.4004006,0.16271193,-2.8073347,-1.7107767,3.6755445,11.51379453,4.931278957,crawl
09/07/2020, 21:53:21,-10.63849,-4.4004006,0.16271193,-3.0014913,-1.5630223,3.6743236,11.51379453,4.995261981,crawl
09/07/2020, 21:53:21,-10.001999,-4.115655,0.12203395,-3.0014913,-1.5630223,3.6743236,10.81635289,4.995261981,crawl
09/07/2020, 21:53:21,-10.001999,-4.115655,0.12203395,-3.1907635,-1.4225945,3.6401324,10.81635289,5.045325646,crawl
09/07/2020, 21:53:21,-9.662218,-3.871587,0.059820566,-3.1907635,-1.4225945,3.6401324,10.40918936,5.045325646,crawl
09/07/2020, 21:53:21,-9.662218,-3.871587,0.059820566,-3.3531713,-1.3163579,3.580298,10.40918936,5.078886637,crawl
09/07/2020, 21:53:21,-9.523434,-3.7184465,0.023928227,-3.3531713,-1.3163579,3.580298,10.22365913,5.078886637,crawl
09/07/2020, 21:53:21,-9.523434,-3.7184465,0.023928227,-3.4691768,-1.2259957,3.5143578,10.22365913,5.088119849,crawl
09/07/2020, 21:53:21,-9.501899,-3.6897326,0.0741775,-3.4691768,-1.2259957,3.5143578,10.19341497,5.088119849,crawl
09/07/2020, 21:53:21,-9.501899,-3.6897326,0.0741775,-3.525348,-1.1417389,3.4642923,10.19341497,5.072767184,crawl
09/07/2020, 21:53:21,-9.561719,-3.802195,0.23688944,-3.525348,-1.1417389,3.4642923,10.29268056,5.072767184,crawl
09/07/2020, 21:53:21,-9.561719,-3.802195,0.23688944,-3.5302324,-1.0416079,3.4349856,10.29268056,5.034542111,crawl
09/07/2020, 21:53:21,-9.662218,-4.0701914,0.4881358,-3.5302324,-1.0416079,3.4349856,10.49586552,5.034542111,crawl
09/07/2020, 21:53:21,-9.662218,-4.0701914,0.4881358,-3.4716191,-0.92316,3.4142268,10.49586552,4.955936666,crawl
09/07/2020, 21:53:22,-8.492127,-2.2875385,3.696911,0.28818223,-0.2515489,-1.2137845,9.54024173,1.27263449,crawl
09/07/2020, 21:53:22,-8.492127,-2.2875385,3.696911,0.24300112,-0.24178001,-1.1026634,9.54024173,1.154718012,crawl
09/07/2020, 21:53:22,-8.5016985,-2.2061825,3.67059,0.24300112,-0.24178001,-1.1026634,9.519419562,1.154718012,crawl
09/07/2020, 21:53:22,-8.5016985,-2.2061825,3.67059,0.18805112,-0.2283478,-0.9952056,9.519419562,1.038238935,crawl
09/07/2020, 21:53:22,-8.516056,-2.172683,3.6083765,0.18805112,-0.2283478,-0.9952056,9.500744352,1.038238935,crawl
09/07/2020, 21:53:22,-8.516056,-2.172683,3.6083765,0.14409111,-0.24422224,-0.8987378,9.500744352,0.94240987,crawl
09/07/2020, 21:53:22,-8.556734,-2.1822543,3.5030923,0.14409111,-0.24422224,-0.8987378,9.500083562,0.94240987,crawl
09/07/2020, 21:53:22,-8.556734,-2.1822543,3.5030923,0.117226675,-0.26620224,-0.81081784,9.500083562,0.861412382,crawl
09/07/2020, 21:53:22,-8.477771,-2.201397,3.4408789,0.117226675,-0.26620224,-0.81081784,9.41054694,0.861412382,crawl
09/07/2020, 21:53:22,-8.477771,-2.201397,3.4408789,0.102573335,-0.27963445,-0.7216767,9.41054694,0.780726573,crawl
09/07/2020, 21:53:22,-8.370093,-2.2755744,3.4049866,0.102573335,-0.27963445,-0.7216767,9.318295743,0.780726573,crawl
09/07/2020, 21:53:22,-8.370093,-2.2755744,3.4049866,0.102573335,-0.2759711,-0.63131446,9.318295743,0.696591192,crawl
09/07/2020, 21:53:22,-8.240881,-2.292324,3.37388,0.102573335,-0.2759711,-0.63131446,9.195103826,0.696591192,crawl
09/07/2020, 21:53:22,-8.240881,-2.292324,3.37388,0.09524667,-0.25643334,-0.54950005,9.195103826,0.613824314,crawl
09/07/2020, 21:53:22,-8.099705,-2.28036,3.35713,0.09524667,-0.25643334,-0.54950005,9.059557425,0.613824314,crawl
09/07/2020, 21:53:22,-8.099705,-2.28036,3.35713,0.085477784,-0.23079,-0.47257003,9.059557425,0.532816021,crawl
09/07/2020, 21:53:22,-7.9944205,-2.3138595,3.3690944,0.085477784,-0.23079,-0.47257003,8.978613595,0.532816021,crawl
09/07/2020, 21:53:22,-7.9944205,-2.3138595,3.3690944,0.06227667,-0.20392556,-0.3944189,8.978613595,0.448364009,crawl
09/07/2020, 21:53:22,-7.9226356,-2.3186452,3.3714871,0.06227667,-0.20392556,-0.3944189,8.916905036,0.448364009,crawl
09/07/2020, 21:53:22,-7.9226356,-2.3186452,3.3714871,0.028085556,-0.18316667,-0.30894113,8.916905036,0.360254696,crawl
09/07/2020, 21:53:23,-9.480363,-3.6490545,2.1296122,0.33458444,-0.23567446,-1.3444434,10.37921614,1.40535311,crawl
09/07/2020, 21:53:23,-9.396614,-3.7016966,2.105684,0.33458444,-0.23567446,-1.3444434,10.31662829,1.40535311,crawl
09/07/2020, 21:53:23,-9.396614,-3.7016966,2.105684,0.3394689,-0.23933779,-1.3065889,10.31662829,1.371020142,crawl
09/07/2020, 21:53:23,-9.250652,-3.6849468,2.1224337,0.3394689,-0.23933779,-1.3065889,10.18126346,1.371020142,crawl
09/07/2020, 21:53:23,-9.250652,-3.6849468,2.1224337,0.39197668,-0.22712667,-1.2601867,10.18126346,1.339142522,crawl
09/07/2020, 21:53:23,-9.109476,-3.6466618,2.1176481,0.39197668,-0.22712667,-1.2601867,10.03818361,1.339142522,crawl
09/07/2020, 21:53:23,-9.109476,-3.6466618,2.1176481,0.4383789,-0.20881,-1.2284378,10.03818361,1.320922806,crawl
09/07/2020, 21:53:23,-8.985049,-3.6801612,2.062613,0.4383789,-0.20881,-1.2284378,9.926180995,1.320922806,crawl
09/07/2020, 21:53:23,-8.985049,-3.6801612,2.062613,0.44082114,-0.19782001,-1.2040156,9.926180995,1.297347151,crawl
09/07/2020, 21:53:23,-8.865408,-3.656233,2.0482562,0.44082114,-0.19782001,-1.2040156,9.806061981,1.297347151,crawl
09/07/2020, 21:53:23,-8.865408,-3.656233,2.0482562,0.41273558,-0.19171445,-1.1722667,9.806061981,1.257503224,crawl
09/07/2020, 21:53:23,-8.7984085,-3.6323047,2.0673988,0.41273558,-0.19171445,-1.1722667,9.740624581,1.257503224,crawl
09/07/2020, 21:53:23,-8.7984085,-3.6323047,2.0673988,0.37976557,-0.18927222,-1.1222012,9.740624581,1.199742225,crawl
09/07/2020, 21:53:23,-8.788837,-3.5006995,2.0817556,0.37976557,-0.18927222,-1.1222012,9.686705688,1.199742225,crawl
09/07/2020, 21:53:23,-8.788837,-3.5006995,2.0817556,0.3602278,-0.20026223,-1.0562612,9.686705688,1.133823932,crawl
09/07/2020, 21:53:23,-8.776874,-3.2853456,2.024328,0.3602278,-0.20026223,-1.0562612,9.58774787,1.133823932,crawl
09/07/2020, 21:53:23,-8.776874,-3.2853456,2.024328,0.30649891,-0.22346334,-1.00009,9.58774787,1.069606219,crawl
09/07/2020, 21:53:23,-8.774481,-3.1250265,1.9405792,0.30649891,-0.22346334,-1.00009,9.514365538,1.069606219,crawl
09/07/2020, 21:53:23,-8.774481,-3.1250265,1.9405792,0.16729222,-0.26498112,-0.9512456,9.514365538,1.001533766,crawl
09/07/2020, 21:53:23,-8.733803,-3.0364919,1.9286151,0.16729222,-0.26498112,-0.9512456,9.445588935,1.001533766,crawl
09/07/2020, 21:53:24,-7.7647095,-5.2689953,2.199004,-0.23323223,-0.019537779,-0.09402556,9.637875431,0.252229665,crawl
09/07/2020, 21:53:24,-7.690532,-5.1613183,2.306681,-0.23323223,-0.019537779,-0.09402556,9.544855636,0.252229665,crawl
09/07/2020, 21:53:24,-7.690532,-5.1613183,2.306681,-0.23323223,0.04151778,-0.12699556,9.544855636,0.268791503,crawl
09/07/2020, 21:53:24,-7.649854,-5.0943193,2.3545375,-0.23323223,0.04151778,-0.12699556,9.48768704,0.268791503,crawl
09/07/2020, 21:53:24,-7.649854,-5.0943193,2.3545375,-0.25887558,0.09402556,-0.1526389,9.48768704,0.314890464,crawl
09/07/2020, 21:53:24,-7.6259255,-5.15414,2.361716,-0.25887558,0.09402556,-0.1526389,9.502505042,0.314890464,crawl
09/07/2020, 21:53:24,-7.6259255,-5.15414,2.361716,-0.21980001,0.14042778,-0.14409111,9.502505042,0.297983651,crawl
09/07/2020, 21:53:24,-7.618747,-5.3407803,2.292324,-0.21980001,0.14042778,-0.14409111,9.582483645,0.297983651,crawl
09/07/2020, 21:53:24,-7.618747,-5.3407803,2.292324,-0.09768889,0.18072446,-0.12089001,9.582483645,0.238367033,crawl
09/07/2020, 21:53:24,-7.62114,-5.5537415,2.2755744,-0.09768889,0.18072446,-0.12089001,9.70072462,0.238367033,crawl
09/07/2020, 21:53:24,-7.62114,-5.5537415,2.2755744,0.070824444,0.21369445,-0.10867889,9.70072462,0.249985045,crawl
09/07/2020, 21:53:24,-7.60439,-5.649454,2.2205393,0.070824444,0.21369445,-0.10867889,9.730050165,0.249985045,crawl
09/07/2020, 21:53:24,-7.60439,-5.649454,2.2205393,0.26864445,0.26009667,-0.10135223,9.730050165,0.387417596,crawl
09/07/2020, 21:53:24,-7.609176,-5.692525,2.2229323,0.26864445,0.26009667,-0.10135223,9.759397002,0.387417596,crawl
09/07/2020, 21:53:24,-7.609176,-5.692525,2.2229323,0.45547447,0.32970002,-0.091583334,9.759397002,0.569689917,crawl
09/07/2020, 21:53:24,-7.6977105,-5.6781683,2.1774685,0.45547447,0.32970002,-0.091583334,9.81008214,0.569689917,crawl
09/07/2020, 21:53:24,-7.6977105,-5.6781683,2.1774685,0.6117767,0.38709223,-0.07448778,9.81008214,0.727777142,crawl
09/07/2020, 21:53:24,-7.881958,-5.611169,2.0793629,0.6117767,0.38709223,-0.07448778,9.89617239,0.727777142,crawl
09/07/2020, 21:53:24,-7.881958,-5.611169,2.0793629,0.7338878,0.39930335,-0.05250778,9.89617239,0.837132917,crawl
09/07/2020, 21:53:24,-8.116454,-5.493921,2.036292,0.7338878,0.39930335,-0.05250778,10.01031861,0.837132917,crawl
09/07/2020, 21:53:25,-8.834301,-3.5796626,1.6534405,-0.2845189,-0.2503278,-0.06716111,9.674333234,0.384870918,crawl
09/07/2020, 21:53:25,-8.834301,-3.5796626,1.6534405,-0.37854445,-0.24788557,-0.036633335,9.674333234,0.453966031,crawl
09/07/2020, 21:53:25,-8.805588,-3.6466618,1.7778672,-0.37854445,-0.24788557,-0.036633335,9.695222004,0.453966031,crawl
09/07/2020, 21:53:25,-8.805588,-3.6466618,1.7778672,-0.3602278,-0.24178001,-0.007326667,9.695222004,0.433907038,crawl
09/07/2020, 21:53:25,-8.676374,-3.6681972,1.5553347,-0.3602278,-0.24178001,-0.007326667,9.547471377,0.433907038,crawl
09/07/2020, 21:53:25,-8.676374,-3.6681972,1.5553347,-0.2942878,-0.23079,0.03297,9.547471377,0.375441549,crawl
09/07/2020, 21:53:25,-8.702696,-3.5820556,1.3112668,-0.2942878,-0.23079,0.03297,9.501971251,0.375441549,crawl
09/07/2020, 21:53:25,-8.702696,-3.5820556,1.3112668,-0.27841336,-0.15630223,0.09036223,9.501971251,0.33182784,crawl
09/07/2020, 21:53:25,-9.056833,-3.5700915,1.1820544,-0.27841336,-0.15630223,0.09036223,9.806581191,0.33182784,crawl
09/07/2020, 21:53:25,-9.056833,-3.5700915,1.1820544,-0.36755446,-0.08303556,0.18072446,9.806581191,0.417914479,crawl
09/07/2020, 21:53:25,-9.80818,-3.6873398,1.3016955,-0.36755446,-0.08303556,0.18072446,10.55894303,0.417914479,crawl
09/07/2020, 21:53:25,-9.80818,-3.6873398,1.3016955,-0.4591378,-0.04029667,0.30039334,10.55894303,0.550152251,crawl
09/07/2020, 21:53:25,-10.705488,-3.9625144,1.1916257,-0.4591378,-0.04029667,0.30039334,11.47732416,0.550152251,crawl
09/07/2020, 21:53:25,-10.705488,-3.9625144,1.1916257,-0.42861003,-0.10501556,0.42250445,11.47732416,0.610937671,crawl
09/07/2020, 21:53:25,-11.4353,-4.290331,1.0863415,-0.42861003,-0.10501556,0.42250445,12.26185794,0.610937671,crawl
09/07/2020, 21:53:25,-11.4353,-4.290331,1.0863415,-0.3052778,-0.29184556,0.5421733,12.26185794,0.687255613,crawl
09/07/2020, 21:53:25,-11.691332,-4.388437,1.1557333,-0.3052778,-0.29184556,0.5421733,12.54118566,0.687255613,crawl
09/07/2020, 21:53:25,-11.691332,-4.388437,1.1557333,-0.27963445,-0.50554,0.66306335,12.54118566,0.879442511,crawl
09/07/2020, 21:53:25,-11.236695,-4.5894337,1.2251252,-0.27963445,-0.50554,0.66306335,12.19947352,0.879442511,crawl
09/07/2020, 21:53:25,-11.236695,-4.5894337,1.2251252,-1.0574822,-1.0880101,0.78761667,12.19947352,1.709495432,crawl
09/07/2020, 21:53:26,-8.719446,-4.3334017,1.0600204,-0.07693,-0.05006556,-0.16607112,9.794424699,0.189748257,crawl
09/07/2020, 21:53:26,-8.688339,-4.342973,1.0695918,-0.07693,-0.05006556,-0.16607112,9.772035697,0.189748257,crawl
09/07/2020, 21:53:26,-8.688339,-4.342973,1.0695918,-0.09280445,-0.07448778,-0.12455334,9.772035697,0.172263255,crawl
09/07/2020, 21:53:26,-8.6548395,-4.3740797,1.0767702,-0.09280445,-0.07448778,-0.12455334,9.756959277,0.172263255,crawl
09/07/2020, 21:53:26,-8.6548395,-4.3740797,1.0767702,-0.10379445,-0.08425667,-0.09036223,9.756959277,0.161362345,crawl
09/07/2020, 21:53:26,-8.647661,-4.4147577,1.0695918,-0.10379445,-0.08425667,-0.09036223,9.768119406,0.161362345,crawl
09/07/2020, 21:53:26,-8.647661,-4.4147577,1.0695918,-0.10013112,-0.089141116,-0.06105556,9.768119406,0.147309743,crawl
09/07/2020, 21:53:26,-8.662018,-4.4841495,0.9954142,-0.10013112,-0.089141116,-0.06105556,9.804539689,0.147309743,crawl
09/07/2020, 21:53:26,-8.662018,-4.4841495,0.9954142,-0.08425667,-0.11600556,-0.03052778,9.804539689,0.146589299,crawl
09/07/2020, 21:53:26,-8.705089,-4.496114,0.91166544,-0.08425667,-0.11600556,-0.03052778,9.83995634,0.146589299,crawl
09/07/2020, 21:53:26,-8.705089,-4.496114,0.91166544,-0.064718895,-0.1526389,-0.002442222,9.83995634,0.165810533,crawl
09/07/2020, 21:53:26,-8.705089,-4.5152564,0.8279166,-0.064718895,-0.1526389,-0.002442222,9.841318719,0.165810533,crawl
09/07/2020, 21:53:26,-8.705089,-4.5152564,0.8279166,-0.04396,-0.1856089,0.03297,9.841318719,0.193572116,crawl
