DATE,TIME,ax,ay,az,gx,gy,gz,ma,mg,label
23/10/2020, 15:42:07,-0.43110353,3.2404616,9.572893,0.011835015,-0.21159378,0.103395805,10.11566729,0.235802219,crawl
23/10/2020, 15:42:07,-0.4143384,3.1542408,9.596844,0.011835015,-0.21159378,0.103395805,10.11040657,0.235802219,crawl
23/10/2020, 15:42:07,-0.4143384,3.1542408,9.596844,0.003282905,-0.23480666,0.107061,10.11040657,0.258083322,crawl
23/10/2020, 15:42:07,-0.3879932,2.9530592,9.659114,0.003282905,-0.23480666,0.107061,10.10789683,0.258083322,crawl
23/10/2020, 15:42:07,-0.3879932,2.9530592,9.659114,0.025274046,-0.25924128,0.10828273,10.10789683,0.282081495,crawl
23/10/2020, 15:42:07,0.05508545,2.802173,9.735755,0.025274046,-0.25924128,0.10828273,10.13114663,0.282081495,crawl
23/10/2020, 15:42:07,0.05508545,2.802173,9.735755,-0.09201204,-0.31421912,0.1363825,10.13114663,0.354683037,crawl
23/10/2020, 15:42:07,-0.086220704,2.912344,8.464,-0.09201204,-0.31421912,0.1363825,8.951450899,0.354683037,crawl
23/10/2020, 15:42:07,-0.086220704,2.912344,8.464,-0.041921105,-0.43761384,0.1363825,8.951450899,0.460286263,crawl
23/10/2020, 15:42:07,1.5783179,3.1925611,12.293635,-0.041921105,-0.43761384,0.1363825,12.79910171,0.460286263,crawl
23/10/2020, 15:42:07,1.5783179,3.1925611,12.293635,-0.16165064,-0.10530327,0.16814749,12.79910171,0.255916564,crawl
23/10/2020, 15:42:07,-0.55803955,3.1159205,4.160149,-0.16165064,-0.10530327,0.16814749,5.227543351,0.255916564,crawl
23/10/2020, 15:42:07,-0.55803955,3.1159205,4.160149,0.057039026,-0.03810812,0.152265,5.227543351,0.167003919,crawl
23/10/2020, 15:42:07,-2.6345215,2.919529,5.654641,0.057039026,-0.03810812,0.152265,6.887620733,0.167003919,crawl
23/10/2020, 15:42:07,-2.6345215,2.919529,5.654641,0.10346477,-0.011230063,0.13393904,6.887620733,0.169619396,crawl
23/10/2020, 15:42:07,-2.7590625,3.03928,3.7194655,0.10346477,-0.011230063,0.13393904,5.539320548,0.169619396,crawl
23/10/2020, 15:42:07,-2.7590625,3.03928,3.7194655,0.28550255,-0.07598175,0.15715192,5.539320548,0.33463661,crawl
23/10/2020, 15:42:07,0.2083667,3.5182838,1.4513819,0.28550255,-0.07598175,0.15715192,3.81159381,0.33463661,crawl
23/10/2020, 15:42:07,0.2083667,3.5182838,1.4513819,-0.17386794,-0.18960264,0.18525171,3.81159381,0.317013281,crawl
23/10/2020, 15:42:07,3.6140847,3.180586,9.08431,-0.17386794,-0.18960264,0.18525171,10.28116807,0.317013281,crawl
23/10/2020, 15:42:07,3.6140847,3.180586,9.08431,0.020387124,-0.550013,0.17792132,10.28116807,0.57843404,crawl
23/10/2020, 15:42:07,0.32332766,2.5243506,18.532661,0.020387124,-0.550013,0.17792132,18.70658779,0.57843404,crawl
23/10/2020, 15:42:07,0.32332766,2.5243506,18.532661,0.013056746,-0.23358493,0.1400477,18.70658779,0.272664178,crawl
23/10/2020, 15:42:07,-4.2104445,1.7531544,7.917935,0.013056746,-0.23358493,0.1400477,9.137564544,0.272664178,crawl
23/10/2020, 15:42:07,-4.2104445,1.7531544,7.917935,0.0680346,-0.07476002,0.20235594,9.137564544,0.226198346,crawl
23/10/2020, 15:42:07,2.943479,3.0943654,2.1267774,0.0680346,-0.07476002,0.20235594,4.770990265,0.226198346,crawl
23/10/2020, 15:42:07,2.943479,3.0943654,2.1267774,0.30993715,-0.4889265,0.25489032,4.770990265,0.63251817,crawl
23/10/2020, 15:42:07,3.0991554,3.3697927,16.549585,0.30993715,-0.4889265,0.25489032,17.17116892,0.63251817,crawl
23/10/2020, 15:42:07,3.0991554,3.3697927,16.549585,0.21830739,-0.37408388,0.22801226,17.17116892,0.489475695,crawl
23/10/2020, 15:42:07,-3.5805542,3.1949563,11.757152,0.21830739,-0.37408388,0.22801226,12.69876877,0.489475695,crawl
23/10/2020, 15:42:08,2.6297317,-0.97956306,9.508228,0.52251816,0.15736869,-0.14705886,9.913699501,0.565169389,crawl
23/10/2020, 15:42:08,2.560276,-0.58677983,9.4507475,0.52251816,0.15736869,-0.14705886,9.808973037,0.565169389,crawl
23/10/2020, 15:42:08,2.560276,-0.58677983,9.4507475,0.4993053,0.13293408,-0.14705886,9.808973037,0.537218361,crawl
23/10/2020, 15:42:08,2.44292,-0.50774413,9.683064,0.4993053,0.13293408,-0.14705886,9.999369952,0.537218361,crawl
23/10/2020, 15:42:08,2.44292,-0.50774413,9.683064,0.48220107,0.09872565,-0.15805443,9.999369952,0.516958244,crawl
23/10/2020, 15:42:08,2.2872438,-0.7783814,9.572893,0.48220107,0.09872565,-0.15805443,9.873076782,0.516958244,crawl
23/10/2020, 15:42:08,2.2872438,-0.7783814,9.572893,0.4699838,0.08773007,-0.14828059,9.873076782,0.500568136,crawl
23/10/2020, 15:42:08,2.2872438,-0.8813672,9.632769,0.4699838,0.08773007,-0.14828059,9.939744667,0.500568136,crawl
23/10/2020, 15:42:08,2.2872438,-0.8813672,9.632769,0.48220107,0.090173535,-0.12995464,9.939744667,0.507481374,crawl
23/10/2020, 15:42:08,2.320774,-0.7232959,9.536968,0.48220107,0.090173535,-0.12995464,9.841895771,0.507481374,crawl
23/10/2020, 15:42:08,2.320774,-0.7232959,9.536968,0.48830974,0.097503915,-0.11773733,9.841895771,0.511679094,crawl
23/10/2020, 15:42:08,2.3519094,-0.55324954,9.505833,0.48830974,0.097503915,-0.11773733,9.808079204,0.511679094,crawl
23/10/2020, 15:42:08,2.3519094,-0.55324954,9.505833,0.47609243,0.10849948,-0.1042983,9.808079204,0.499313802,crawl
23/10/2020, 15:42:08,2.335144,-0.37362307,9.292676,0.47609243,0.10849948,-0.1042983,9.588864303,0.499313802,crawl
23/10/2020, 15:42:08,2.335144,-0.37362307,9.292676,0.4260015,0.124381974,-0.090859264,9.588864303,0.452993985,crawl
23/10/2020, 15:42:08,2.3064039,-0.1939966,8.959768,0.4260015,0.124381974,-0.090859264,9.253895473,0.452993985,crawl
23/10/2020, 15:42:08,2.3064039,-0.1939966,8.959768,0.34170213,0.1292689,-0.08719408,9.253895473,0.375597662,crawl
23/10/2020, 15:42:08,2.4213648,-0.17483643,8.921448,0.34170213,0.1292689,-0.08719408,9.245853407,0.375597662,crawl
23/10/2020, 15:42:08,2.4213648,-0.17483643,8.921448,0.29894158,0.1414862,-0.09330273,9.245853407,0.343641983,crawl
23/10/2020, 15:42:08,2.6393116,-0.22992188,9.0076685,0.29894158,0.1414862,-0.09330273,9.389191725,0.343641983,crawl
23/10/2020, 15:42:08,2.6393116,-0.22992188,9.0076685,0.35391942,0.1537035,-0.08597235,9.389191725,0.395316282,crawl
23/10/2020, 15:42:08,2.663262,-0.33769777,9.398057,0.35391942,0.1537035,-0.08597235,9.773969447,0.395316282,crawl
23/10/2020, 15:42:08,2.663262,-0.33769777,9.398057,0.4223363,0.17202945,-0.07375505,9.773969447,0.461954433,crawl
23/10/2020, 15:42:08,2.6249416,-0.41194338,9.529783,0.4223363,0.17202945,-0.07375505,9.893269654,0.461954433,crawl
23/10/2020, 15:42:08,2.6249416,-0.41194338,9.529783,0.55428314,0.16714253,-0.048098717,9.893269654,0.580930213,crawl
23/10/2020, 15:42:08,2.4453151,-0.44547364,10.205178,0.55428314,0.16714253,-0.048098717,10.5035078,0.580930213,crawl
23/10/2020, 15:42:08,2.4453151,-0.44547364,10.205178,0.6520215,0.17202945,-0.043211795,10.5035078,0.675716999,crawl
23/10/2020, 15:42:08,2.327959,-0.34967285,10.226734,0.6520215,0.17202945,-0.043211795,10.49417725,0.675716999,crawl
23/10/2020, 15:42:08,2.327959,-0.34967285,10.226734,0.69600385,0.16836426,-0.034659687,10.49417725,0.71691644,crawl
23/10/2020, 15:42:08,2.2297633,0.17483643,10.4566555,0.69600385,0.16836426,-0.034659687,10.69317803,0.71691644,crawl
23/10/2020, 15:42:09,2.8333082,-1.463357,9.860296,-0.07490782,0.05963028,-0.12262425,10.36313134,0.155575247,crawl
23/10/2020, 15:42:09,2.7710378,-1.5304176,9.81,-0.07490782,0.05963028,-0.12262425,10.30810054,0.155575247,crawl
23/10/2020, 15:42:09,2.7710378,-1.5304176,9.81,0.006948095,0.07062586,-0.112850405,10.30810054,0.133309796,crawl
23/10/2020, 15:42:09,2.7351124,-1.3244458,9.702225,0.006948095,0.07062586,-0.112850405,10.1670134,0.133309796,crawl
23/10/2020, 15:42:09,2.7351124,-1.3244458,9.702225,0.043599997,0.07062586,-0.11040695,10.1670134,0.138125544,crawl
23/10/2020, 15:42:09,2.7446926,-1.1975098,9.551338,0.043599997,0.07062586,-0.11040695,10.00976664,0.138125544,crawl
23/10/2020, 15:42:09,2.7446926,-1.1975098,9.551338,0.008169825,0.06085201,-0.12140252,10.00976664,0.136045155,crawl
23/10/2020, 15:42:09,2.7135572,-0.9508228,9.357342,0.008169825,0.06085201,-0.12140252,9.789142035,0.136045155,crawl
23/10/2020, 15:42:09,2.7135572,-0.9508228,9.357342,-0.07246436,0.04252606,-0.13361983,9.789142035,0.157841086,crawl
23/10/2020, 15:42:09,2.675237,-0.9580079,9.2328005,-0.07246436,0.04252606,-0.13361983,9.660190295,0.157841086,crawl
23/10/2020, 15:42:09,2.675237,-0.9580079,9.2328005,-0.1677593,0.02542184,-0.13972847,9.660190295,0.219803317,crawl
23/10/2020, 15:42:09,2.6201515,-0.98195803,9.256751,-0.1677593,0.02542184,-0.13972847,9.670412388,0.219803317,crawl
23/10/2020, 15:42:09,2.6201515,-0.98195803,9.256751,-0.23006752,0.009539349,-0.13850674,9.670412388,0.268712078,crawl
23/10/2020, 15:42:09,2.572251,-1.1352394,9.316627,-0.23006752,0.009539349,-0.13850674,9.731637801,0.268712078,crawl
23/10/2020, 15:42:09,2.572251,-1.1352394,9.316627,-0.25450212,0.009539349,-0.14217193,9.731637801,0.291676509,crawl
23/10/2020, 15:42:09,2.5171657,-1.3028907,9.328602,-0.25450212,0.009539349,-0.14217193,9.749690214,0.291676509,crawl
23/10/2020, 15:42:09,2.5171657,-1.3028907,9.328602,-0.23006752,0.010761078,-0.13850674,9.749690214,0.268758223,crawl
23/10/2020, 15:42:09,2.5123756,-1.2478052,9.462723,-0.23006752,0.010761078,-0.13850674,9.869760454,0.268758223,crawl
23/10/2020, 15:42:09,2.5123756,-1.2478052,9.462723,-0.1640941,0.014426269,-0.13117637,9.869760454,0.210575953,crawl
23/10/2020, 15:42:09,2.579436,-1.1136842,9.539363,-0.1640941,0.014426269,-0.13117637,9.944507405,0.210575953,crawl
23/10/2020, 15:42:09,2.579436,-1.1136842,9.539363,-0.11766837,0.02542184,-0.12262425,9.944507405,0.171839521,crawl
23/10/2020, 15:42:09,2.565066,-0.9484278,9.486672,-0.11766837,0.02542184,-0.12262425,9.87299512,0.171839521,crawl
23/10/2020, 15:42:09,2.565066,-0.9484278,9.486672,-0.07246436,0.014426269,-0.11529387,9.87299512,0.136937493,crawl
23/10/2020, 15:42:09,2.5123756,-0.852627,9.534574,-0.07246436,0.014426269,-0.11529387,9.896822559,0.136937493,crawl
23/10/2020, 15:42:09,2.5123756,-0.852627,9.534574,-0.041921105,0.018091459,-0.112850405,9.896822559,0.121736987,crawl
23/10/2020, 15:42:09,2.6608667,-0.8861573,9.599238,-0.041921105,0.018091459,-0.112850405,10.0005432,0.121736987,crawl
23/10/2020, 15:42:09,2.6608667,-0.8861573,9.599238,-0.018708237,0.024200108,-0.106741756,10.0005432,0.111038038,crawl
23/10/2020, 15:42:09,2.7422974,-0.89573735,9.517808,-0.018708237,0.024200108,-0.106741756,9.945411448,0.111038038,crawl
23/10/2020, 15:42:09,2.7422974,-0.89573735,9.517808,0.017943665,0.018091459,-0.10063311,9.945411448,0.103808951,crawl
23/10/2020, 15:42:09,2.8740237,-0.9651929,9.474698,0.017943665,0.018091459,-0.10063311,9.947940134,0.103808951,crawl
23/10/2020, 15:42:10,1.7387843,-0.71371585,8.032896,-1.0241921,0.044969518,0.78756464,8.249859394,1.292768254,crawl
23/10/2020, 15:42:10,1.7387843,-0.71371585,8.032896,-1.0620657,0.07795623,0.8523163,8.249859394,1.364002888,crawl
23/10/2020, 15:42:10,1.6070582,-0.977168,8.092772,-1.0620657,0.07795623,0.8523163,8.308456195,1.364002888,crawl
23/10/2020, 15:42:10,1.6070582,-0.977168,8.092772,-1.0987177,0.11460813,0.90729415,8.308456195,1.4295098,crawl
23/10/2020, 15:42:10,1.5136524,-1.0729688,7.668853,-1.0987177,0.11460813,0.90729415,7.890101977,1.4295098,crawl
23/10/2020, 15:42:10,1.5136524,-1.0729688,7.668853,-1.1317043,0.13049063,0.95982856,7.890101977,1.489648735,crawl
23/10/2020, 15:42:10,1.477727,-1.1232642,7.4101906,-1.1317043,0.13049063,0.95982856,7.639131113,1.489648735,crawl
23/10/2020, 15:42:10,1.477727,-1.1232642,7.4101906,-1.1732432,0.14270793,1.0025891,7.639131113,1.54985483,crawl
23/10/2020, 15:42:10,1.5998731,-1.2046949,7.096443,-1.1732432,0.14270793,1.0025891,7.373627961,1.54985483,crawl
23/10/2020, 15:42:10,1.5998731,-1.2046949,7.096443,-1.2294427,0.15248176,1.0416845,7.373627961,1.618606405,crawl
23/10/2020, 15:42:10,1.7723145,-1.3052857,6.962322,-1.2294427,0.15248176,1.0416845,7.301972371,1.618606405,crawl
23/10/2020, 15:42:10,1.7723145,-1.3052857,6.962322,-1.3015248,0.16714253,1.0905536,7.301972371,1.706226997,crawl
23/10/2020, 15:42:10,1.954336,-1.4250367,6.9096317,-1.3015248,0.16714253,1.0905536,7.320735586,1.706226997,crawl
23/10/2020, 15:42:10,1.954336,-1.4250367,6.9096317,-1.3736069,0.19890751,1.1406446,7.320735586,1.796504984,crawl
23/10/2020, 15:42:10,2.1507277,-1.4274317,6.8928666,-1.3736069,0.19890751,1.1406446,7.360353337,1.796504984,crawl
23/10/2020, 15:42:10,2.1507277,-1.4274317,6.8928666,-1.445689,0.2563288,1.2090615,7.360353337,1.901986,crawl
23/10/2020, 15:42:10,2.2776637,-1.4298267,6.806646,-1.445689,0.2563288,1.2090615,7.318646355,1.901986,crawl
23/10/2020, 15:42:10,2.2776637,-1.4298267,6.806646,-1.5079972,0.3174153,1.2958043,7.318646355,2.013434026,crawl
23/10/2020, 15:42:10,2.2920337,-1.3723463,6.9072366,-1.5079972,0.3174153,1.2958043,7.405853752,2.013434026,crawl
23/10/2020, 15:42:10,2.2920337,-1.3723463,6.9072366,-1.5031103,0.34918028,1.3764385,7.405853752,2.067812939,crawl
23/10/2020, 15:42:10,2.186653,-1.7148341,7.9562554,-1.5031103,0.34918028,1.3764385,8.427580165,2.067812939,crawl
23/10/2020, 15:42:10,2.186653,-1.7148341,7.9562554,-1.4798974,0.36017585,1.4179773,8.427580165,2.080981166,crawl
23/10/2020, 15:42:10,1.8824854,-2.6776319,8.413704,-1.4798974,0.36017585,1.4179773,9.027949779,2.080981166,crawl
23/10/2020, 15:42:10,1.8824854,-2.6776319,8.413704,-1.5153276,0.41393197,1.4546292,9.027949779,2.140911812,crawl
23/10/2020, 15:42:10,1.6405884,-2.9674294,8.849598,-1.5153276,0.41393197,1.4546292,9.476948406,2.140911812,crawl
23/10/2020, 15:42:10,1.6405884,-2.9674294,8.849598,-1.5409839,0.49700963,1.5242678,9.476948406,2.223745109,crawl
23/10/2020, 15:42:10,1.6597486,-2.668052,9.110655,-1.5409839,0.49700963,1.5242678,9.637286857,2.223745109,crawl
23/10/2020, 15:42:10,1.6597486,-2.668052,9.110655,-1.5067755,0.536105,1.5987934,9.637286857,2.261398073,crawl
23/10/2020, 15:42:10,1.7459693,-2.3806496,9.541759,-1.5067755,0.536105,1.5987934,9.988045711,2.261398073,crawl
23/10/2020, 15:42:10,1.7459693,-2.3806496,9.541759,-1.4652367,0.53366154,1.6415539,9.988045711,2.26415818,crawl
23/10/2020, 15:42:11,-8.013736,-4.0763235,2.8764186,0.020387124,0.6558345,0.039865844,9.439817703,0.657361245,crawl
23/10/2020, 15:42:11,-8.073611,-3.9948928,2.8668385,0.020387124,0.6558345,0.039865844,9.453101621,0.657361245,crawl
23/10/2020, 15:42:11,-8.073611,-3.9948928,2.8668385,0.14989051,0.63506514,-0.030994497,9.453101621,0.653249994,crawl
23/10/2020, 15:42:11,-8.150251,-3.8799317,2.7973828,0.14989051,0.63506514,-0.030994497,9.45017557,0.653249994,crawl
23/10/2020, 15:42:11,-8.150251,-3.8799317,2.7973828,0.26595485,0.6069653,-0.1042983,9.45017557,0.670833063,crawl
23/10/2020, 15:42:11,-8.224498,-3.781736,2.8500733,0.26595485,0.6069653,-0.1042983,9.490353439,0.670833063,crawl
23/10/2020, 15:42:11,-8.224498,-3.781736,2.8500733,0.38079748,0.58008724,-0.18004556,9.490353439,0.71688516,crawl
23/10/2020, 15:42:11,-8.394544,-3.6092947,2.8955786,0.38079748,0.58008724,-0.18004556,9.58539235,0.71688516,crawl
23/10/2020, 15:42:11,-8.394544,-3.6092947,2.8955786,0.48097935,0.54954404,-0.24724072,9.58539235,0.771017354,crawl
23/10/2020, 15:42:11,-8.586145,-3.412903,2.9482691,0.48097935,0.54954404,-0.24724072,9.698561289,0.771017354,crawl
23/10/2020, 15:42:11,-8.586145,-3.412903,2.9482691,0.5481745,0.51411384,-0.3193228,9.698561289,0.816563148,crawl
23/10/2020, 15:42:11,-8.780142,-3.2452517,2.9027638,0.5481745,0.51411384,-0.3193228,9.800438092,0.816563148,crawl
23/10/2020, 15:42:11,-8.780142,-3.2452517,2.9027638,0.57138735,0.46890983,-0.3889614,9.800438092,0.835254995,crawl
23/10/2020, 15:42:11,-8.916658,-2.9482691,2.8979738,0.57138735,0.46890983,-0.3889614,9.828394574,0.835254995,crawl
23/10/2020, 15:42:11,-8.916658,-2.9482691,2.8979738,0.54573107,0.41393197,-0.45493484,9.828394574,0.822269892,crawl
23/10/2020, 15:42:11,-8.969349,-2.682422,2.914739,0.54573107,0.41393197,-0.45493484,9.805116522,0.822269892,crawl
23/10/2020, 15:42:11,-8.969349,-2.682422,2.914739,0.4785359,0.35651067,-0.52090824,9.805116522,0.792112269,crawl
23/10/2020, 15:42:11,-8.931028,-2.4860303,2.8668385,0.4785359,0.35651067,-0.52090824,9.703730069,0.792112269,crawl
23/10/2020, 15:42:11,-8.931028,-2.4860303,2.8668385,0.38446268,0.305198,-0.5844382,9.703730069,0.763233515,crawl
23/10/2020, 15:42:11,-8.847202,-2.339934,2.8764186,0.38446268,0.305198,-0.5844382,9.592813149,0.763233515,crawl
23/10/2020, 15:42:11,-8.847202,-2.339934,2.8764186,0.27939388,0.25877225,-0.6369726,9.592813149,0.742130798,crawl
23/10/2020, 15:42:11,-8.928633,-2.335144,2.9099488,0.27939388,0.25877225,-0.6369726,9.676837418,0.742130798,crawl
23/10/2020, 15:42:11,-8.928633,-2.335144,2.9099488,0.18898587,0.2233421,-0.67973316,9.676837418,0.740023324,crawl
23/10/2020, 15:42:11,-9.081915,-2.308799,3.0081446,0.18898587,0.2233421,-0.67973316,9.841781611,0.740023324,crawl
23/10/2020, 15:42:11,-9.081915,-2.308799,3.0081446,0.1132386,0.19524232,-0.71271986,9.841781611,0.747604266,crawl
23/10/2020, 15:42:11,-9.2184305,-2.3590944,3.1255007,0.1132386,0.19524232,-0.71271986,10.01566483,0.747604266,crawl
23/10/2020, 15:42:11,-9.2184305,-2.3590944,3.1255007,0.0558173,0.1622556,-0.74204135,10.01566483,0.761621832,crawl
23/10/2020, 15:42:11,-9.342972,-2.3830445,3.2548318,0.0558173,0.1622556,-0.74204135,10.17663761,0.761621832,crawl
23/10/2020, 15:42:11,-9.342972,-2.3830445,3.2548318,0.016721934,0.12193851,-0.7713629,10.17663761,0.781120572,crawl
23/10/2020, 15:42:11,-9.335787,-2.4141798,3.3817677,0.016721934,0.12193851,-0.7713629,10.21868547,0.781120572,crawl
23/10/2020, 15:42:12,-8.725057,-2.6225464,2.3854396,-0.99242705,0.5532092,2.162011,9.417785598,2.4423847,crawl
23/10/2020, 15:42:12,-8.950189,-2.7255323,2.411785,-0.99242705,0.5532092,2.162011,9.661837779,2.4423847,crawl
23/10/2020, 15:42:12,-8.950189,-2.7255323,2.411785,-0.9948705,0.59596974,2.265858,9.661837779,2.545399652,crawl
23/10/2020, 15:42:12,-9.175321,-2.8093581,2.440525,-0.9948705,0.59596974,2.265858,9.901270836,2.545399652,crawl
23/10/2020, 15:42:12,-9.175321,-2.8093581,2.440525,-0.9985357,0.6277347,2.3599312,9.901270836,2.638256967,crawl
23/10/2020, 15:42:12,-9.433982,-2.8524685,2.5147705,-0.9985357,0.6277347,2.3599312,10.17156141,2.638256967,crawl
23/10/2020, 15:42:12,-9.433982,-2.8524685,2.5147705,-0.9985357,0.64972585,2.4405653,10.17156141,2.71580125,crawl
23/10/2020, 15:42:12,-9.642349,-2.9578493,2.574646,-0.9985357,0.64972585,2.4405653,10.40925421,2.71580125,crawl
23/10/2020, 15:42:12,-9.642349,-2.9578493,2.574646,-1.0034227,0.6631649,2.505317,10.40925421,2.779075031,crawl
23/10/2020, 15:42:12,-9.862691,-3.0536501,2.5842261,-1.0034227,0.6631649,2.505317,10.64310463,2.779075031,crawl
23/10/2020, 15:42:12,-9.862691,-3.0536501,2.5842261,-1.0058662,0.66805184,2.5566297,10.64310463,2.827439693,crawl
23/10/2020, 15:42:12,-10.075848,-3.1326857,2.6249416,-1.0058662,0.66805184,2.5566297,10.87321218,2.827439693,crawl
23/10/2020, 15:42:12,-10.075848,-3.1326857,2.6249416,-1.0095314,0.671717,2.5945034,10.87321218,2.863879401,crawl
23/10/2020, 15:42:12,-10.236314,-3.2021413,2.6393116,-1.0095314,0.671717,2.5945034,11.04544227,2.863879401,crawl
23/10/2020, 15:42:12,-10.236314,-3.2021413,2.6393116,-1.010753,0.67293876,2.6152728,11.04544227,2.88342156,crawl
23/10/2020, 15:42:12,-10.504556,-3.2859669,2.6105714,-1.010753,0.67293876,2.6152728,11.31186774,2.88342156,crawl
23/10/2020, 15:42:12,-10.504556,-3.2859669,2.6105714,-1.0205269,0.6704953,2.6238248,11.31186774,2.894044885,crawl
23/10/2020, 15:42:12,-10.861414,-3.3673975,2.459685,-1.0205269,0.6704953,2.6238248,11.63442006,2.894044885,crawl
23/10/2020, 15:42:12,-10.861414,-3.3673975,2.459685,-1.047405,0.66683006,2.6152728,11.63442006,2.89505979,crawl
23/10/2020, 15:42:12,-11.239827,-3.4703834,2.2585034,-1.047405,0.66683006,2.6152728,11.97823498,2.89505979,crawl
23/10/2020, 15:42:12,-11.239827,-3.4703834,2.2585034,-1.0962741,0.66927356,2.600612,11.97823498,2.900504518,crawl
23/10/2020, 15:42:12,-11.824212,-3.5709743,2.083667,-1.0962741,0.66927356,2.600612,12.52619325,2.900504518,crawl
23/10/2020, 15:42:12,-11.824212,-3.5709743,2.083667,-1.1536955,0.6875995,2.5761774,12.52619325,2.905253182,crawl
23/10/2020, 15:42:12,-12.585828,-3.6859353,1.8537452,-1.1536955,0.6875995,2.5761774,13.24483115,2.905253182,crawl
23/10/2020, 15:42:12,-12.585828,-3.6859353,1.8537452,-1.2245559,0.70103854,2.5334167,13.24483115,2.89986077,crawl
23/10/2020, 15:42:12,-13.4743805,-3.7314405,1.5519727,-1.2245559,0.70103854,2.5334167,14.06738062,2.89986077,crawl
23/10/2020, 15:42:12,-13.4743805,-3.7314405,1.5519727,-1.336955,0.6704953,2.4674435,14.06738062,2.885357813,crawl
23/10/2020, 15:42:12,-14.180911,-3.767366,1.3004956,-1.336955,0.6704953,2.4674435,14.73032836,2.885357813,crawl
23/10/2020, 15:42:12,-14.180911,-3.767366,1.3004956,-1.4970016,0.5752003,2.3807006,14.73032836,2.870471152,crawl
23/10/2020, 15:42:12,-14.384488,-3.6907253,1.1639795,-1.4970016,0.5752003,2.3807006,14.89596589,2.870471152,crawl
23/10/2020, 15:42:13,-10.818304,-3.523074,3.4775686,-0.46830487,-0.9287493,-0.67240274,11.89711041,1.238551655,crawl
23/10/2020, 15:42:13,-10.207574,-3.3506324,3.151846,-0.46830487,-0.9287493,-0.67240274,11.19622415,1.238551655,crawl
23/10/2020, 15:42:13,-10.207574,-3.3506324,3.151846,-0.5428304,-0.99960965,-0.79701924,11.19622415,1.388929075,crawl
23/10/2020, 15:42:13,-9.726174,-3.2141163,2.9171338,-0.5428304,-0.99960965,-0.79701924,10.65075965,1.388929075,crawl
23/10/2020, 15:42:13,-9.726174,-3.2141163,2.9171338,-0.6149125,-1.0570309,-0.93140954,10.65075965,1.537190775,crawl
23/10/2020, 15:42:13,-9.314231,-3.0752053,2.7662477,-0.6149125,-1.0570309,-0.93140954,10.19136458,1.537190775,crawl
23/10/2020, 15:42:13,-9.314231,-3.0752053,2.7662477,-0.6772207,-1.102235,-1.0682433,10.19136458,1.677704819,crawl
23/10/2020, 15:42:13,-8.957374,-2.8740237,2.703977,-0.6772207,-1.102235,-1.0682433,9.788056316,1.677704819,crawl
23/10/2020, 15:42:13,-8.957374,-2.8740237,2.703977,-0.72120297,-1.1303347,-1.2124075,9.788056316,1.807684212,crawl
23/10/2020, 15:42:13,-8.701106,-2.7566676,2.7159522,-0.72120297,-1.1303347,-1.2124075,9.522859829,1.807684212,crawl
23/10/2020, 15:42:13,-8.701106,-2.7566676,2.7159522,-0.73586375,-1.1413304,-1.3492413,9.522859829,1.914309905,crawl
23/10/2020, 15:42:13,-8.672366,-2.668052,2.7111623,-0.73586375,-1.1413304,-1.3492413,9.469891073,1.914309905,crawl
23/10/2020, 15:42:13,-8.672366,-2.668052,2.7111623,-0.7114292,-1.1449956,-1.4738576,9.469891073,1.997348913,crawl
23/10/2020, 15:42:13,-8.854387,-2.694397,2.7518775,-0.7114292,-1.1449956,-1.4738576,9.65571226,1.997348913,crawl
23/10/2020, 15:42:13,-8.854387,-2.694397,2.7518775,-0.67111206,-1.1547694,-1.5813699,9.65571226,2.069931038,crawl
23/10/2020, 15:42:13,-9.144185,-2.7854078,2.7231374,-0.67111206,-1.1547694,-1.5813699,9.939320612,2.069931038,crawl
23/10/2020, 15:42:13,-9.144185,-2.7854078,2.7231374,-0.6234646,-1.1694301,-1.6742214,9.939320612,2.135249919,crawl
23/10/2020, 15:42:13,-9.515413,-2.8692336,2.7614577,-0.6234646,-1.1694301,-1.6742214,10.31509767,2.135249919,crawl
23/10/2020, 15:42:13,-9.515413,-2.8692336,2.7614577,-0.56482154,-1.192643,-1.7548555,10.31509767,2.195663609,crawl
23/10/2020, 15:42:13,-9.848321,-3.0656252,2.816543,-0.56482154,-1.192643,-1.7548555,10.69207176,2.195663609,crawl
23/10/2020, 15:42:13,-9.848321,-3.0656252,2.816543,-0.47807872,-1.2207428,-1.8257159,10.69207176,2.247667869,crawl
23/10/2020, 15:42:13,-10.186019,-3.2859669,2.7638526,-0.47807872,-1.2207428,-1.8257159,11.05402376,2.247667869,crawl
23/10/2020, 15:42:13,-10.186019,-3.2859669,2.7638526,-0.36567956,-1.2390687,-1.8819155,11.05402376,2.282677958,crawl
23/10/2020, 15:42:13,-10.626702,-3.4967287,2.799778,-0.36567956,-1.2390687,-1.8819155,11.5322448,2.282677958,crawl
23/10/2020, 15:42:13,-10.626702,-3.4967287,2.799778,-0.22029369,-1.2463992,-1.9234543,11.5322448,2.302545672,crawl
23/10/2020, 15:42:13,-11.053016,-3.7003052,2.6608667,-0.22029369,-1.2463992,-1.9234543,11.95581979,2.302545672,crawl
23/10/2020, 15:42:13,-11.053016,-3.7003052,2.6608667,-0.06513398,-1.2476208,-1.9576627,11.95581979,2.322335764,crawl
23/10/2020, 15:42:13,-11.53202,-3.8176613,2.5962012,-0.06513398,-1.2476208,-1.9576627,12.42184667,2.322335764,crawl
23/10/2020, 15:42:13,-11.53202,-3.8176613,2.5962012,0.094912656,-1.2476208,-1.9711018,12.42184667,2.334696613,crawl
23/10/2020, 15:42:13,-11.996654,-3.8152664,2.4189699,0.094912656,-1.2476208,-1.9711018,12.81902373,2.334696613,crawl
23/10/2020, 15:42:14,-7.5012016,0.80233157,1.8537452,-3.137785,-0.3129974,-0.21058881,7.76840609,3.160381221,crawl
23/10/2020, 15:42:14,-7.32876,0.13891114,1.9447559,-3.137785,-0.3129974,-0.21058881,7.583673065,3.160381221,crawl
23/10/2020, 15:42:14,-7.32876,0.13891114,1.9447559,-3.4664302,-0.28978452,-0.13361983,7.583673065,3.481087125,crawl
23/10/2020, 15:42:14,-7.4054008,-0.5604346,2.189048,-3.4664302,-0.28978452,-0.13361983,7.742478841,3.481087125,crawl
23/10/2020, 15:42:14,-7.4054008,-0.5604346,2.189048,-3.6228118,-0.2690151,-0.043211795,7.742478841,3.633043033,crawl
23/10/2020, 15:42:14,-7.4964113,-1.4058765,2.5866213,-3.6228118,-0.2690151,-0.043211795,8.053774344,3.633043033,crawl
23/10/2020, 15:42:14,-7.4964113,-1.4058765,2.5866213,-3.6386943,-0.25068915,0.037422385,8.053774344,3.647511699,crawl
23/10/2020, 15:42:14,-7.5706573,-2.2177882,2.8836036,-3.6386943,-0.25068915,0.037422385,8.399321723,3.647511699,crawl
23/10/2020, 15:42:14,-7.5706573,-2.2177882,2.8836036,-3.5238516,-0.23358493,0.09973062,8.399321723,3.532992845,crawl
23/10/2020, 15:42:14,-7.6449027,-2.9027638,3.2236965,-3.5238516,-0.23358493,0.09973062,8.789925725,3.532992845,crawl
23/10/2020, 15:42:14,-7.6449027,-2.9027638,3.2236965,-3.2746186,-0.2079286,0.13760424,8.789925725,3.284097497,crawl
23/10/2020, 15:42:14,-7.7335186,-3.5637891,3.5757644,-3.2746186,-0.2079286,0.13760424,9.235474762,3.284097497,crawl
23/10/2020, 15:42:14,-7.7335186,-3.5637891,3.5757644,-2.8873303,-0.17127669,0.16326056,9.235474762,2.897009827,crawl
23/10/2020, 15:42:14,-7.92991,-4.1242237,3.8008962,-2.8873303,-0.17127669,0.16326056,9.712852742,2.897009827,crawl
23/10/2020, 15:42:14,-7.92991,-4.1242237,3.8008962,-2.3668733,-0.13340306,0.18402998,9.712852742,2.37776207,crawl
23/10/2020, 15:42:14,-8.198153,-4.4906616,3.8679566,-2.3668733,-0.13340306,0.18402998,10.11616703,2.37776207,crawl
23/10/2020, 15:42:14,-8.198153,-4.4906616,3.8679566,-1.7389041,-0.10530327,0.19869074,10.11616703,1.753383678,crawl
23/10/2020, 15:42:14,-8.346643,-4.5936475,3.8631666,-1.7389041,-0.10530327,0.19869074,10.28066681,1.753383678,crawl
23/10/2020, 15:42:14,-8.346643,-4.5936475,3.8631666,-1.0449615,-0.07476002,0.20602112,10.28066681,1.067697615,crawl
23/10/2020, 15:42:14,-8.396939,-4.4667115,3.8440065,-1.0449615,-0.07476002,0.20602112,10.25848368,1.067697615,crawl
23/10/2020, 15:42:14,-8.396939,-4.4667115,3.8440065,-0.33391458,-0.018560443,0.20846458,10.25848368,0.394082372,crawl
23/10/2020, 15:42:14,-8.272398,-4.030818,3.6811452,-0.33391458,-0.018560443,0.20846458,9.91114989,0.394082372,crawl
23/10/2020, 15:42:14,-8.272398,-4.030818,3.6811452,0.32337618,0.05596509,0.20357767,9.91114989,0.386196984,crawl
23/10/2020, 15:42:14,-8.234077,-3.4248781,3.65959,0.32337618,0.05596509,0.20357767,9.639627621,0.386196984,crawl
23/10/2020, 15:42:14,-8.234077,-3.4248781,3.65959,0.88048506,0.12193851,0.17303441,9.639627621,0.905573766,crawl
23/10/2020, 15:42:14,-8.349038,-2.8955786,3.4512234,0.88048506,0.12193851,0.17303441,9.486925526,0.905573766,crawl
23/10/2020, 15:42:14,-8.349038,-2.8955786,3.4512234,1.3141992,0.16469906,0.13393904,9.486925526,1.331234393,crawl
23/10/2020, 15:42:14,-8.52627,-2.5123756,3.4009278,1.3141992,0.16469906,0.13393904,9.517122439,1.331234393,crawl
23/10/2020, 15:42:14,-8.52627,-2.5123756,3.4009278,1.6281838,0.19035539,0.089956775,9.517122439,1.641739936,crawl
23/10/2020, 15:42:14,-8.689131,-2.1650977,3.3171022,1.6281838,0.19035539,0.089956775,9.549440237,1.641739936,crawl
23/10/2020, 15:42:15,-8.169412,-1.84177,2.684817,0.061925948,1.1139833,1.7539531,8.794296249,2.078736402,crawl
23/10/2020, 15:42:15,-8.538245,-1.7914747,2.7279274,0.061925948,1.1139833,1.7539531,9.14071118,2.078736402,crawl
23/10/2020, 15:42:15,-8.538245,-1.7914747,2.7279274,-0.043142837,1.1396396,1.8736826,9.14071118,2.193473572,crawl
23/10/2020, 15:42:15,-8.897498,-1.7962648,2.6441016,-0.043142837,1.1396396,1.8736826,9.454274879,2.193473572,crawl
23/10/2020, 15:42:15,-8.897498,-1.7962648,2.6441016,-0.16287237,1.1555221,1.9885253,9.454274879,2.305643404,crawl
23/10/2020, 15:42:15,-9.239985,-1.7555494,2.6488917,-0.16287237,1.1555221,1.9885253,9.771177636,2.305643404,crawl
23/10/2020, 15:42:15,-9.239985,-1.7555494,2.6488917,-0.2935975,1.160409,2.0911505,9.771177636,2.409493511,crawl
23/10/2020, 15:42:15,-9.539363,-1.698069,2.6201515,-0.2935975,1.160409,2.0911505,10.03733415,2.409493511,crawl
23/10/2020, 15:42:15,-9.539363,-1.698069,2.6201515,-0.44631374,1.1640742,2.1876671,10.03733415,2.517965872,crawl
23/10/2020, 15:42:15,-9.927357,-1.6789087,2.5866213,-0.44631374,1.1640742,2.1876671,10.39527564,2.517965872,crawl
23/10/2020, 15:42:15,-9.927357,-1.6789087,2.5866213,-0.6246863,1.1909523,2.2854056,10.39527564,2.651731374,crawl
23/10/2020, 15:42:15,-10.391991,-1.7411792,2.3423293,-0.6246863,1.1909523,2.2854056,10.79405769,2.651731374,crawl
23/10/2020, 15:42:15,-10.391991,-1.7411792,2.3423293,-0.80916756,1.2557039,2.4026916,10.79405769,2.82921746,crawl
23/10/2020, 15:42:15,-11.163186,-1.9351759,2.2848487,-0.80916756,1.2557039,2.4026916,11.55777498,2.82921746,crawl
23/10/2020, 15:42:15,-11.163186,-1.9351759,2.2848487,-0.96310556,1.3375598,2.537082,11.55777498,3.025462517,crawl
23/10/2020, 15:42:15,-12.3415365,-2.1171973,2.198628,-0.96310556,1.3375598,2.537082,12.71337929,3.025462517,crawl
23/10/2020, 15:42:15,-12.3415365,-2.1171973,2.198628,-1.110935,1.418194,2.6653636,12.71337929,3.217081557,crawl
23/10/2020, 15:42:15,-13.622871,-2.3375392,2.088457,-1.110935,1.418194,2.6653636,13.97885431,3.217081557,crawl
23/10/2020, 15:42:15,-13.622871,-2.3375392,2.088457,-1.2941945,1.4695067,2.7667673,13.97885431,3.389600338,crawl
23/10/2020, 15:42:15,-14.980847,-2.5267458,2.0190015,-1.2941945,1.4695067,2.7667673,15.32601053,3.389600338,crawl
23/10/2020, 15:42:15,-14.980847,-2.5267458,2.0190015,-1.5189928,1.4695067,2.8364058,15.32601053,3.53722868,crawl
23/10/2020, 15:42:15,-16.231049,-2.565066,1.9711012,-1.5189928,1.4695067,2.8364058,16.55027921,3.53722868,crawl
23/10/2020, 15:42:15,-16.231049,-2.565066,1.9711012,-1.780443,1.3974247,2.8730578,16.55027921,3.657490159,crawl
23/10/2020, 15:42:15,-17.06691,-2.694397,1.9088306,-1.780443,1.3974247,2.8730578,17.38340643,3.657490159,crawl
23/10/2020, 15:42:15,-17.06691,-2.694397,1.9088306,-2.073658,1.2410432,2.8938272,17.38340643,3.770209751,crawl
23/10/2020, 15:42:15,-17.1196,-2.924319,2.0261867,-2.073658,1.2410432,2.8938272,17.48535927,3.770209751,crawl
23/10/2020, 15:42:15,-17.1196,-2.924319,2.0261867,-2.3839774,1.024797,2.9011576,17.48535927,3.892335114,crawl
23/10/2020, 15:42:15,-16.310083,-3.175796,2.2297633,-2.3839774,1.024797,2.9011576,16.76533164,3.892335114,crawl
23/10/2020, 15:42:15,-16.310083,-3.175796,2.2297633,-2.6833014,0.8171029,2.8852751,16.76533164,4.024000047,crawl
23/10/2020, 15:42:15,-14.894628,-3.422483,2.562671,-2.6833014,0.8171029,2.8852751,15.49614799,4.024000047,crawl
23/10/2020, 15:42:16,-12.111614,-2.562671,0.9915381,1.2286781,-1.2390687,-2.4060376,12.41940536,2.972197509,crawl
23/10/2020, 15:42:16,-11.960728,-2.4836354,1.1280543,1.2286781,-1.2390687,-2.4060376,12.26784245,2.972197509,crawl
23/10/2020, 15:42:16,-11.960728,-2.4836354,1.1280543,1.1443787,-1.2415122,-2.4035943,12.26784245,2.93738325,crawl
23/10/2020, 15:42:16,-11.749967,-2.2944288,1.0825489,1.1443787,-1.2415122,-2.4035943,12.02073339,2.93738325,crawl
23/10/2020, 15:42:16,-11.749967,-2.2944288,1.0825489,1.0222057,-1.2439556,-2.3925986,12.02073339,2.883896371,crawl
23/10/2020, 15:42:16,-11.577525,-2.1507277,1.1280543,1.0222057,-1.2439556,-2.3925986,11.82950652,2.883896371,crawl
23/10/2020, 15:42:16,-11.577525,-2.1507277,1.1280543,0.8694895,-1.2402905,-2.3706076,11.82950652,2.813203337,crawl
23/10/2020, 15:42:16,-11.297308,-2.074087,1.1304493,0.8694895,-1.2402905,-2.3706076,11.54161685,2.813203337,crawl
23/10/2020, 15:42:16,-11.297308,-2.074087,1.1304493,0.6972256,-1.2329601,-2.3437295,11.54161685,2.738499967,crawl
23/10/2020, 15:42:16,-10.914104,-1.9711012,1.1496094,0.6972256,-1.2329601,-2.3437295,11.15009049,2.738499967,crawl
23/10/2020, 15:42:16,-10.914104,-1.9711012,1.1496094,0.5139661,-1.219521,-2.319295,11.15009049,2.670303669,crawl
23/10/2020, 15:42:16,-10.605147,-2.0166066,1.0466236,0.5139661,-1.219521,-2.319295,10.8457952,2.670303669,crawl
23/10/2020, 15:42:16,-10.605147,-2.0166066,1.0466236,0.33315003,-1.1963083,-2.2850864,10.8457952,2.600723401,crawl
23/10/2020, 15:42:16,-10.207574,-2.1100123,1.0202783,0.33315003,-1.1963083,-2.2850864,10.47318884,2.600723401,crawl
23/10/2020, 15:42:16,-10.207574,-2.1100123,1.0202783,0.18043377,-1.1620997,-2.2447693,10.47318884,2.534170765,crawl
23/10/2020, 15:42:16,-9.884246,-2.2441335,1.0729688,0.18043377,-1.1620997,-2.2447693,10.19243414,2.534170765,crawl
23/10/2020, 15:42:16,-9.884246,-2.2441335,1.0729688,0.060704216,-1.1193392,-2.191013,10.19243414,2.461126511,crawl
23/10/2020, 15:42:16,-9.462723,-2.315984,1.0035132,0.060704216,-1.1193392,-2.191013,9.793566413,2.461126511,crawl
23/10/2020, 15:42:16,-9.462723,-2.315984,1.0035132,-0.027260344,-1.0668048,-2.133592,9.793566413,2.385587955,crawl
23/10/2020, 15:42:16,-9.072334,-2.43813,0.974773,-0.027260344,-1.0668048,-2.133592,9.444676239,2.385587955,crawl
23/10/2020, 15:42:16,-9.072334,-2.43813,0.974773,-0.08468166,-1.0130486,-2.070062,9.444676239,2.306207907,crawl
23/10/2020, 15:42:16,-8.638836,-2.4692652,1.0059083,-0.08468166,-1.0130486,-2.070062,9.040940658,2.306207907,crawl
23/10/2020, 15:42:16,-8.638836,-2.4692652,1.0059083,-0.11400318,-0.95440567,-2.0040884,9.040940658,2.222668941,crawl
23/10/2020, 15:42:16,-8.236472,-2.548301,0.9364527,-0.11400318,-0.95440567,-2.0040884,8.672384601,2.222668941,crawl
23/10/2020, 15:42:16,-8.236472,-2.548301,0.9364527,-0.11033799,-0.89698434,-1.9332281,8.672384601,2.134039924,crawl
23/10/2020, 15:42:16,-7.800579,-2.5219557,1.0226734,-0.11033799,-0.89698434,-1.9332281,8.261667832,2.134039924,crawl
23/10/2020, 15:42:16,-7.800579,-2.5219557,1.0226734,-0.08590339,-0.82978916,-1.8623679,8.261667832,2.040672321,crawl
23/10/2020, 15:42:16,-7.3096,-2.5315359,1.0226734,-0.08590339,-0.82978916,-1.8623679,7.802870305,2.040672321,crawl
23/10/2020, 15:42:16,-7.3096,-2.5315359,1.0226734,-0.039477646,-0.7515985,-1.7878423,7.802870305,1.939803792,crawl
23/10/2020, 15:42:16,-6.9240017,-2.5147705,1.0753639,-0.039477646,-0.7515985,-1.7878423,7.444614001,1.939803792,crawl
23/10/2020, 15:42:17,-9.16095,-3.7218604,3.6140847,-0.015043045,0.14392966,0.037422385,10.52790828,0.149473995,crawl
23/10/2020, 15:42:17,-9.16095,-3.7218604,3.6140847,0.07780843,0.118273325,-0.004116436,10.52790828,0.141632188,crawl
23/10/2020, 15:42:17,-9.295072,-3.8104763,3.6404297,0.07780843,0.118273325,-0.004116436,10.68507437,0.141632188,crawl
23/10/2020, 15:42:17,-9.295072,-3.8104763,3.6404297,0.165773,0.08650834,-0.06275948,10.68507437,0.197238775,crawl
23/10/2020, 15:42:17,-9.393267,-3.772156,3.5877395,0.165773,0.08650834,-0.06275948,10.73938985,0.197238775,crawl
23/10/2020, 15:42:17,-9.393267,-3.772156,3.5877395,0.24396372,0.03641741,-0.12995464,10.73938985,0.278805902,crawl
23/10/2020, 15:42:17,-9.445957,-3.6763551,3.4560134,0.24396372,0.03641741,-0.12995464,10.70914203,0.278805902,crawl
23/10/2020, 15:42:17,-9.445957,-3.6763551,3.4560134,0.29527637,-0.022225633,-0.2057019,10.70914203,0.360548732,crawl
23/10/2020, 15:42:17,-9.469908,-3.5805542,3.2141163,0.29527637,-0.022225633,-0.2057019,10.62214976,0.360548732,crawl
23/10/2020, 15:42:17,-9.469908,-3.5805542,3.2141163,0.30993715,-0.07476002,-0.2875578,10.62214976,0.429347868,crawl
23/10/2020, 15:42:17,-9.381292,-3.4775686,2.9841945,0.30993715,-0.07476002,-0.2875578,10.44066791,0.429347868,crawl
23/10/2020, 15:42:17,-9.381292,-3.4775686,2.9841945,0.3087154,-0.09797289,-0.37430063,10.44066791,0.494979645,crawl
23/10/2020, 15:42:17,-9.560919,-3.4488282,2.7399025,0.3087154,-0.09797289,-0.37430063,10.52675877,0.494979645,crawl
23/10/2020, 15:42:17,-9.560919,-3.4488282,2.7399025,0.31848925,-0.08453386,-0.4500479,10.52675877,0.557785353,crawl
23/10/2020, 15:42:17,-10.162068,-3.6164796,2.6417067,0.31848925,-0.08453386,-0.4500479,11.10518675,0.557785353,crawl
23/10/2020, 15:42:17,-10.162068,-3.6164796,2.6417067,0.3453673,-0.06376445,-0.517243,11.10518675,0.625207834,crawl
23/10/2020, 15:42:17,-11.03625,-3.7937112,2.562671,0.3453673,-0.06376445,-0.517243,11.94815231,0.625207834,crawl
23/10/2020, 15:42:17,-11.03625,-3.7937112,2.562671,0.378354,-0.07109483,-0.5795513,11.94815231,0.695762833,crawl
23/10/2020, 15:42:17,-11.9056425,-3.8895118,2.567461,0.378354,-0.07109483,-0.5795513,12.78532291,0.695762833,crawl
23/10/2020, 15:42:17,-11.9056425,-3.8895118,2.567461,0.4052321,-0.11263365,-0.64185953,12.78532291,0.76738716,crawl
23/10/2020, 15:42:17,-12.564273,-4.0020776,2.6441016,0.4052321,-0.11263365,-0.64185953,13.44874906,0.76738716,crawl
23/10/2020, 15:42:17,-12.564273,-4.0020776,2.6441016,0.41989285,-0.17738535,-0.702946,13.44874906,0.837799889,crawl
23/10/2020, 15:42:17,-13.043277,-4.0020776,2.804568,0.41989285,-0.17738535,-0.702946,13.92872199,0.837799889,crawl
23/10/2020, 15:42:17,-13.043277,-4.0020776,2.804568,0.41622767,-0.25679782,-0.76158905,13.92872199,0.905101361,crawl
23/10/2020, 15:42:17,-13.263618,-3.9829175,2.8883936,0.41622767,-0.25679782,-0.76158905,14.14673195,0.905101361,crawl
23/10/2020, 15:42:17,-13.263618,-3.9829175,2.8883936,0.38812786,-0.3337668,-0.825119,14.14673195,0.971012308,crawl
23/10/2020, 15:42:17,-13.328284,-3.9685476,2.8428884,0.38812786,-0.3337668,-0.825119,14.19417294,0.971012308,crawl
23/10/2020, 15:42:17,-13.328284,-3.9685476,2.8428884,0.34292385,-0.39363158,-0.89597934,14.19417294,1.036977132,crawl
23/10/2020, 15:42:17,-13.543836,-4.018843,2.8883936,0.34292385,-0.39363158,-0.89597934,14.41975735,1.036977132,crawl
23/10/2020, 15:42:17,-13.543836,-4.018843,2.8883936,0.29894158,-0.4473877,-0.96928316,14.41975735,1.108617008,crawl
23/10/2020, 15:42:18,-11.218272,-4.133804,-0.64186525,0.8389462,-0.19448957,0.34652007,11.97288422,0.928295812,crawl
23/10/2020, 15:42:18,-11.184742,-3.7027004,-0.6945557,0.8389462,-0.19448957,0.34652007,11.80215449,0.928295812,crawl
23/10/2020, 15:42:18,-11.184742,-3.7027004,-0.6945557,0.66057366,-0.23602839,0.30742472,11.80215449,0.7658831,crawl
23/10/2020, 15:42:18,-11.060201,-3.168611,-0.6730005,0.66057366,-0.23602839,0.30742472,11.52480217,0.7658831,crawl
23/10/2020, 15:42:18,-11.060201,-3.168611,-0.6730005,0.37468883,-0.2848976,0.2829901,11.52480217,0.549219226,crawl
23/10/2020, 15:42:18,-10.693763,-2.6345215,-0.43589357,0.37468883,-0.2848976,0.2829901,11.02212634,0.549219226,crawl
23/10/2020, 15:42:18,-10.693763,-2.6345215,-0.43589357,-0.002825745,-0.33987546,0.2573338,11.02212634,0.426314426,crawl
23/10/2020, 15:42:18,-10.197993,-2.069297,-0.17244141,-0.002825745,-0.33987546,0.2573338,10.40724715,0.426314426,crawl
23/10/2020, 15:42:18,-10.197993,-2.069297,-0.17244141,-0.46219623,-0.382636,0.21946014,10.40724715,0.638904083,crawl
23/10/2020, 15:42:18,-9.553733,-1.6525636,0.047900394,-0.46219623,-0.382636,0.21946014,9.695724449,0.638904083,crawl
23/10/2020, 15:42:18,-9.553733,-1.6525636,0.047900394,-0.97532284,-0.4070706,0.1766996,9.695724449,1.071533421,crawl
23/10/2020, 15:42:18,-8.974138,-1.3627661,0.1939966,-0.97532284,-0.4070706,0.1766996,9.079092673,1.071533421,crawl
23/10/2020, 15:42:18,-8.974138,-1.3627661,0.1939966,-1.5104407,-0.41195753,0.1278304,9.079092673,1.57082168,crawl
23/10/2020, 15:42:18,-8.499925,-1.2741505,0.39278322,-1.5104407,-0.41195753,0.1278304,8.603862932,1.57082168,crawl
23/10/2020, 15:42:18,-8.499925,-1.2741505,0.39278322,-2.0296757,-0.4070706,0.09362197,8.603862932,2.072210194,crawl
23/10/2020, 15:42:18,-8.121511,-1.3723463,0.5724097,-2.0296757,-0.4070706,0.09362197,8.256508678,2.072210194,crawl
23/10/2020, 15:42:18,-8.121511,-1.3723463,0.5724097,-2.531807,-0.40096197,0.069187365,8.256508678,2.564294016,crawl
23/10/2020, 15:42:18,-7.767049,-1.6453785,0.58677983,-2.531807,-0.40096197,0.069187365,7.961069558,2.564294016,crawl
23/10/2020, 15:42:18,-7.767049,-1.6453785,0.58677983,-2.9936209,-0.39729676,0.050861415,7.961069558,3.020297589,crawl
23/10/2020, 15:42:18,-7.460486,-1.9878663,0.7544312,-2.9936209,-0.39729676,0.050861415,7.75755304,3.020297589,crawl
23/10/2020, 15:42:18,-7.460486,-1.9878663,0.7544312,-3.354031,-0.3863012,0.044752765,7.75755304,3.376500547,crawl
23/10/2020, 15:42:18,-7.199429,-2.3998096,0.86220706,-3.354031,-0.3863012,0.044752765,7.637687186,3.376500547,crawl
23/10/2020, 15:42:18,-7.199429,-2.3998096,0.86220706,-3.5702775,-0.3618666,0.053304877,7.637687186,3.588965022,crawl
23/10/2020, 15:42:18,-7.038963,-2.936294,1.0178833,-3.5702775,-0.3618666,0.053304877,7.69447251,3.588965022,crawl
23/10/2020, 15:42:18,-7.038963,-2.936294,1.0178833,-3.635029,-0.33132333,0.07773948,7.69447251,3.650925221,crawl
23/10/2020, 15:42:18,-6.964717,-3.3769777,1.0466236,-3.635029,-0.33132333,0.07773948,7.810677362,3.650925221,crawl
23/10/2020, 15:42:18,-6.964717,-3.3769777,1.0466236,-3.571499,-0.28978452,0.11439138,7.810677362,3.585061554,crawl
23/10/2020, 15:42:18,-6.9024467,-3.8104763,1.0681788,-3.571499,-0.28978452,0.11439138,7.956412925,3.585061554,crawl
23/10/2020, 15:42:18,-6.9024467,-3.8104763,1.0681788,-3.409009,-0.23602839,0.15593019,7.956412925,3.420725924,crawl
23/10/2020, 15:42:18,-6.844966,-4.1074586,1.0226734,-3.409009,-0.23602839,0.15593019,8.048020598,3.420725924,crawl
23/10/2020, 15:42:19,-6.5072684,-2.1219873,1.4298267,0.21830739,-0.69295543,-0.8715448,6.992265526,1.134652216,crawl
23/10/2020, 15:42:19,-6.5072684,-2.1219873,1.4298267,0.21219875,-0.6343124,-0.7469283,6.992265526,1.002637704,crawl
23/10/2020, 15:42:19,-6.351592,-2.1555176,1.4298267,0.21219875,-0.6343124,-0.7469283,6.858088821,1.002637704,crawl
23/10/2020, 15:42:19,-6.351592,-2.1555176,1.4298267,0.21219875,-0.5707824,-0.61009455,6.858088821,0.861995499,crawl
23/10/2020, 15:42:19,-6.2941117,-2.1171973,1.4106666,0.21219875,-0.5707824,-0.61009455,6.788839884,0.861995499,crawl
23/10/2020, 15:42:19,-6.2941117,-2.1171973,1.4106666,0.2146422,-0.5023655,-0.46470866,6.788839884,0.717214426,crawl
23/10/2020, 15:42:19,-6.3923073,-2.1339624,1.4274317,0.2146422,-0.5023655,-0.46470866,6.888610102,0.717214426,crawl
23/10/2020, 15:42:19,-6.3923073,-2.1339624,1.4274317,0.21219875,-0.4473877,-0.3034403,6.888610102,0.580740972,crawl
23/10/2020, 15:42:19,-6.5168486,-2.0213966,1.4034815,0.21219875,-0.4473877,-0.3034403,6.965997405,0.580740972,crawl
23/10/2020, 15:42:19,-6.5168486,-2.0213966,1.4034815,0.20120317,-0.4070706,-0.1409502,6.965997405,0.475453629,crawl
23/10/2020, 15:42:19,-6.595884,-1.9351759,1.5088624,0.20120317,-0.4070706,-0.1409502,7.037560311,0.475453629,crawl
23/10/2020, 15:42:19,-6.595884,-1.9351759,1.5088624,0.17065993,-0.37652734,0.028870275,7.037560311,0.414404563,crawl
23/10/2020, 15:42:19,-6.605464,-1.8585353,1.590293,0.17065993,-0.37652734,0.028870275,7.043815715,0.414404563,crawl
23/10/2020, 15:42:19,-6.605464,-1.8585353,1.590293,0.11812553,-0.34964928,0.20602112,7.043815715,0.422673585,crawl
23/10/2020, 15:42:19,-6.550379,-1.7794995,1.5615528,0.11812553,-0.34964928,0.20602112,6.96509354,0.422673585,crawl
23/10/2020, 15:42:19,-6.550379,-1.7794995,1.5615528,0.04848692,-0.32521468,0.38683715,6.96509354,0.507699277,crawl
23/10/2020, 15:42:19,-6.3994923,-1.7315992,1.5926881,0.04848692,-0.32521468,0.38683715,6.818254351,0.507699277,crawl
23/10/2020, 15:42:19,-6.3994923,-1.7315992,1.5926881,-0.039477646,-0.29589316,0.5700967,6.818254351,0.643522698,crawl
23/10/2020, 15:42:19,-6.241421,-1.6525636,1.6190332,-0.039477646,-0.29589316,0.5700967,6.656393453,0.643522698,crawl
23/10/2020, 15:42:19,-6.241421,-1.6525636,1.6190332,-0.15065508,-0.25068915,0.75213444,6.656393453,0.806999517,crawl
23/10/2020, 15:42:19,-6.1144853,-1.6310084,1.5687379,-0.15065508,-0.25068915,0.75213444,6.519820311,0.806999517,crawl
23/10/2020, 15:42:19,-6.1144853,-1.6310084,1.5687379,-0.277715,-0.1957113,0.9329505,6.519820311,0.992887286,crawl
23/10/2020, 15:42:19,-6.090535,-1.6908839,1.4968873,-0.277715,-0.1957113,0.9329505,6.495720016,0.992887286,crawl
23/10/2020, 15:42:19,-6.090535,-1.6908839,1.4968873,-0.41943568,-0.13584653,1.1174318,6.495720016,1.201263629,crawl
23/10/2020, 15:42:19,-6.1504107,-1.7339942,1.4322218,-0.41943568,-0.13584653,1.1174318,6.548705707,1.201263629,crawl
23/10/2020, 15:42:19,-6.1504107,-1.7339942,1.4322218,-0.56482154,-0.07720348,1.3043565,6.548705707,1.423492014,crawl
23/10/2020, 15:42:19,-6.332432,-1.7531544,1.3651612,-0.56482154,-0.07720348,1.3043565,6.710954314,1.423492014,crawl
23/10/2020, 15:42:19,-6.332432,-1.7531544,1.3651612,-0.7089857,-0.021003902,1.4912812,6.710954314,1.651369535,crawl
23/10/2020, 15:42:19,-6.5455885,-1.829795,1.341211,-0.7089857,-0.021003902,1.4912812,6.927606031,1.651369535,crawl
23/10/2020, 15:42:19,-6.5455885,-1.829795,1.341211,-0.8458195,0.03275222,1.6745406,6.927606031,1.876318108,crawl
23/10/2020, 15:42:20,-9.307046,-2.6129665,2.548301,-0.9985357,-0.77847654,-0.85932744,9.997126391,1.53021008,crawl
23/10/2020, 15:42:20,-9.307046,-2.6129665,2.548301,-1.074283,-0.78214175,-1.0364783,9.997126391,1.685264641,crawl
23/10/2020, 15:42:20,-8.660391,-2.687212,2.4860303,-1.074283,-0.78214175,-1.0364783,9.402330821,1.685264641,crawl
23/10/2020, 15:42:20,-8.660391,-2.687212,2.4860303,-1.0669527,-0.7613723,-1.2087423,9.402330821,1.783012549,crawl
23/10/2020, 15:42:20,-8.109536,-2.6776319,2.5123756,-1.0669527,-0.7613723,-1.2087423,8.902040237,1.783012549,crawl
23/10/2020, 15:42:20,-8.109536,-2.6776319,2.5123756,-0.9850967,-0.72960734,-1.3748975,8.902040237,1.842032967,crawl
23/10/2020, 15:42:20,-7.814949,-2.5147705,2.6441016,-0.9850967,-0.72960734,-1.3748975,8.624892609,1.842032967,crawl
23/10/2020, 15:42:20,-7.814949,-2.5147705,2.6441016,-0.8665889,-0.703951,-1.5349442,8.624892609,1.898045559,crawl
23/10/2020, 15:42:20,-7.5970025,-2.4764502,2.5866213,-0.8665889,-0.703951,-1.5349442,8.39868218,1.898045559,crawl
23/10/2020, 15:42:20,-7.5970025,-2.4764502,2.5866213,-0.748081,-0.69051194,-1.6827735,8.39868218,1.966763463,crawl
23/10/2020, 15:42:20,-7.5970025,-2.4764502,2.5866213,-0.6295732,-0.6856251,-1.820829,8.39868218,2.044960284,crawl
23/10/2020, 15:42:20,-7.4892263,-2.5219557,2.5938063,-0.6295732,-0.6856251,-1.820829,8.317247311,2.044960284,crawl
23/10/2020, 15:42:20,-7.568262,-2.6608667,2.6488917,-0.6295732,-0.6856251,-1.820829,8.448398084,2.044960284,crawl
23/10/2020, 15:42:20,-7.568262,-2.6608667,2.6488917,-0.47685698,-0.68073815,-1.9405586,8.448398084,2.111057674,crawl
23/10/2020, 15:42:20,-7.8580594,-2.9770093,2.6560767,-0.47685698,-0.68073815,-1.9405586,8.812855681,2.111057674,crawl
23/10/2020, 15:42:20,-7.8580594,-2.9770093,2.6560767,-0.2691629,-0.6697426,-2.0346317,8.812855681,2.158872406,crawl
23/10/2020, 15:42:20,-8.387359,-3.3985329,2.6967921,-0.2691629,-0.6697426,-2.0346317,9.443013227,2.158872406,crawl
23/10/2020, 15:42:20,-8.387359,-3.3985329,2.6967921,-0.013821316,-0.66119045,-2.0944965,9.443013227,2.196424226,crawl
23/10/2020, 15:42:20,-8.971744,-3.7122805,2.6249416,-0.013821316,-0.66119045,-2.0944965,10.05800815,2.196424226,crawl
23/10/2020, 15:42:20,-8.971744,-3.7122805,2.6249416,0.27328524,-0.6526383,-2.1299267,10.05800815,2.244372799,crawl
23/10/2020, 15:42:20,-9.536968,-3.9134622,2.5962012,0.27328524,-0.6526383,-2.1299267,10.63057899,2.244372799,crawl
23/10/2020, 15:42:20,-9.536968,-3.9134622,2.5962012,0.5884916,-0.64408624,-2.1384788,10.63057899,2.309601884,crawl
23/10/2020, 15:42:20,-10.032737,-4.026028,2.5243506,0.5884916,-0.64408624,-2.1384788,11.10121868,2.309601884,crawl
23/10/2020, 15:42:20,-10.032737,-4.026028,2.5243506,0.91591525,-0.6379776,-2.1384788,11.10121868,2.412261917,crawl
23/10/2020, 15:42:20,-10.547667,-4.0499783,2.3782544,0.91591525,-0.6379776,-2.1384788,11.54606806,2.412261917,crawl
23/10/2020, 15:42:20,-10.547667,-4.0499783,2.3782544,1.2445606,-0.6355341,-2.123818,11.54606806,2.542329099,crawl
23/10/2020, 15:42:20,-10.890154,-4.040398,2.1435425,1.2445606,-0.6355341,-2.123818,11.81164862,2.542329099,crawl
23/10/2020, 15:42:20,-10.890154,-4.040398,2.1435425,1.5292237,-0.64164275,-2.1079354,11.81164862,2.682092887,crawl
23/10/2020, 15:42:20,-11.218272,-4.014053,2.064507,1.5292237,-0.64164275,-2.1079354,12.09232984,2.682092887,crawl
23/10/2020, 15:42:20,-11.218272,-4.014053,2.064507,1.7442482,-0.6636339,-2.0712836,12.09232984,2.788014923,crawl
23/10/2020, 15:42:21,-7.790999,-1.9878663,0.9268726,-3.082807,-0.06620791,-0.27289703,8.093847639,3.095570331,crawl
23/10/2020, 15:42:21,-7.479646,-2.3471193,1.1615845,-3.082807,-0.06620791,-0.27289703,7.924856785,3.095570331,crawl
23/10/2020, 15:42:21,-7.479646,-2.3471193,1.1615845,-3.2941663,0.019313188,-0.28022742,7.924856785,3.306120414,crawl
23/10/2020, 15:42:21,-7.4652762,-2.7901978,1.3124708,-3.2941663,0.019313188,-0.28022742,8.077012627,3.306120414,crawl
23/10/2020, 15:42:21,-7.4652762,-2.7901978,1.3124708,-3.3821309,0.110942945,-0.27411878,8.077012627,3.395034404,crawl
23/10/2020, 15:42:21,-7.6257424,-3.3147073,1.4849122,-3.3821309,0.110942945,-0.27411878,8.446549364,3.395034404,crawl
23/10/2020, 15:42:21,-7.6257424,-3.3147073,1.4849122,-3.3295965,0.18669021,-0.25579283,8.446549364,3.34462198,crawl
23/10/2020, 15:42:21,-7.8197393,-3.8511915,1.7747096,-3.3295965,0.18669021,-0.25579283,8.89548164,3.34462198,crawl
23/10/2020, 15:42:21,-7.8197393,-3.8511915,1.7747096,-3.132898,0.24166806,-0.22402784,8.89548164,3.150181325,crawl
23/10/2020, 15:42:21,-8.006551,-4.3541455,1.9687061,-3.132898,0.24166806,-0.22402784,9.324121548,3.150181325,crawl
23/10/2020, 15:42:21,-8.006551,-4.3541455,1.9687061,-2.8176916,0.28931552,-0.18981941,9.324121548,2.838859037,crawl
23/10/2020, 15:42:21,-8.013736,-4.742139,2.1171973,-2.8176916,0.28931552,-0.18981941,9.549364707,2.838859037,crawl
23/10/2020, 15:42:21,-8.013736,-4.742139,2.1171973,-2.4120772,0.3381847,-0.1568327,9.549364707,2.440713371,crawl
23/10/2020, 15:42:21,-7.9706254,-4.996011,2.201023,-2.4120772,0.3381847,-0.1568327,9.661029743,2.440713371,crawl
23/10/2020, 15:42:21,-7.9706254,-4.996011,2.201023,-1.9588156,0.39804947,-0.13361983,9.661029743,2.003311283,crawl
23/10/2020, 15:42:21,-7.824529,-5.1157618,2.193838,-1.9588156,0.39804947,-0.13361983,9.602458006,2.003311283,crawl
23/10/2020, 15:42:21,-7.824529,-5.1157618,2.193838,-1.4798974,0.4628012,-0.11773733,9.602458006,1.55503803,crawl
23/10/2020, 15:42:21,-7.668853,-5.113367,2.0812721,-1.4798974,0.4628012,-0.11773733,9.449313198,1.55503803,crawl
23/10/2020, 15:42:21,-7.668853,-5.113367,2.0812721,-1.0046444,0.53366154,-0.11040695,9.449313198,1.142932499,crawl
23/10/2020, 15:42:21,-7.589817,-4.984036,1.9734962,-1.0046444,0.53366154,-0.11040695,9.291965594,1.142932499,crawl
23/10/2020, 15:42:21,-7.589817,-4.984036,1.9734962,-0.5550477,0.6118522,-0.10185484,9.291965594,0.832355391,crawl
23/10/2020, 15:42:21,-7.553892,-4.8259645,1.7555494,-0.5550477,0.6118522,-0.10185484,9.134176103,0.832355391,crawl
23/10/2020, 15:42:21,-7.553892,-4.8259645,1.7555494,-0.16898103,0.69737333,-0.09452446,9.134176103,0.723753428,crawl
23/10/2020, 15:42:21,-7.709568,-4.536167,1.7627344,-0.16898103,0.69737333,-0.09452446,9.117098447,0.723753428,crawl
23/10/2020, 15:42:21,-7.709568,-4.536167,1.7627344,0.19142933,0.77067715,-0.08963754,9.117098447,0.799139128,crawl
23/10/2020, 15:42:21,-7.9394903,-4.277505,1.8872755,0.19142933,0.77067715,-0.08963754,9.213813733,0.799139128,crawl
23/10/2020, 15:42:21,-7.9394903,-4.277505,1.8872755,0.51763123,0.8293202,-0.08719408,9.213813733,0.981487077,crawl
23/10/2020, 15:42:21,-8.260423,-4.038003,2.0501368,0.51763123,0.8293202,-0.08719408,9.420356266,0.981487077,crawl
23/10/2020, 15:42:21,-8.260423,-4.038003,2.0501368,0.79129875,0.8794111,-0.083528884,9.420356266,1.185957279,crawl
23/10/2020, 15:42:21,-8.571775,-3.796106,2.2680836,0.79129875,0.8794111,-0.083528884,9.645203925,1.185957279,crawl
23/10/2020, 15:42:22,-6.6916847,-1.9639161,1.9136207,0.108351685,0.14881657,0.2707728,7.231704844,0.327420794,crawl
23/10/2020, 15:42:22,-6.706055,-1.9232007,1.9639161,0.108351685,0.14881657,0.2707728,7.247540494,0.327420794,crawl
23/10/2020, 15:42:22,-6.706055,-1.9232007,1.9639161,0.054595567,0.20623788,0.39905447,7.247540494,0.452503269,crawl
23/10/2020, 15:42:22,-6.6916847,-1.9399658,1.9854712,0.054595567,0.20623788,0.39905447,7.244598539,0.452503269,crawl
23/10/2020, 15:42:22,-6.6916847,-1.9399658,1.9854712,-0.004047475,0.26365918,0.5273361,7.244598539,0.589589628,crawl
23/10/2020, 15:42:22,-6.6773148,-1.9327809,1.9974464,-0.004047475,0.26365918,0.5273361,7.232701185,0.589589628,crawl
23/10/2020, 15:42:22,-6.6773148,-1.9327809,1.9974464,-0.06757744,0.32718915,0.6531743,7.232701185,0.733659383,crawl
23/10/2020, 15:42:22,-6.68929,-1.9687061,1.9902613,-0.06757744,0.32718915,0.6531743,7.251451252,0.733659383,crawl
23/10/2020, 15:42:22,-6.68929,-1.9687061,1.9902613,-0.1274422,0.3943843,0.78634286,7.251451252,0.888884457,crawl
23/10/2020, 15:42:22,-6.799461,-2.0333717,1.9950514,-0.1274422,0.3943843,0.78634286,7.372075611,0.888884457,crawl
23/10/2020, 15:42:22,-6.799461,-2.0333717,1.9950514,-0.18486351,0.45913598,0.92195493,7.372075611,1.046413521,crawl
23/10/2020, 15:42:22,-7.0174074,-2.0932472,1.949546,-0.18486351,0.45913598,0.92195493,7.578022178,1.046413521,crawl
23/10/2020, 15:42:22,-7.0174074,-2.0932472,1.949546,-0.23861964,0.5251094,1.0600104,7.578022178,1.206773112,crawl
23/10/2020, 15:42:22,-7.3000197,-2.1339624,1.8968556,-0.23861964,0.5251094,1.0600104,7.838503993,1.206773112,crawl
23/10/2020, 15:42:22,-7.3000197,-2.1339624,1.8968556,-0.2899323,0.58741766,1.2041745,7.838503993,1.370823302,crawl
23/10/2020, 15:42:22,-7.6137676,-2.2465284,1.8202149,-0.2899323,0.58741766,1.2041745,8.144294284,1.370823302,crawl
23/10/2020, 15:42:22,-7.6137676,-2.2465284,1.8202149,-0.3351363,0.6472824,1.347117,8.144294284,1.531670636,crawl
23/10/2020, 15:42:22,-7.9538603,-2.2944288,1.8010547,-0.3351363,0.6472824,1.347117,8.471841307,1.531670636,crawl
23/10/2020, 15:42:22,-7.9538603,-2.2944288,1.8010547,-0.3803403,0.703482,1.4839507,8.471841307,1.685721038,crawl
23/10/2020, 15:42:22,-8.265213,-2.3423293,1.8369801,-0.3803403,0.703482,1.4839507,8.78491596,1.685721038,crawl
23/10/2020, 15:42:22,-8.265213,-2.3423293,1.8369801,-0.42554432,0.75357294,1.6244497,8.78491596,1.840596934,crawl
23/10/2020, 15:42:22,-8.56459,-2.4093897,1.84177,-0.42554432,0.75357294,1.6244497,9.085674739,1.840596934,crawl
23/10/2020, 15:42:22,-8.56459,-2.4093897,1.84177,-0.47197008,0.8012204,1.75884,9.085674739,1.989529577,crawl
23/10/2020, 15:42:22,-8.8951025,-2.4453151,1.8824854,-0.47197008,0.8012204,1.75884,9.41520928,1.989529577,crawl
23/10/2020, 15:42:22,-8.8951025,-2.4453151,1.8824854,-0.5306131,0.84398097,1.8871217,9.41520928,2.134263898,crawl
23/10/2020, 15:42:22,-9.153765,-2.4908204,1.9208057,-0.5306131,0.84398097,1.8871217,9.679105819,2.134263898,crawl
23/10/2020, 15:42:22,-9.153765,-2.4908204,1.9208057,-0.5965865,0.8745242,2.0044076,9.679105819,2.266794658,crawl
23/10/2020, 15:42:22,-9.441168,-2.5195606,1.961521,-0.5965865,0.8745242,2.0044076,9.966513947,2.266794658,crawl
23/10/2020, 15:42:22,-9.441168,-2.5195606,1.961521,-0.67355555,0.90140224,2.1058114,9.966513947,2.387602259,crawl
23/10/2020, 15:42:22,-9.733359,-2.562671,1.949546,-0.67355555,0.90140224,2.1058114,10.25213616,2.387602259,crawl
23/10/2020, 15:42:23,-9.390872,-3.0752053,2.6560767,0.319711,-0.807798,-1.0218176,10.23230707,1.341217325,crawl
23/10/2020, 15:42:23,-8.677156,-3.056045,2.4572902,0.319711,-0.807798,-1.0218176,9.522117958,1.341217325,crawl
23/10/2020, 15:42:23,-8.677156,-3.056045,2.4572902,0.37591058,-0.81146324,-1.1659817,9.522117958,1.46945383,crawl
23/10/2020, 15:42:23,-8.200547,-3.0871804,2.3064039,0.37591058,-0.81146324,-1.1659817,9.060858469,1.46945383,crawl
23/10/2020, 15:42:23,-8.200547,-3.0871804,2.3064039,0.487088,-0.79191554,-1.2979286,9.060858469,1.596559898,crawl
23/10/2020, 15:42:23,-8.097562,-3.2476466,2.2177882,0.487088,-0.79191554,-1.2979286,9.00201647,1.596559898,crawl
23/10/2020, 15:42:23,-8.097562,-3.2476466,2.2177882,0.64713466,-0.7528202,-1.4176581,9.00201647,1.730686562,crawl
23/10/2020, 15:42:23,-8.303533,-3.5182838,2.074087,0.64713466,-0.7528202,-1.4176581,9.253583703,1.730686562,crawl
23/10/2020, 15:42:23,-8.303533,-3.5182838,2.074087,0.8377245,-0.70639443,-1.5105096,9.253583703,1.866122913,crawl
23/10/2020, 15:42:23,-8.727451,-3.661985,1.9998415,0.8377245,-0.70639443,-1.5105096,9.673567388,1.866122913,crawl
23/10/2020, 15:42:23,-8.727451,-3.661985,1.9998415,1.0441968,-0.6880685,-1.5850351,9.673567388,2.018940699,crawl
23/10/2020, 15:42:23,-9.206455,-3.7290456,1.9279908,1.0441968,-0.6880685,-1.5850351,10.11838662,2.018940699,crawl
23/10/2020, 15:42:23,-9.206455,-3.7290456,1.9279908,1.2494475,-0.69662064,-1.6497868,10.11838662,2.183619901,crawl
23/10/2020, 15:42:23,-9.532178,-3.7482057,1.8106349,1.2494475,-0.69662064,-1.6497868,10.40143549,2.183619901,crawl
23/10/2020, 15:42:23,-9.532178,-3.7482057,1.8106349,1.4363722,-0.71250314,-1.7072082,10.40143549,2.342089962,crawl
23/10/2020, 15:42:23,-9.764495,-3.6500099,1.7747096,1.4363722,-0.71250314,-1.7072082,10.57438068,2.342089962,crawl
23/10/2020, 15:42:23,-9.764495,-3.6500099,1.7747096,1.6049709,-0.72594213,-1.7475252,10.57438068,2.48128355,crawl
23/10/2020, 15:42:23,-9.929751,-3.6308498,1.7483643,1.6049709,-0.72594213,-1.7475252,10.71633385,2.48128355,crawl
23/10/2020, 15:42:23,-9.929751,-3.6308498,1.7483643,1.7515786,-0.72960734,-1.7744032,10.71633385,2.597857026,crawl
23/10/2020, 15:42:23,-10.128538,-3.5254688,1.6765138,1.7515786,-0.72960734,-1.7744032,10.85481062,2.597857026,crawl
23/10/2020, 15:42:23,-10.128538,-3.5254688,1.6765138,1.8737515,-0.72716385,-1.7817336,10.85481062,2.685942435,crawl
23/10/2020, 15:42:23,-10.37283,-3.412903,1.5711329,1.8737515,-0.72716385,-1.7817336,11.03231509,2.685942435,crawl
23/10/2020, 15:42:23,-10.37283,-3.412903,1.5711329,1.9604944,-0.7234987,-1.7731816,11.03231509,2.740649831,crawl
23/10/2020, 15:42:23,-10.669812,-3.288362,1.4058765,1.9604944,-0.7234987,-1.7731816,11.2532087,2.740649831,crawl
23/10/2020, 15:42:23,-10.669812,-3.288362,1.4058765,2.0130289,-0.7210552,-1.7548555,11.2532087,2.766174919,crawl
23/10/2020, 15:42:23,-10.92608,-3.1159205,1.3004956,2.0130289,-0.7210552,-1.7548555,11.43588512,2.766174919,crawl
23/10/2020, 15:42:23,-10.92608,-3.1159205,1.3004956,2.021581,-0.72716385,-1.7267557,11.43588512,2.756309511,crawl
23/10/2020, 15:42:23,-11.120076,-2.955454,1.2502003,2.021581,-0.72716385,-1.7267557,11.57384137,2.756309511,crawl
23/10/2020, 15:42:23,-11.120076,-2.955454,1.2502003,1.9885942,-0.74426806,-1.6901039,11.57384137,2.713833615,crawl
23/10/2020, 15:42:23,-11.292518,-2.816543,1.2070899,1.9885942,-0.74426806,-1.6901039,11.70089468,2.713833615,crawl
23/10/2020, 15:42:48,-9.766891,-2.2585034,1.3723463,0.96600616,-0.857889,-1.3981104,10.11811853,1.903642323,crawl
23/10/2020, 15:42:48,-9.410032,-2.2273684,1.3100758,0.96600616,-0.857889,-1.3981104,9.758390013,1.903642323,crawl
23/10/2020, 15:42:48,-9.410032,-2.2273684,1.3100758,0.78152496,-0.8505586,-1.3687888,9.758390013,1.79103714,crawl
23/10/2020, 15:42:48,-9.038804,-2.2441335,1.2022998,0.78152496,-0.8505586,-1.3687888,9.390507902,1.79103714,crawl
23/10/2020, 15:42:48,-9.038804,-2.2441335,1.2022998,0.6178131,-0.8371196,-1.3406891,9.390507902,1.697029579,crawl
23/10/2020, 15:42:48,-8.804092,-2.2417383,1.1591895,0.6178131,-0.8371196,-1.3406891,9.158665515,1.697029579,crawl
23/10/2020, 15:42:48,-8.804092,-2.2417383,1.1591895,0.4797576,-0.8212371,-1.3138111,9.158665515,1.621942424,crawl
23/10/2020, 15:42:48,-8.473579,-2.2848487,1.0346485,0.4797576,-0.8212371,-1.3138111,8.837000571,1.621942424,crawl
23/10/2020, 15:42:48,-8.473579,-2.2848487,1.0346485,0.36369327,-0.8041329,-1.295485,8.837000571,1.567540722,crawl
23/10/2020, 15:42:48,-8.186177,-2.2752686,0.9268726,0.36369327,-0.8041329,-1.295485,8.546896388,1.567540722,crawl
23/10/2020, 15:42:48,-8.186177,-2.2752686,0.9268726,0.27328524,-0.77603304,-1.2747157,8.546896388,1.517172412,crawl
23/10/2020, 15:42:48,-7.8820095,-2.3016138,0.8143067,0.27328524,-0.77603304,-1.2747157,8.251460194,1.517172412,crawl
23/10/2020, 15:42:48,-7.8820095,-2.3016138,0.8143067,0.20486836,-0.72960734,-1.2502811,8.251460194,1.462019405,crawl
23/10/2020, 15:42:48,-7.6329274,-2.3064039,0.8334668,0.20486836,-0.72960734,-1.2502811,8.017215648,1.462019405,crawl
23/10/2020, 15:42:48,-7.6329274,-2.3064039,0.8334668,0.16210781,-0.6660774,-1.2160727,8.017215648,1.395983801,crawl
23/10/2020, 15:42:48,-7.5323367,-2.315984,0.8334668,0.16210781,-0.6660774,-1.2160727,7.92430093,1.395983801,crawl
23/10/2020, 15:42:48,-7.5323367,-2.315984,0.8334668,0.1535557,-0.58910835,-1.1696469,7.92430093,1.318598413,crawl
23/10/2020, 15:42:48,-7.5227566,-2.4764502,0.8861573,0.1535557,-0.58910835,-1.1696469,7.969312821,1.318598413,crawl
23/10/2020, 15:42:48,-7.5227566,-2.4764502,0.8861573,0.17188165,-0.5133611,-1.1097821,7.969312821,1.234787117,crawl
23/10/2020, 15:42:48,-7.6664577,-2.5411158,1.0250684,0.17188165,-0.5133611,-1.1097821,8.141413114,1.234787117,crawl
23/10/2020, 15:42:48,-7.6664577,-2.5411158,1.0250684,0.21097702,-0.4559398,-1.0474739,8.141413114,1.161720272,crawl
23/10/2020, 15:42:48,-7.685618,-2.5914114,1.1352394,0.21097702,-0.4559398,-1.0474739,8.189804886,1.161720272,crawl
23/10/2020, 15:42:48,-7.685618,-2.5914114,1.1352394,0.25373757,-0.40584886,-0.98516566,8.189804886,1.095284173,crawl
23/10/2020, 15:42:48,-7.668853,-2.6009912,1.2478052,0.25373757,-0.40584886,-0.98516566,8.193502105,1.095284173,crawl
23/10/2020, 15:42:48,-7.668853,-2.6009912,1.2478052,0.3001633,-0.35575795,-0.91919225,8.193502105,1.030328165,crawl
23/10/2020, 15:42:48,-7.668853,-2.6009912,1.2478052,-0.19952427,0.4811271,0.7912298,8.193502105,0.947279159,crawl
23/10/2020, 15:42:48,-7.668853,-2.6009912,1.2478052,-0.28138018,0.47746193,0.74846923,8.193502105,0.931316754,crawl
23/10/2020, 15:42:48,-7.668853,-2.6009912,1.2478052,-0.32169726,0.47746193,0.70082176,8.193502105,0.906978591,crawl
23/10/2020, 15:42:48,-7.668853,-2.6009912,1.2478052,-0.32536247,0.47868368,0.65439606,8.193502105,0.873632076,crawl
23/10/2020, 15:42:48,-7.668853,-2.6009912,1.2478052,-0.30581477,0.4799054,0.609192,8.193502105,0.833634677,crawl
23/10/2020, 15:43:01,-7.173084,-2.3590944,1.7411792,0.27084178,-0.18349399,-0.18737595,7.749203982,0.377008034,crawl
23/10/2020, 15:43:01,-7.1347637,-2.3255641,1.7507594,0.27084178,-0.18349399,-0.18737595,7.705729054,0.377008034,crawl
23/10/2020, 15:43:01,-7.180269,-2.2225783,1.8010547,0.27084178,-0.18349399,-0.18737595,7.729159842,0.377008034,crawl
23/10/2020, 15:43:01,-7.220984,-2.179468,1.7794995,0.27084178,-0.18349399,-0.18737595,7.749794104,0.377008034,crawl
23/10/2020, 15:43:01,-7.206614,-2.1100123,1.9136207,0.27084178,-0.18349399,-0.18737595,7.749153612,0.377008034,crawl
23/10/2020, 15:43:01,-7.1635036,-2.1076174,1.9782863,0.27084178,-0.18349399,-0.18737595,7.724729902,0.377008034,crawl
23/10/2020, 15:43:01,-7.046148,-2.074087,2.0261867,0.27084178,-0.18349399,-0.18737595,7.619413901,0.377008034,crawl
23/10/2020, 15:43:01,-6.861731,-2.0621119,2.1435425,0.27084178,-0.18349399,-0.18737595,7.478665182,0.377008034,crawl
23/10/2020, 15:43:01,-6.8114357,-2.0573218,2.1531227,0.27084178,-0.18349399,-0.18737595,7.43398725,0.377008034,crawl
23/10/2020, 15:43:01,-6.71324,-2.0405567,2.1219873,0.27084178,-0.18349399,-0.18737595,7.330368004,0.377008034,crawl
23/10/2020, 15:43:01,-6.6773148,-2.0166066,2.1483326,0.27084178,-0.18349399,-0.18737595,7.298531865,0.377008034,crawl
23/10/2020, 15:43:01,-6.6533647,-1.9854712,2.1579127,0.27084178,-0.18349399,-0.18737595,7.270897105,0.377008034,crawl
23/10/2020, 15:43:01,-6.71803,-1.951941,2.2632935,0.27084178,-0.18349399,-0.18737595,7.352856449,0.377008034,crawl
23/10/2020, 15:43:01,-6.835386,-1.951941,2.198628,0.27084178,-0.18349399,-0.18737595,7.440869412,0.377008034,crawl
23/10/2020, 15:43:01,-6.950347,-1.9447559,2.2656887,0.27084178,-0.18349399,-0.18737595,7.564571589,0.377008034,crawl
23/10/2020, 15:43:01,-7.079678,-1.8609302,2.2489235,0.27084178,-0.18349399,-0.18737595,7.657843021,0.377008034,crawl
23/10/2020, 15:43:01,-7.199429,-1.83219,2.184258,0.27084178,-0.18349399,-0.18737595,7.74336372,0.377008034,crawl
23/10/2020, 15:43:01,-7.199429,-1.83219,2.184258,0.23663335,-0.12973787,-0.083528884,7.74336372,0.2824966,crawl
23/10/2020, 15:43:01,-7.199429,-1.83219,2.184258,0.2024249,-0.07231656,0.020318165,7.74336372,0.215912834,crawl
23/10/2020, 15:43:01,-7.199429,-1.83219,2.184258,0.1779903,-0.016116982,0.12538694,7.74336372,0.218316718,crawl
23/10/2020, 15:43:01,-7.199429,-1.83219,2.184258,0.15844262,0.041304328,0.2341209,7.74336372,0.285696882,crawl
23/10/2020, 15:43:01,-7.199429,-1.83219,2.184258,0.13522975,0.1011691,0.34529835,7.74336372,0.384386815,crawl
23/10/2020, 15:43:01,-7.199429,-1.83219,2.184258,0.107129954,0.15981214,0.4576975,7.74336372,0.496491448,crawl
23/10/2020, 15:43:01,-7.199429,-1.83219,2.184258,0.07047805,0.21845518,0.5713184,7.74336372,0.615706523,crawl
23/10/2020, 15:43:01,-7.199429,-1.83219,2.184258,0.017943665,0.27221128,0.68249583,7.74336372,0.734997632,crawl
23/10/2020, 15:43:01,-7.199429,-1.83219,2.184258,-0.045586295,0.3210805,0.794895,7.74336372,0.858503845,crawl
23/10/2020, 15:43:01,-7.199429,-1.83219,2.184258,-0.1188901,0.3699497,0.91095936,7.74336372,0.990375987,crawl
23/10/2020, 15:43:01,-7.199429,-1.83219,2.184258,-0.19952427,0.4188189,1.0282454,7.74336372,1.128054919,crawl
23/10/2020, 15:43:01,-7.199429,-1.83219,2.184258,-0.27649325,0.47013155,1.147975,7.74336372,1.270951894,crawl
23/10/2020, 15:43:01,-7.199429,-1.83219,2.184258,-0.3510188,0.5251094,1.265261,7.74336372,1.414156857,crawl
23/10/2020, 15:43:02,-7.7215433,-2.0190015,1.8274,-0.22518061,0.45424905,1.5987934,8.187672976,1.677256333,crawl
23/10/2020, 15:43:02,-7.7215433,-2.0190015,1.8274,-0.28138018,0.53366154,1.7893833,8.187672976,1.888349018,crawl
23/10/2020, 15:43:02,-7.7215433,-2.0190015,1.8274,-0.35346225,0.6118522,1.9787514,8.187672976,2.101132051,crawl
23/10/2020, 15:43:02,-7.7215433,-2.0190015,1.8274,-0.43898335,0.68149084,2.1607893,8.187672976,2.307844521,crawl
23/10/2020, 15:43:02,-7.7215433,-2.0190015,1.8274,-0.5452739,0.7437991,2.3354967,8.187672976,2.51099689,crawl
23/10/2020, 15:43:02,-7.7215433,-2.0190015,1.8274,-0.6686686,0.7975552,2.50043,8.187672976,2.708387484,crawl
23/10/2020, 15:43:02,-7.7215433,-2.0190015,1.8274,-0.80794585,0.8427592,2.640929,8.187672976,2.88747735,crawl
23/10/2020, 15:43:02,-7.7215433,-2.0190015,1.8274,-0.9569969,0.88551974,2.7716541,8.187672976,3.063014027,crawl
23/10/2020, 15:43:02,-7.7215433,-2.0190015,1.8274,-1.1146002,0.92217165,2.890162,8.187672976,3.231991717,crawl
23/10/2020, 15:43:02,-7.7215433,-2.0190015,1.8274,-1.2746468,0.9649322,2.9976742,8.187672976,3.397332672,crawl
23/10/2020, 15:43:02,-7.7215433,-2.0190015,1.8274,-1.4383585,1.0309056,3.1051865,8.187672976,3.574048774,crawl
23/10/2020, 15:43:02,-7.7215433,-2.0190015,1.8274,-1.5678619,1.1249789,3.2188075,8.187672976,3.75293085,crawl
23/10/2020, 15:43:02,-7.7215433,-2.0190015,1.8274,-1.65827,1.2202737,3.3336499,8.187672976,3.918181831,crawl
23/10/2020, 15:43:02,-7.7215433,-2.0190015,1.8274,-1.7364607,1.2801386,3.4277232,8.187672976,4.050103295,crawl
23/10/2020, 15:43:02,-7.7215433,-2.0190015,1.8274,-1.8329774,1.2984645,3.4765923,8.187672976,4.139143678,crawl
23/10/2020, 15:43:02,-7.7215433,-2.0190015,1.8274,-1.9527069,1.2947993,3.4888096,8.187672976,4.202542325,crawl
23/10/2020, 15:43:02,-7.7215433,-2.0190015,1.8274,-2.0614407,1.2508171,3.4936967,8.187672976,4.24499678,crawl
23/10/2020, 15:43:02,-7.7215433,-2.0190015,1.8274,-2.17384,1.1506351,3.4778142,8.187672976,4.259663522,crawl
23/10/2020, 15:43:02,-7.7215433,-2.0190015,1.8274,-2.3216693,0.9637105,3.4216146,8.187672976,4.245742953,crawl
23/10/2020, 15:43:02,-7.7215433,-2.0190015,1.8274,-2.4975984,0.75112945,3.3324282,8.187672976,4.231698369,crawl
23/10/2020, 15:43:02,-7.7215433,-2.0190015,1.8274,-2.644206,0.5935263,3.220029,8.187672976,4.208644271,crawl
23/10/2020, 15:43:02,-7.7215433,-2.0190015,1.8274,-2.707736,0.5055617,3.0734215,8.187672976,4.127147508,crawl
23/10/2020, 15:43:02,-7.7215433,-2.0190015,1.8274,-2.6515365,0.47868368,2.8926055,8.187672976,3.953093791,crawl
23/10/2020, 15:43:02,-8.159832,-2.0285816,1.7962648,-2.6515365,0.47868368,2.8926055,8.597939799,3.953093791,crawl
23/10/2020, 15:43:02,-8.499925,-2.0980372,1.7148341,-2.6515365,0.47868368,2.8926055,8.921386409,3.953093791,crawl
23/10/2020, 15:43:02,-8.844808,-2.1267774,1.6501685,-2.6515365,0.47868368,2.8926055,9.245369667,3.953093791,crawl
23/10/2020, 15:43:02,-9.187295,-2.1627028,1.5998731,-2.6515365,0.47868368,2.8926055,9.573048935,3.953093791,crawl
23/10/2020, 15:43:02,-9.592053,-2.2944288,1.5088624,-2.6515365,0.47868368,2.8926055,9.977402367,3.953093791,crawl
23/10/2020, 15:43:02,-9.994417,-2.4189699,1.4226416,-2.6515365,0.47868368,2.8926055,10.3809296,3.953093791,crawl
23/10/2020, 15:43:02,-10.571617,-2.6033864,1.3004956,-2.6515365,0.47868368,2.8926055,10.96485286,3.953093791,crawl
23/10/2020, 15:43:03,-13.186978,-3.4416432,1.81782,-1.01564,1.0443447,2.9598005,13.74939182,3.298878494,crawl
23/10/2020, 15:43:03,-13.186978,-3.4416432,1.81782,-1.0290791,1.101766,2.9830134,13.74939182,3.34234363,crawl
23/10/2020, 15:43:03,-13.186978,-3.4416432,1.81782,-1.0755048,1.1225353,2.9683528,13.74939182,3.35080803,crawl
23/10/2020, 15:43:03,-13.186978,-3.4416432,1.81782,-1.1683563,1.1078746,2.9207053,13.74939182,3.335110523,crawl
23/10/2020, 15:43:03,-13.186978,-3.4416432,1.81782,-1.3088552,1.0467881,2.8547318,13.74939182,3.310341497,crawl
23/10/2020, 15:43:03,-13.186978,-3.4416432,1.81782,-1.5006669,0.90628916,2.7753193,13.74939182,3.282645044,crawl
23/10/2020, 15:43:03,-13.186978,-3.4416432,1.81782,-1.7462345,0.69859505,2.672694,13.74939182,3.268128385,crawl
23/10/2020, 15:43:03,-13.186978,-3.4416432,1.81782,-1.9844719,0.51044863,2.546856,13.74939182,3.268816561,crawl
23/10/2020, 15:43:03,-13.186978,-3.4416432,1.81782,-2.1359663,0.4114885,2.4136872,13.74939182,3.249240045,crawl
23/10/2020, 15:43:03,-13.186978,-3.4416432,1.81782,-2.1848354,0.3772801,2.2585275,13.74939182,3.164931703,crawl
23/10/2020, 15:43:03,-13.186978,-3.4416432,1.81782,-2.1335227,0.3699497,2.080155,13.74939182,3.00263659,crawl
23/10/2020, 15:43:03,-14.54256,-3.5757644,1.8010547,-2.1335227,0.3699497,2.080155,15.08363118,3.00263659,crawl
23/10/2020, 15:43:03,-15.90293,-3.5566041,1.7699195,-2.1335227,0.3699497,2.080155,16.391621,3.00263659,crawl
23/10/2020, 15:43:03,-17.078884,-3.6548,1.5543678,-2.1335227,0.3699497,2.080155,17.53459166,3.00263659,crawl
23/10/2020, 15:43:03,-17.869242,-3.666775,1.4441968,-2.1335227,0.3699497,2.080155,18.29865412,3.00263659,crawl
23/10/2020, 15:43:03,-17.871637,-3.65959,1.4010864,-2.1335227,0.3699497,2.080155,18.29620353,3.00263659,crawl
23/10/2020, 15:43:03,-16.561562,-3.652405,1.5423926,-2.1335227,0.3699497,2.080155,17.02951437,3.00263659,crawl
23/10/2020, 15:43:03,-14.774877,-3.642825,1.9567311,-2.1335227,0.3699497,2.080155,15.34261868,3.00263659,crawl
23/10/2020, 15:43:03,-12.954661,-3.781736,2.2848487,-2.1335227,0.3699497,2.080155,13.68741433,3.00263659,crawl
23/10/2020, 15:43:03,-11.414663,-3.9182522,2.548301,-2.1335227,0.3699497,2.080155,12.33454811,3.00263659,crawl
23/10/2020, 15:43:03,-10.111773,-3.9805226,2.7375073,-2.1335227,0.3699497,2.080155,11.20653607,3.00263659,crawl
23/10/2020, 15:43:03,-8.978929,-3.906277,2.8213332,-2.1335227,0.3699497,2.080155,10.19019522,3.00263659,crawl
23/10/2020, 15:43:03,-8.018526,-3.791316,2.8380983,-2.1335227,0.3699497,2.080155,9.312660178,3.00263659,crawl
23/10/2020, 15:43:03,-7.4101906,-3.657195,2.8476784,-2.1335227,0.3699497,2.080155,8.740438936,3.00263659,crawl
23/10/2020, 15:43:03,-7.077283,-3.4775686,2.794988,-2.1335227,0.3699497,2.080155,8.366204297,3.00263659,crawl
23/10/2020, 15:43:03,-7.082073,-3.4440382,2.7279274,-2.1335227,0.3699497,2.080155,8.334191498,3.00263659,crawl
23/10/2020, 15:43:03,-7.2545147,-3.396138,2.7087672,-2.1335227,0.3699497,2.080155,8.455717359,3.00263659,crawl
23/10/2020, 15:43:03,-7.4820414,-3.515889,2.5171657,-2.1335227,0.3699497,2.080155,8.641674654,3.00263659,crawl
23/10/2020, 15:43:03,-7.8269243,-3.523074,2.3566992,-2.1335227,0.3699497,2.080155,8.900945198,3.00263659,crawl
23/10/2020, 15:43:03,-8.159832,-3.5925295,2.1387525,-2.1335227,0.3699497,2.080155,9.168608882,3.00263659,crawl
23/10/2020, 15:43:04,-7.30481,-4.351751,2.4093897,-0.8641454,0.5422136,0.31719854,8.837598327,1.068343481,crawl
23/10/2020, 15:43:04,-7.1227884,-4.495452,2.4740553,-0.8641454,0.5422136,0.31719854,8.778619061,1.068343481,crawl
23/10/2020, 15:43:04,-7.0078273,-4.670288,2.550696,-0.8641454,0.5422136,0.31719854,8.799277446,1.068343481,crawl
23/10/2020, 15:43:04,-6.947952,-4.6894484,2.5530908,-0.8641454,0.5422136,0.31719854,8.762604219,1.068343481,crawl
23/10/2020, 15:43:04,-6.8976564,-4.5649076,2.4908204,-0.8641454,0.5422136,0.31719854,8.638300274,1.068343481,crawl
23/10/2020, 15:43:04,-6.969507,-4.191284,2.4333398,-0.8641454,0.5422136,0.31719854,8.488936133,1.068343481,crawl
23/10/2020, 15:43:04,-7.089258,-3.779341,2.2848487,-0.8641454,0.5422136,0.31719854,8.352337011,1.068343481,crawl
23/10/2020, 15:43:04,-7.3479204,-3.5087037,2.1195924,-0.8641454,0.5422136,0.31719854,8.414012612,1.068343481,crawl
23/10/2020, 15:43:04,-7.573052,-3.2668068,2.1459377,-0.8641454,0.5422136,0.31719854,8.522217493,1.068343481,crawl
23/10/2020, 15:43:04,-7.91075,-2.936294,2.2920337,-0.8641454,0.5422136,0.31719854,8.743866733,1.068343481,crawl
23/10/2020, 15:43:04,-8.274793,-2.6464968,2.3638844,-0.8641454,0.5422136,0.31719854,9.003559774,1.068343481,crawl
23/10/2020, 15:43:04,-8.619676,-2.4069948,2.5123756,-0.8641454,0.5422136,0.31719854,9.295400113,1.068343481,crawl
23/10/2020, 15:43:04,-8.926238,-2.2058132,2.680027,-0.8641454,0.5422136,0.31719854,9.577363019,1.068343481,crawl
23/10/2020, 15:43:04,-9.158555,-2.0357666,2.7973828,-0.8641454,0.5422136,0.31719854,9.790241397,1.068343481,crawl
23/10/2020, 15:43:04,-9.295072,-2.0142114,3.0129347,-0.8641454,0.5422136,0.31719854,9.976631652,1.068343481,crawl
23/10/2020, 15:43:04,-9.285491,-2.0812721,3.3458424,-0.8641454,0.5422136,0.31719854,10.08695681,1.068343481,crawl
23/10/2020, 15:43:04,-9.196876,-2.2321582,3.6380348,-0.8641454,0.5422136,0.31719854,10.13905064,1.068343481,crawl
23/10/2020, 15:43:04,-9.06994,-2.4740553,3.9541774,-0.8641454,0.5422136,0.31719854,10.19903294,1.068343481,crawl
23/10/2020, 15:43:04,-9.029224,-2.684817,4.2176294,-0.8641454,0.5422136,0.31719854,10.32102388,1.068343481,crawl
23/10/2020, 15:43:04,-9.129815,-2.8692336,4.4762917,-0.8641454,0.5422136,0.31719854,10.5651887,1.068343481,crawl
23/10/2020, 15:43:04,-9.299861,-3.1302907,4.631968,-0.8641454,0.5422136,0.31719854,10.85086456,1.068343481,crawl
23/10/2020, 15:43:04,-9.405242,-3.2236965,4.782854,-0.8641454,0.5422136,0.31719854,11.03297279,1.068343481,crawl
23/10/2020, 15:43:04,-9.515413,-3.3051271,4.87626,-0.8641454,0.5422136,0.31719854,11.19128523,1.068343481,crawl
23/10/2020, 15:43:04,-9.515413,-3.3051271,4.87626,-0.85437155,0.54710054,0.30742472,11.19128523,1.060084764,crawl
23/10/2020, 15:43:04,-9.515413,-3.3051271,4.87626,-0.7774026,0.55076575,0.29154223,11.19128523,0.996340584,crawl
23/10/2020, 15:43:04,-9.515413,-3.3051271,4.87626,-0.65278614,0.54710054,0.26466417,11.19128523,0.891905751,crawl
23/10/2020, 15:43:04,-9.515413,-3.3051271,4.87626,-0.4927395,0.53488326,0.23900783,11.19128523,0.765517511,crawl
23/10/2020, 15:43:04,-9.515413,-3.3051271,4.87626,-0.31192344,0.51411384,0.20968631,11.19128523,0.636849768,crawl
23/10/2020, 15:43:04,-9.515413,-3.3051271,4.87626,-0.12133356,0.47868368,0.1766996,11.19128523,0.524483217,crawl
23/10/2020, 15:43:04,-9.515413,-3.3051271,4.87626,0.0643694,0.43836656,0.13516077,11.19128523,0.463224673,crawl
23/10/2020, 15:43:05,-6.1240654,-2.42855,2.3830445,0.699669,0.4029364,0.15837365,7.005778553,0.82278592,crawl
23/10/2020, 15:43:05,-6.2917166,-2.4045997,2.4572902,0.699669,0.4029364,0.15837365,7.169802788,0.82278592,crawl
23/10/2020, 15:43:05,-6.449788,-2.4069948,2.5459058,0.699669,0.4029364,0.15837365,7.339960967,0.82278592,crawl
23/10/2020, 15:43:05,-6.600674,-2.4069948,2.6105714,0.699669,0.4029364,0.15837365,7.495172198,0.82278592,crawl
23/10/2020, 15:43:05,-6.72761,-2.320774,2.6345215,0.699669,0.4029364,0.15837365,7.588638454,0.82278592,crawl
23/10/2020, 15:43:05,-6.847361,-2.2513185,2.4644752,0.699669,0.4029364,0.15837365,7.617639164,0.82278592,crawl
23/10/2020, 15:43:05,-7.247329,-2.1387525,2.2321582,0.699669,0.4029364,0.15837365,7.879122622,0.82278592,crawl
23/10/2020, 15:43:05,-7.247329,-2.1387525,2.2321582,0.6972256,0.46890983,0.351407,7.879122622,0.910761659,crawl
23/10/2020, 15:43:05,-7.247329,-2.1387525,2.2321582,0.6850083,0.5263311,0.53711,7.879122622,1.017225604,crawl
23/10/2020, 15:43:05,-7.247329,-2.1387525,2.2321582,0.66423887,0.5788655,0.7130391,7.879122622,1.133456366,crawl
23/10/2020, 15:43:05,-7.247329,-2.1387525,2.2321582,0.6385825,0.626513,0.8828595,7.879122622,1.256879921,crawl
23/10/2020, 15:43:05,-7.247329,-2.1387525,2.2321582,0.6055958,0.671717,1.0453496,7.879122622,1.382282822,crawl
23/10/2020, 15:43:05,-7.247329,-2.1387525,2.2321582,0.55794835,0.71692103,1.1992877,7.879122622,1.504517531,crawl
23/10/2020, 15:43:05,-7.247329,-2.1387525,2.2321582,0.500527,0.7657902,1.3434517,7.879122622,1.625369048,crawl
23/10/2020, 15:43:05,-7.247329,-2.1387525,2.2321582,0.42111456,0.8280985,1.4925028,7.879122622,1.758024231,crawl
23/10/2020, 15:43:05,-7.247329,-2.1387525,2.2321582,0.31115887,0.9270586,1.6672102,7.879122622,1.932834025,crawl
23/10/2020, 15:43:05,-7.247329,-2.1387525,2.2321582,0.17921203,1.0809965,1.894452,7.879122622,2.188519752,crawl
23/10/2020, 15:43:05,-8.138277,-2.076482,2.1387525,0.17921203,1.0809965,1.894452,8.667040627,2.188519752,crawl
23/10/2020, 15:43:05,-8.138277,-2.076482,2.1387525,0.049708646,1.27403,2.1681194,8.667040627,2.515226666,crawl
23/10/2020, 15:43:05,-9.484278,-2.047742,1.9279908,0.049708646,1.27403,2.1681194,9.892518351,2.515226666,crawl
23/10/2020, 15:43:05,-9.484278,-2.047742,1.9279908,-0.09812069,1.4719502,2.4576695,9.892518351,2.866427103,crawl
23/10/2020, 15:43:05,-11.105706,-2.071692,1.695674,-0.09812069,1.4719502,2.4576695,11.4238316,2.866427103,crawl
23/10/2020, 15:43:05,-11.105706,-2.071692,1.695674,-0.3021496,1.6368837,2.7374458,11.4238316,3.203793442,crawl
23/10/2020, 15:43:05,-12.727135,-2.0166066,1.4729371,-0.3021496,1.6368837,2.7374458,12.96981895,3.203793442,crawl
23/10/2020, 15:43:05,-12.727135,-2.0166066,1.4729371,-0.5770388,1.7382873,2.9744613,12.96981895,3.49314139,crawl
23/10/2020, 15:43:05,-14.195281,-1.9447559,1.3004956,-0.5770388,1.7382873,2.9744613,14.38677754,3.49314139,crawl
23/10/2020, 15:43:05,-14.195281,-1.9447559,1.3004956,-0.9215667,1.757835,3.1540556,14.38677754,3.726571604,crawl
23/10/2020, 15:43:05,-15.337706,-1.9423609,1.3004956,-0.9215667,1.757835,3.1540556,15.51480803,3.726571604,crawl
23/10/2020, 15:43:05,-15.337706,-1.9423609,1.3004956,-1.3381767,1.685753,3.2823374,15.51480803,3.925075678,crawl
23/10/2020, 15:43:05,-15.778389,-2.047742,1.3292359,-1.3381767,1.685753,3.2823374,15.96614148,3.925075678,crawl
23/10/2020, 15:43:06,-10.748848,-2.2968237,3.6116896,-1.1598041,-0.6013257,-1.1268864,11.56967732,1.725285784,crawl
23/10/2020, 15:43:06,-10.049502,-2.3519094,3.5805542,-1.1598041,-0.6013257,-1.1268864,10.92448372,1.725285784,crawl
23/10/2020, 15:43:06,-10.049502,-2.3519094,3.5805542,-1.0962741,-0.62820375,-1.2209595,10.92448372,1.757042727,crawl
23/10/2020, 15:43:06,-9.295072,-2.4860303,3.5182838,-1.0962741,-0.62820375,-1.2209595,10.24485354,1.757042727,crawl
23/10/2020, 15:43:06,-9.295072,-2.4860303,3.5182838,-0.9875401,-0.6428645,-1.3125893,10.24485354,1.763916363,crawl
23/10/2020, 15:43:06,-8.681946,-2.7446926,3.537444,-0.9875401,-0.6428645,-1.3125893,9.768471274,1.763916363,crawl
23/10/2020, 15:43:06,-8.681946,-2.7446926,3.537444,-0.8189414,-0.64530796,-1.3920017,9.768471274,1.739182644,crawl
23/10/2020, 15:43:06,-8.253238,-3.06802,3.5613942,-0.8189414,-0.64530796,-1.3920017,9.498010795,1.739182644,crawl
23/10/2020, 15:43:06,-8.253238,-3.06802,3.5613942,-0.5929213,-0.64164275,-1.4640838,9.498010795,1.704934735,crawl
23/10/2020, 15:43:06,-8.056846,-3.4608033,3.63564,-0.5929213,-0.64164275,-1.4640838,9.49251278,1.704934735,crawl
23/10/2020, 15:43:06,-8.056846,-3.4608033,3.63564,-0.3143669,-0.6343124,-1.5337224,9.49251278,1.689225611,crawl
23/10/2020, 15:43:06,-7.9849954,-3.7050953,3.6092947,-0.3143669,-0.6343124,-1.5337224,9.513931364,1.689225611,crawl
23/10/2020, 15:43:06,-7.9849954,-3.7050953,3.6092947,8.39E-04,-0.62453854,-1.6009176,9.513931364,1.718425496,crawl
23/10/2020, 15:43:06,-8.128696,-3.8751419,3.6045046,8.39E-04,-0.62453854,-1.6009176,9.699736263,1.718425496,crawl
23/10/2020, 15:43:06,-8.128696,-3.8751419,3.6045046,0.32215443,-0.6159864,-1.6644475,9.699736263,1.803776141,crawl
23/10/2020, 15:43:06,-8.361013,-3.906277,3.4631984,0.32215443,-0.6159864,-1.6644475,9.856941115,1.803776141,crawl
23/10/2020, 15:43:06,-8.361013,-3.906277,3.4631984,0.6141479,-0.6184299,-1.7194254,9.856941115,1.927707713,crawl
23/10/2020, 15:43:06,-8.638836,-3.796106,3.1494508,0.6141479,-0.6184299,-1.7194254,9.947811194,1.927707713,crawl
23/10/2020, 15:43:06,-8.638836,-3.796106,3.1494508,0.86338085,-0.6330907,-1.7670729,9.947811194,2.066101881,crawl
23/10/2020, 15:43:06,-8.971744,-3.68354,2.9338992,0.86338085,-0.6330907,-1.7670729,10.13254237,2.066101881,crawl
23/10/2020, 15:43:06,-8.971744,-3.68354,2.9338992,1.0820705,-0.65752524,-1.8012813,10.13254237,2.201778914,crawl
23/10/2020, 15:43:06,-9.4435625,-3.6284547,2.804568,1.0820705,-0.65752524,-1.8012813,10.49819785,2.201778914,crawl
23/10/2020, 15:43:06,-9.4435625,-3.6284547,2.804568,1.2677734,-0.67829466,-1.8293811,10.49819785,2.326793556,crawl
23/10/2020, 15:43:06,-10.080638,-3.68354,2.7854078,1.2677734,-0.67829466,-1.8293811,11.08811189,2.326793556,crawl
23/10/2020, 15:43:06,-10.080638,-3.68354,2.7854078,1.414381,-0.69417715,-1.8367115,11.08811189,2.419889426,crawl
23/10/2020, 15:43:06,-10.935659,-3.5637891,2.8668385,1.414381,-0.69417715,-1.8367115,11.85360715,2.419889426,crawl
23/10/2020, 15:43:06,-10.935659,-3.5637891,2.8668385,1.5255585,-0.7186118,-1.8330463,11.85360715,2.490740921,crawl
23/10/2020, 15:43:06,-11.852952,-3.5110989,2.8812087,1.5255585,-0.7186118,-1.8330463,12.69337031,2.490740921,crawl
23/10/2020, 15:43:06,-11.852952,-3.5110989,2.8812087,1.5695407,-0.7723679,-1.839155,12.69337031,2.538208277,crawl
23/10/2020, 15:43:06,-12.808565,-3.3697927,2.6896071,1.5695407,-0.7723679,-1.839155,13.51476342,2.538208277,crawl
23/10/2020, 15:43:07,-12.197835,-5.5564456,1.9399658,0.115682065,0.6313999,2.0508335,13.54343875,2.148945348,crawl
23/10/2020, 15:43:07,-12.073294,-5.2810183,1.5974782,0.115682065,0.6313999,2.0508335,13.27424238,2.148945348,crawl
23/10/2020, 15:43:07,-12.073294,-5.2810183,1.5974782,0.378354,0.63262165,1.8272569,13.27424238,1.970337471,crawl
23/10/2020, 15:43:07,-11.826607,-4.974456,1.1136842,0.378354,0.63262165,1.8272569,12.87843665,1.970337471,crawl
23/10/2020, 15:43:07,-11.826607,-4.974456,1.1136842,0.5665004,0.626513,1.6183411,12.87843665,1.825505178,crawl
23/10/2020, 15:43:07,-11.658956,-4.641548,0.84544194,0.5665004,0.626513,1.6183411,12.57736007,1.825505178,crawl
23/10/2020, 15:43:07,-11.658956,-4.641548,0.84544194,0.6911169,0.61673915,1.4350815,12.57736007,1.708059909,crawl
23/10/2020, 15:43:07,-11.508069,-4.2343946,0.61073,0.6911169,0.61673915,1.4350815,12.27757066,1.708059909,crawl
23/10/2020, 15:43:07,-11.508069,-4.2343946,0.61073,0.72776884,0.6094088,1.2713697,12.27757066,1.586634005,crawl
23/10/2020, 15:43:07,-11.383529,-3.8176613,0.5556446,0.72776884,0.6094088,1.2713697,12.01948437,1.586634005,crawl
23/10/2020, 15:43:07,-11.383529,-3.8176613,0.5556446,0.6630171,0.5898611,1.1394229,12.01948437,1.44423416,crawl
23/10/2020, 15:43:07,-11.294912,-3.3338673,0.57719976,0.6630171,0.5898611,1.1394229,11.79079622,1.44423416,crawl
23/10/2020, 15:43:07,-11.294912,-3.3338673,0.57719976,0.48097935,0.5556527,1.0367975,11.79079622,1.270842296,crawl
23/10/2020, 15:43:07,-11.151212,-2.8261232,0.6730005,0.48097935,0.5556527,1.0367975,11.52342942,1.270842296,crawl
23/10/2020, 15:43:07,-11.151212,-2.8261232,0.6730005,0.17188165,0.50434,0.95616335,11.52342942,1.0946006,crawl
23/10/2020, 15:43:07,-10.868599,-2.3135889,0.7807764,0.17188165,0.50434,0.95616335,11.13951292,1.0946006,crawl
23/10/2020, 15:43:07,-10.868599,-2.3135889,0.7807764,-0.23861964,0.44203177,0.8828595,11.13951292,1.015761963,crawl
23/10/2020, 15:43:07,-10.47821,-1.9663111,0.9508228,-0.23861964,0.44203177,0.8828595,10.70342644,1.015761963,crawl
23/10/2020, 15:43:07,-10.47821,-1.9663111,0.9508228,-0.7138726,0.37361488,0.8132209,10.70342644,1.144784016,crawl
23/10/2020, 15:43:07,-10.071057,-1.7555494,1.0873389,-0.7138726,0.37361488,0.8132209,10.28058633,1.144784016,crawl
23/10/2020, 15:43:07,-10.071057,-1.7555494,1.0873389,-1.1927909,0.30397627,0.76313,10.28058633,1.448281406,crawl
23/10/2020, 15:43:07,-9.673484,-1.8609302,1.3507911,-1.1927909,0.30397627,0.76313,9.943037141,1.448281406,crawl
23/10/2020, 15:43:07,-9.673484,-1.8609302,1.3507911,-1.626505,0.24533324,0.717926,9.943037141,1.794749216,crawl
23/10/2020, 15:43:07,-9.223221,-2.2752686,1.4609619,-1.626505,0.24533324,0.717926,9.61140256,1.794749216,crawl
23/10/2020, 15:43:07,-9.223221,-2.2752686,1.4609619,-1.9905806,0.20257269,0.6886045,9.61140256,2.116039408,crawl
23/10/2020, 15:43:07,-9.017249,-2.7782228,1.6884888,-1.9905806,0.20257269,0.6886045,9.585421115,2.116039408,crawl
23/10/2020, 15:43:07,-9.017249,-2.7782228,1.6884888,-2.2349265,0.16958599,0.6800524,9.585421115,2.342248271,crawl
23/10/2020, 15:43:07,-8.760982,-3.178191,1.9902613,-2.2349265,0.16958599,0.6800524,9.52978676,2.342248271,crawl
23/10/2020, 15:43:07,-8.760982,-3.178191,1.9902613,-2.349769,0.1414862,0.6763872,9.52978676,2.449271906,crawl
23/10/2020, 15:43:07,-8.566985,-3.5182838,2.189048,-2.349769,0.1414862,0.6763872,9.516485003,2.449271906,crawl
23/10/2020, 15:43:08,-5.4199295,-2.090852,1.9830762,0.50663567,0.24655499,0.2585555,6.138394683,0.619935486,crawl
23/10/2020, 15:43:08,-5.5636306,-2.0860622,2.076482,0.50663567,0.24655499,0.2585555,6.294236923,0.619935486,crawl
23/10/2020, 15:43:08,-5.5636306,-2.0860622,2.076482,0.44799265,0.30275455,0.4540323,6.294236923,0.706047496,crawl
23/10/2020, 15:43:08,-5.688172,-2.066902,2.071692,0.44799265,0.30275455,0.4540323,6.396818772,0.706047496,crawl
23/10/2020, 15:43:08,-5.688172,-2.066902,2.071692,0.36613673,0.3626193,0.6617264,6.396818772,0.838707767,crawl
23/10/2020, 15:43:08,-5.9252787,-2.0381618,2.1315675,0.36613673,0.3626193,0.6617264,6.618656245,0.838707767,crawl
23/10/2020, 15:43:08,-5.9252787,-2.0381618,2.1315675,0.2830591,0.42370582,0.8804161,6.618656245,1.017242138,crawl
23/10/2020, 15:43:08,-6.12646,-2.047742,2.1459377,0.2830591,0.42370582,0.8804161,6.806747273,1.017242138,crawl
23/10/2020, 15:43:08,-6.12646,-2.047742,2.1459377,0.1938728,0.47624022,1.1039927,6.806747273,1.217863411,crawl
23/10/2020, 15:43:08,-6.3060865,-2.069297,2.2297633,0.1938728,0.47624022,1.1039927,7.001468566,1.217863411,crawl
23/10/2020, 15:43:08,-6.3060865,-2.069297,2.2297633,0.09857784,0.5202225,1.3190172,7.001468566,1.421321682,crawl
23/10/2020, 15:43:08,-6.4593678,-1.9998415,2.3375392,0.09857784,0.5202225,1.3190172,7.154501176,1.421321682,crawl
23/10/2020, 15:43:08,-6.4593678,-1.9998415,2.3375392,0.005726365,0.5556527,1.5315982,7.154501176,1.629286889,crawl
23/10/2020, 15:43:08,-6.5144534,-1.9639161,2.543511,0.005726365,0.5556527,1.5315982,7.263918868,1.629286889,crawl
23/10/2020, 15:43:08,-6.5144534,-1.9639161,2.543511,-0.07735128,0.5910828,1.7392923,7.263918868,1.838613524,crawl
23/10/2020, 15:43:08,-6.559959,-1.9112257,2.7806177,-0.07735128,0.5910828,1.7392923,7.376833988,1.838613524,crawl
23/10/2020, 15:43:08,-6.559959,-1.9112257,2.7806177,-0.14576815,0.6387303,1.944543,7.376833988,2.051943525,crawl
23/10/2020, 15:43:08,-6.6509695,-1.8633252,2.8931837,-0.14576815,0.6387303,1.944543,7.488517094,2.051943525,crawl
23/10/2020, 15:43:08,-6.6509695,-1.8633252,2.8931837,-0.23251098,0.7108124,2.1510153,7.488517094,2.277319115,crawl
23/10/2020, 15:43:08,-6.912027,-1.84177,2.823728,-0.23251098,0.7108124,2.1510153,7.690362335,2.277319115,crawl
23/10/2020, 15:43:08,-6.912027,-1.84177,2.823728,-0.33269286,0.825655,2.3745918,7.690362335,2.535956829,crawl
23/10/2020, 15:43:08,-7.599397,-1.8681153,2.8093581,-0.33269286,0.825655,2.3745918,8.314636816,2.535956829,crawl
23/10/2020, 15:43:08,-7.599397,-1.8681153,2.8093581,-0.42554432,0.9685974,2.618938,8.314636816,2.824553948,crawl
23/10/2020, 15:43:08,-8.713081,-1.9303858,2.7494826,-0.42554432,0.9685974,2.618938,9.338299148,2.824553948,crawl
23/10/2020, 15:43:08,-8.713081,-1.9303858,2.7494826,-0.51717407,1.1115398,2.8755012,9.338299148,3.125939335,crawl
23/10/2020, 15:43:08,-10.066268,-2.0261867,2.4812403,-0.51717407,1.1115398,2.8755012,10.563699,3.125939335,crawl
23/10/2020, 15:43:08,-10.066268,-2.0261867,2.4812403,-0.63812536,1.2410432,3.1406167,10.563699,3.436693935,crawl
23/10/2020, 15:43:08,-11.53681,-2.1219873,2.2489235,-0.63812536,1.2410432,3.1406167,11.94397214,3.436693935,crawl
23/10/2020, 15:43:08,-11.53681,-2.1219873,2.2489235,-0.7859547,1.3632162,3.4045103,11.94397214,3.75056972,crawl
23/10/2020, 15:43:08,-13.091177,-2.1746778,1.9902613,-0.7859547,1.3632162,3.4045103,13.41898948,3.75056972,crawl
23/10/2020, 15:43:09,-9.15137,-3.915857,3.0225148,1.1175007,-0.48281786,-1.6791083,10.40274513,2.073963686,crawl
23/10/2020, 15:43:09,-9.630374,-3.9350173,2.929109,1.1175007,-0.48281786,-1.6791083,10.80778165,2.073963686,crawl
23/10/2020, 15:43:09,-9.630374,-3.9350173,2.929109,1.4546981,-0.47793093,-1.6815518,10.80778165,2.274242951,crawl
23/10/2020, 15:43:09,-10.150093,-3.8248463,2.8428884,1.4546981,-0.47793093,-1.6815518,11.21319993,2.274242951,crawl
23/10/2020, 15:43:09,-10.150093,-3.8248463,2.8428884,1.7393612,-0.4889265,-1.6827735,11.21319993,2.469038871,crawl
23/10/2020, 15:43:09,-10.557246,-3.6380348,2.7135572,1.7393612,-0.4889265,-1.6827735,11.4914811,2.469038871,crawl
23/10/2020, 15:43:09,-10.557246,-3.6380348,2.7135572,1.9604944,-0.51946974,-1.6705562,11.4914811,2.62757399,crawl
23/10/2020, 15:43:09,-10.962005,-3.3458424,2.6584718,1.9604944,-0.51946974,-1.6705562,11.7655293,2.62757399,crawl
23/10/2020, 15:43:09,-10.962005,-3.3458424,2.6584718,2.1388671,-0.5536782,-1.6436782,11.7655293,2.75372297,crawl
23/10/2020, 15:43:09,-11.247012,-3.163821,2.5099807,2.1388671,-0.5536782,-1.6436782,11.95010662,2.75372297,crawl
23/10/2020, 15:43:09,-11.247012,-3.163821,2.5099807,2.2952485,-0.5829997,-1.6192435,11.95010662,2.868798336,crawl
23/10/2020, 15:43:09,-11.567945,-3.1302907,2.411785,2.2952485,-0.5829997,-1.6192435,12.22426959,2.868798336,crawl
23/10/2020, 15:43:09,-11.567945,-3.1302907,2.411785,2.3978739,-0.61109954,-1.5984741,12.22426959,2.945905867,crawl
23/10/2020, 15:43:09,-11.896063,-3.0728102,2.2848487,2.3978739,-0.61109954,-1.5984741,12.49715997,2.945905867,crawl
23/10/2020, 15:43:09,-11.896063,-3.0728102,2.2848487,2.4589603,-0.64164275,-1.5557135,12.49715997,2.97967041,crawl
23/10/2020, 15:43:09,-12.25292,-2.8788135,2.1435425,2.4589603,-0.64164275,-1.5557135,12.76778736,2.97967041,crawl
23/10/2020, 15:43:09,-12.25292,-2.8788135,2.1435425,2.4675124,-0.6672991,-1.504401,12.76778736,2.96599522,crawl
23/10/2020, 15:43:09,-12.499607,-2.7973828,1.9806812,2.4675124,-0.6672991,-1.504401,12.96104263,2.96599522,crawl
23/10/2020, 15:43:09,-12.499607,-2.7973828,1.9806812,2.401539,-0.71372485,-1.4640838,12.96104263,2.901781263,crawl
23/10/2020, 15:43:09,-12.674444,-2.6153615,1.8130299,2.401539,-0.71372485,-1.4640838,13.06785096,2.901781263,crawl
23/10/2020, 15:43:09,-12.674444,-2.6153615,1.8130299,2.2732573,-0.78091997,-1.440871,13.06785096,2.802435332,crawl
23/10/2020, 15:43:09,-12.655284,-2.3758595,1.6621436,2.2732573,-0.78091997,-1.440871,12.98320611,2.802435332,crawl
23/10/2020, 15:43:09,-12.655284,-2.3758595,1.6621436,2.0961065,-0.85178035,-1.4262102,12.98320611,2.674559364,crawl
23/10/2020, 15:43:09,-12.502003,-2.1722827,1.5399976,2.0961065,-0.85178035,-1.4262102,12.78242843,2.674559364,crawl
23/10/2020, 15:43:09,-12.502003,-2.1722827,1.5399976,1.8749733,-0.91775376,-1.4103277,12.78242843,2.519289774,crawl
23/10/2020, 15:43:09,-12.20502,-1.954336,1.3196558,1.8749733,-0.91775376,-1.4103277,12.43074546,2.519289774,crawl
23/10/2020, 15:43:09,-12.20502,-1.954336,1.3196558,1.6232969,-0.9812837,-1.395667,12.43074546,2.354972757,crawl
23/10/2020, 15:43:09,-11.840977,-1.8537452,1.0849439,1.6232969,-0.9812837,-1.395667,12.03420974,2.354972757,crawl
23/10/2020, 15:43:09,-11.840977,-1.8537452,1.0849439,1.3447424,-1.0399268,-1.3871149,12.03420974,2.194052768,crawl
23/10/2020, 15:43:09,-11.383529,-1.705254,0.8885523,1.3447424,-1.0399268,-1.3871149,11.54478853,2.194052768,crawl
23/10/2020, 15:43:10,-7.8700347,-3.4751735,2.8836036,0.23174642,0.34918028,0.53222305,9.073557534,0.677417628,crawl
23/10/2020, 15:43:10,-8.315508,-2.9841945,2.8931837,0.23174642,0.34918028,0.53222305,9.29642944,0.677417628,crawl
23/10/2020, 15:43:10,-8.315508,-2.9841945,2.8931837,0.5359572,0.37605834,0.550549,9.29642944,0.855438006,crawl
23/10/2020, 15:43:10,-8.657996,-2.567461,2.8572583,0.5359572,0.37605834,0.550549,9.471888881,0.855438006,crawl
23/10/2020, 15:43:10,-8.657996,-2.567461,2.8572583,0.7473165,0.37239316,0.5432186,9.471888881,0.996114977,crawl
23/10/2020, 15:43:10,-9.024434,-2.2321582,2.8452833,0.7473165,0.37239316,0.5432186,9.722066534,0.996114977,crawl
23/10/2020, 15:43:10,-9.024434,-2.2321582,2.8452833,0.8487201,0.35528892,0.5236709,9.722066534,1.058672379,crawl
23/10/2020, 15:43:10,-9.16095,-1.9591261,2.7782228,0.8487201,0.35528892,0.5236709,9.771371275,1.058672379,crawl
23/10/2020, 15:43:10,-9.16095,-1.9591261,2.7782228,0.86460257,0.32718915,0.50045806,9.771371275,1.051212922,crawl
23/10/2020, 15:43:10,-9.2256155,-1.6214283,2.7854078,0.86460257,0.32718915,0.50045806,9.772384942,1.051212922,crawl
23/10/2020, 15:43:10,-9.2256155,-1.6214283,2.7854078,0.81328994,0.29542416,0.47235826,9.772384942,0.985818587,crawl
23/10/2020, 15:43:10,-9.14658,-1.4226416,2.7279274,0.81328994,0.29542416,0.47235826,9.650151209,0.985818587,crawl
23/10/2020, 15:43:10,-9.14658,-1.4226416,2.7279274,0.7167733,0.27221128,0.44059327,9.650151209,0.884299348,crawl
23/10/2020, 15:43:10,-9.065149,-1.1879297,2.682422,0.7167733,0.27221128,0.44059327,9.528037386,0.884299348,crawl
23/10/2020, 15:43:10,-9.065149,-1.1879297,2.682422,0.5970437,0.25022015,0.41493696,9.528037386,0.768923907,crawl
23/10/2020, 15:43:10,-8.950189,-0.96040285,2.7255323,0.5970437,0.25022015,0.41493696,9.40514628,0.768923907,crawl
23/10/2020, 15:43:10,-8.950189,-0.96040285,2.7255323,0.47242725,0.2270073,0.39416754,9.40514628,0.65581085,crawl
23/10/2020, 15:43:10,-8.859178,-0.8286768,2.7494826,0.47242725,0.2270073,0.39416754,9.312968784,0.65581085,crawl
23/10/2020, 15:43:10,-8.859178,-0.8286768,2.7494826,0.35636288,0.20379442,0.3636243,9.312968784,0.548406147,crawl
23/10/2020, 15:43:10,-8.854387,-0.8143067,2.823728,0.35636288,0.20379442,0.3636243,9.329346699,0.548406147,crawl
23/10/2020, 15:43:10,-8.854387,-0.8143067,2.823728,0.25007236,0.18180329,0.32941586,9.329346699,0.451778073,crawl
23/10/2020, 15:43:10,-8.909473,-0.92208254,2.8620484,0.25007236,0.18180329,0.32941586,9.403205506,0.451778073,crawl
23/10/2020, 15:43:10,-8.909473,-0.92208254,2.8620484,0.16210781,0.15859042,0.2952074,9.403205506,0.372259693,crawl
23/10/2020, 15:43:10,-9.045989,-1.0753639,2.9578493,0.16210781,0.15859042,0.2952074,9.577849309,0.372259693,crawl
23/10/2020, 15:43:10,-9.045989,-1.0753639,2.9578493,0.10590822,0.124381974,0.26710764,9.577849309,0.313103683,crawl
23/10/2020, 15:43:10,-9.2328005,-1.2789404,3.0344899,0.10590822,0.124381974,0.26710764,9.802470209,0.313103683,crawl
23/10/2020, 15:43:10,-9.2328005,-1.2789404,3.0344899,0.08513881,0.08528661,0.24755993,9.802470209,0.275333152,crawl
23/10/2020, 15:43:10,-9.374106,-1.5184424,3.1231055,0.08513881,0.08528661,0.24755993,9.996665762,0.275333152,crawl
23/10/2020, 15:43:10,-9.374106,-1.5184424,3.1231055,0.09002573,0.0400826,0.2341209,9.996665762,0.254015443,crawl
23/10/2020, 15:43:10,-9.491463,-1.6453785,3.2045362,0.09002573,0.0400826,0.2341209,10.15205333,0.254015443,crawl
23/10/2020, 15:43:11,-14.338983,-1.8944606,1.6741188,-1.517771,1.572132,3.4167275,14.5601537,4.055768106,crawl
23/10/2020, 15:43:11,-15.059883,-2.0237916,1.83219,-1.517771,1.572132,3.4167275,15.30531712,4.055768106,crawl
23/10/2020, 15:43:11,-15.059883,-2.0237916,1.83219,-1.7731127,1.5293715,3.546231,15.30531712,4.249548235,crawl
23/10/2020, 15:43:11,-15.558047,-2.2393434,2.191443,-1.7731127,1.5293715,3.546231,15.8704101,4.249548235,crawl
23/10/2020, 15:43:11,-15.558047,-2.2393434,2.191443,-2.0382278,1.4218593,3.6305304,15.8704101,4.399637143,crawl
23/10/2020, 15:43:11,-15.526913,-2.574646,2.6776319,-2.0382278,1.4218593,3.6305304,15.96507225,4.399637143,crawl
23/10/2020, 15:43:11,-15.526913,-2.574646,2.6776319,-2.2850173,1.2935776,3.6574085,15.96507225,4.50236421,crawl
23/10/2020, 15:43:11,-14.894628,-2.8931837,3.1470559,-2.2850173,1.2935776,3.6574085,15.49594796,4.50236421,crawl
23/10/2020, 15:43:11,-14.894628,-2.8931837,3.1470559,-2.4878244,1.165296,3.6354172,15.49594796,4.556692167,crawl
23/10/2020, 15:43:11,-13.912669,-3.1901662,3.5733693,-2.4878244,1.165296,3.6354172,14.71422755,4.556692167,crawl
23/10/2020, 15:43:11,-13.912669,-3.1901662,3.5733693,-2.6283236,1.0528967,3.577996,14.71422755,4.562754841,crawl
23/10/2020, 15:43:11,-12.789405,-3.3434474,3.7697608,-2.6283236,1.0528967,3.577996,13.74622183,4.562754841,crawl
23/10/2020, 15:43:11,-12.789405,-3.3434474,3.7697608,-2.7028491,0.95882356,3.4936967,13.74622183,4.520027954,crawl
23/10/2020, 15:43:11,-11.61345,-3.4344583,3.894302,-2.7028491,0.95882356,3.4936967,12.72137228,4.520027954,crawl
23/10/2020, 15:43:11,-11.61345,-3.4344583,3.894302,-2.699184,0.8806328,3.3812973,12.72137228,4.415232709,crawl
23/10/2020, 15:43:11,-10.538086,-3.4895437,3.8248463,-2.699184,0.8806328,3.3812973,11.74127843,4.415232709,crawl
23/10/2020, 15:43:11,-10.538086,-3.4895437,3.8248463,-2.5892282,0.8219898,3.2579026,11.74127843,4.241898056,crawl
23/10/2020, 15:43:11,-9.644744,-3.661985,3.8320315,-2.5892282,0.8219898,3.2579026,11.00525711,4.241898056,crawl
23/10/2020, 15:43:11,-9.644744,-3.661985,3.8320315,-2.3656516,0.79022485,3.1247342,11.00525711,3.998090348,crawl
23/10/2020, 15:43:11,-9.1202345,-3.9805226,3.8487966,-2.3656516,0.79022485,3.1247342,10.66941765,3.998090348,crawl
23/10/2020, 15:43:11,-9.1202345,-3.9805226,3.8487966,-2.0321193,0.78289443,2.9817917,10.66941765,3.692358919,crawl
23/10/2020, 15:43:11,-8.842413,-4.239185,3.781736,-2.0321193,0.78289443,2.9817917,10.51001814,3.692358919,crawl
23/10/2020, 15:43:11,-8.842413,-4.239185,3.781736,-1.6155094,0.78778136,2.826632,10.51001814,3.34967441,crawl
23/10/2020, 15:43:11,-8.847202,-4.528982,3.755391,-1.6155094,0.78778136,2.826632,10.62485899,3.34967441,crawl
23/10/2020, 15:43:11,-8.847202,-4.528982,3.755391,-1.1488086,0.80244213,2.6568115,10.62485899,3.003717995,crawl
23/10/2020, 15:43:11,-9.096285,-4.6774735,3.6308498,-1.1488086,0.80244213,2.6568115,10.8537656,3.003717995,crawl
23/10/2020, 15:43:11,-9.096285,-4.6774735,3.6308498,-0.66622514,0.8171029,2.4723303,10.8537656,2.687737034,crawl
23/10/2020, 15:43:11,-9.575289,-4.7397437,3.396138,-0.66622514,0.8171029,2.4723303,11.21093567,2.687737034,crawl
23/10/2020, 15:43:11,-9.575289,-4.7397437,3.396138,-0.21907195,0.8305419,2.2780752,11.21093567,2.434629147,crawl
23/10/2020, 15:43:11,-10.051897,-4.653523,3.0919704,-0.21907195,0.8305419,2.2780752,11.50026919,2.434629147,crawl
23/10/2020, 15:43:25,-11.60866,-3.784131,1.7579445,0.717995,0.7816727,1.4998332,12.33576093,1.837397274,crawl
23/10/2020, 15:43:25,-12.082874,-3.4943337,1.346001,0.717995,0.7816727,1.4998332,12.6498197,1.837397274,crawl
23/10/2020, 15:43:25,-12.082874,-3.4943337,1.346001,0.70822114,0.7279166,1.3275692,12.6498197,1.67149031,crawl
23/10/2020, 15:43:25,-12.379856,-3.1326857,1.0298585,0.70822114,0.7279166,1.3275692,12.8115247,1.67149031,crawl
23/10/2020, 15:43:25,-12.379856,-3.1326857,1.0298585,0.5982654,0.65216935,1.1760747,12.8115247,1.471868934,crawl
23/10/2020, 15:43:25,-12.525952,-2.8093581,0.81191164,0.5982654,0.65216935,1.1760747,12.86278257,1.471868934,crawl
23/10/2020, 15:43:25,-12.525952,-2.8093581,0.81191164,0.39545825,0.55076575,1.0429062,12.86278257,1.243938669,crawl
23/10/2020, 15:43:25,-12.377461,-2.4740553,0.8047266,0.39545825,0.55076575,1.0429062,12.64792813,1.243938669,crawl
23/10/2020, 15:43:25,-12.377461,-2.4740553,0.8047266,0.10957342,0.44081002,0.9329505,12.64792813,1.037649479,crawl
23/10/2020, 15:43:25,-11.931988,-2.2225783,0.9532178,0.10957342,0.44081002,0.9329505,12.17459693,1.037649479,crawl
23/10/2020, 15:43:25,-11.931988,-2.2225783,0.9532178,-0.23984137,0.35895413,0.83887726,12.17459693,0.943444228,crawl
23/10/2020, 15:43:25,-11.376344,-1.9950514,1.1783496,-0.23984137,0.35895413,0.83887726,11.60990674,0.943444228,crawl
23/10/2020, 15:43:25,-11.376344,-1.9950514,1.1783496,-0.59780824,0.30764148,0.7582431,11.60990674,1.013385685,crawl
23/10/2020, 15:43:25,-10.909314,-1.8944606,1.477727,-0.59780824,0.30764148,0.7582431,11.17075617,1.013385685,crawl
23/10/2020, 15:43:25,-10.909314,-1.8944606,1.477727,-0.9374492,0.2758765,0.6800524,11.17075617,1.190541952,crawl
23/10/2020, 15:43:25,-10.454261,-2.0142114,1.5543678,-0.9374492,0.2758765,0.6800524,10.75939944,1.190541952,crawl
23/10/2020, 15:43:25,-10.454261,-2.0142114,1.5543678,-1.2746468,0.24899845,0.6128572,10.75939944,1.436077492,crawl
23/10/2020, 15:43:25,-10.140513,-2.1339624,1.6669337,-1.2746468,0.24899845,0.6128572,10.49583135,1.436077492,crawl
23/10/2020, 15:43:25,-10.140513,-2.1339624,1.6669337,-1.5825227,0.21479,0.5578794,10.49583135,1.691668529,crawl
23/10/2020, 15:43:25,-9.707015,-2.2968237,1.8681153,-1.5825227,0.21479,0.5578794,10.14846762,1.691668529,crawl
23/10/2020, 15:43:25,-9.707015,-2.2968237,1.8681153,-1.8232036,0.18302502,0.51267534,10.14846762,1.902736293,crawl
23/10/2020, 15:43:25,-9.333391,-2.548301,2.1028273,-1.8232036,0.18302502,0.51267534,9.900904589,1.902736293,crawl
23/10/2020, 15:43:25,-9.333391,-2.548301,2.1028273,-1.9881371,0.16103387,0.47846693,9.900904589,2.051231762,crawl
23/10/2020, 15:43:25,-8.959768,-2.9219239,2.2800586,-1.9881371,0.16103387,0.47846693,9.696069016,2.051231762,crawl
23/10/2020, 15:43:25,-8.959768,-2.9219239,2.2800586,-2.0626626,0.14515139,0.46014097,9.696069016,2.118342666,crawl
23/10/2020, 15:43:25,-8.660391,-3.3338673,2.435735,-2.0626626,0.14515139,0.46014097,9.594261093,2.118342666,crawl
23/10/2020, 15:43:25,-8.660391,-3.3338673,2.435735,-2.0443366,0.14026447,0.46258444,9.594261093,2.100707129,crawl
23/10/2020, 15:43:25,-8.660391,-3.3338673,2.435735,0.4382188,-0.47304404,-2.1775742,9.594261093,2.271042843,crawl
23/10/2020, 15:43:25,-8.660391,-3.3338673,2.435735,0.55917007,-0.4192879,-2.1458092,9.594261093,2.256761066,crawl
23/10/2020, 15:43:25,-8.660391,-3.3338673,2.435735,0.6630171,-0.36919698,-2.1006052,9.594261093,2.233481697,crawl
23/10/2020, 15:43:26,-8.978929,-2.3566992,1.2861255,-1.0889438,-0.13340306,0.24755993,9.371729208,1.124669277,crawl
23/10/2020, 15:43:26,-8.978929,-2.3566992,1.2861255,-1.3894894,-0.15295075,0.18525171,9.371729208,1.410103881,crawl
23/10/2020, 15:43:26,-8.978929,-2.3566992,1.2861255,-1.6680439,-0.16516805,0.124165215,9.371729208,1.680793793,crawl
23/10/2020, 15:43:26,-8.978929,-2.3566992,1.2861255,-1.9099463,-0.16394632,0.07407428,9.371729208,1.918400466,crawl
23/10/2020, 15:43:26,-8.978929,-2.3566992,1.2861255,-2.105423,-0.1395117,0.033757195,9.371729208,2.110310158,crawl
23/10/2020, 15:43:26,-8.978929,-2.3566992,1.2861255,-2.2447002,-0.10163808,-0.004116436,9.371729208,2.247003828,crawl
23/10/2020, 15:43:26,-8.978929,-2.3566992,1.2861255,-2.3167822,-0.058877535,-0.03221623,9.371729208,2.317754167,crawl
23/10/2020, 15:43:26,-8.978929,-2.3566992,1.2861255,-2.3131173,-0.016116982,-0.051763907,9.371729208,2.313752524,crawl
23/10/2020, 15:43:26,-8.978929,-2.3566992,1.2861255,-2.2239308,0.019313188,-0.05298564,9.371729208,2.224645778,crawl
23/10/2020, 15:43:26,-8.978929,-2.3566992,1.2861255,-2.051667,0.052299898,-0.039546605,9.371729208,2.052714444,crawl
23/10/2020, 15:43:26,-8.978929,-2.3566992,1.2861255,-1.8060993,0.08650834,-0.013890276,9.371729208,1.808223244,crawl
23/10/2020, 15:43:26,-8.978929,-2.3566992,1.2861255,-1.517771,0.1256037,0.008100865,9.371729208,1.522980873,crawl
23/10/2020, 15:43:26,-8.978929,-2.3566992,1.2861255,-1.2062299,0.17202945,0.027648546,9.371729208,1.218749033,crawl
23/10/2020, 15:43:26,-8.978929,-2.3566992,1.2861255,-0.88613653,0.22578557,0.047196224,9.371729208,0.915666183,crawl
23/10/2020, 15:43:26,-8.978929,-2.3566992,1.2861255,-0.5868127,0.27954167,0.067965634,9.371729208,0.653538055,crawl
23/10/2020, 15:43:26,-8.978929,-2.3566992,1.2861255,-0.3461319,0.33207607,0.089956775,9.371729208,0.488030763,crawl
23/10/2020, 15:43:26,-8.600515,-2.5004005,1.4705421,-0.3461319,0.33207607,0.089956775,9.076528049,0.488030763,crawl
23/10/2020, 15:43:26,-8.284373,-2.574646,1.6286134,-0.3461319,0.33207607,0.089956775,8.82677881,0.488030763,crawl
23/10/2020, 15:43:26,-8.071217,-2.7255323,1.8010547,-0.3461319,0.33207607,0.089956775,8.707287839,0.488030763,crawl
23/10/2020, 15:43:26,-7.9634404,-2.924319,1.9327809,-0.3461319,0.33207607,0.089956775,8.700785421,0.488030763,crawl
23/10/2020, 15:43:26,-7.893985,-3.2644117,1.9926564,-0.3461319,0.33207607,0.089956775,8.771662268,0.488030763,crawl
23/10/2020, 15:43:26,-7.846084,-3.4703834,2.1195924,-0.3461319,0.33207607,0.089956775,8.837265925,0.488030763,crawl
23/10/2020, 15:43:26,-7.704778,-3.7506008,2.189048,-0.3461319,0.33207607,0.089956775,8.844351015,0.488030763,crawl
23/10/2020, 15:43:26,-7.5012016,-3.8775368,2.2513185,-0.3461319,0.33207607,0.089956775,8.739093323,0.488030763,crawl
23/10/2020, 15:43:26,-7.278465,-3.9445972,2.3303542,-0.3461319,0.33207607,0.089956775,8.600374872,0.488030763,crawl
23/10/2020, 15:43:26,-7.1203933,-3.9924977,2.299219,-0.3461319,0.33207607,0.089956775,8.480946036,0.488030763,crawl
23/10/2020, 15:43:26,-6.9719024,-3.9278321,2.2872438,-0.3461319,0.33207607,0.089956775,8.322666176,0.488030763,crawl
23/10/2020, 15:43:26,-6.926397,-3.8152664,2.215393,-0.3461319,0.33207607,0.089956775,8.212137188,0.488030763,crawl
23/10/2020, 15:43:26,-6.9790874,-3.5901344,2.2369483,-0.3461319,0.33207607,0.089956775,8.160922904,0.488030763,crawl
23/10/2020, 15:43:26,-7.103628,-3.319497,2.2129982,-0.3461319,0.33207607,0.089956775,8.147266713,0.488030763,crawl
23/10/2020, 15:43:27,-9.692644,-3.7577858,4.045188,-0.4157705,0.27831995,-0.25579283,11.15490249,0.561922661,crawl
23/10/2020, 15:43:27,-9.692644,-3.7577858,4.045188,-0.26549768,0.2526636,-0.33031836,11.15490249,0.493394509,crawl
23/10/2020, 15:43:27,-9.692644,-3.7577858,4.045188,-0.14332469,0.21112481,-0.4048439,11.15490249,0.478554314,crawl
23/10/2020, 15:43:27,-9.692644,-3.7577858,4.045188,-0.046808027,0.18669021,-0.47936943,11.15490249,0.516564883,crawl
23/10/2020, 15:43:27,-9.692644,-3.7577858,4.045188,0.047265187,0.20012924,-0.5465646,11.15490249,0.583967936,crawl
23/10/2020, 15:43:27,-9.692644,-3.7577858,4.045188,0.16821647,0.21845518,-0.5844382,11.15490249,0.646210075,crawl
23/10/2020, 15:43:27,-9.692644,-3.7577858,4.045188,0.26351142,0.20012924,-0.6052076,11.15490249,0.689758108,crawl
23/10/2020, 15:43:27,-9.692644,-3.7577858,4.045188,0.29527637,0.13904274,-0.63086396,11.15490249,0.710288928,crawl
23/10/2020, 15:43:27,-9.692644,-3.7577858,4.045188,0.27206352,0.05352163,-0.6614072,11.15490249,0.717176808,crawl
23/10/2020, 15:43:27,-9.692644,-3.7577858,4.045188,0.2060901,-0.036886394,-0.69195044,11.15490249,0.72293094,crawl
23/10/2020, 15:43:27,-9.692644,-3.7577858,4.045188,0.123012446,-0.12485095,-0.7188285,11.15490249,0.739887987,crawl
23/10/2020, 15:43:27,-9.692644,-3.7577858,4.045188,0.04848692,-0.21281551,-0.7395979,11.15490249,0.771133257,crawl
23/10/2020, 15:43:27,-9.692644,-3.7577858,4.045188,-0.024816886,-0.30322355,-0.76403254,11.15490249,0.822378335,crawl
23/10/2020, 15:43:27,-9.692644,-3.7577858,4.045188,-0.09567723,-0.38996637,-0.8055713,11.15490249,0.900096133,crawl
23/10/2020, 15:43:27,-9.692644,-3.7577858,4.045188,-0.1640941,-0.48281786,-0.8715448,11.15490249,1.009767429,crawl
23/10/2020, 15:43:27,-9.692644,-3.7577858,4.045188,-0.22273715,-0.581778,-0.9570659,11.15490249,1.14195121,crawl
23/10/2020, 15:43:27,-9.778865,-3.7170706,4.0763235,-0.22273715,-0.581778,-0.9570659,11.22760994,1.14195121,crawl
23/10/2020, 15:43:27,-9.826766,-3.5661843,4.1050634,-0.22273715,-0.581778,-0.9570659,11.23096374,1.14195121,crawl
23/10/2020, 15:43:27,-9.68067,-3.4057178,4.054768,-0.22273715,-0.581778,-0.9570659,11.03428411,1.14195121,crawl
23/10/2020, 15:43:27,-9.656719,-3.2332766,3.9374123,-0.22273715,-0.581778,-0.9570659,10.91831117,1.14195121,crawl
23/10/2020, 15:43:27,-10.226734,-3.283572,3.9733377,-0.22273715,-0.581778,-0.9570659,11.45230756,1.14195121,crawl
23/10/2020, 15:43:27,-11.206297,-3.3602126,3.9565725,-0.22273715,-0.581778,-0.9570659,12.3501654,1.14195121,crawl
23/10/2020, 15:43:27,-12.051739,-3.3697927,3.8392165,-0.22273715,-0.581778,-0.9570659,13.08967122,1.14195121,crawl
23/10/2020, 15:43:27,-12.537928,-3.2117214,3.6859353,-0.22273715,-0.581778,-0.9570659,13.45737353,1.14195121,crawl
23/10/2020, 15:43:27,-12.739109,-3.1015503,3.5949244,-0.22273715,-0.581778,-0.9570659,13.59514602,1.14195121,crawl
23/10/2020, 15:43:27,-12.727135,-2.9746144,3.5063088,-0.22273715,-0.581778,-0.9570659,13.53227586,1.14195121,crawl
23/10/2020, 15:43:27,-12.645703,-3.0368848,3.4440382,-0.22273715,-0.581778,-0.9570659,13.45354527,1.14195121,crawl
23/10/2020, 15:43:27,-12.540323,-3.0823903,3.4751735,-0.22273715,-0.581778,-0.9570659,13.37302016,1.14195121,crawl
23/10/2020, 15:43:27,-12.169095,-3.1207106,3.4751735,-0.22273715,-0.581778,-0.9570659,13.03466683,1.14195121,crawl
23/10/2020, 15:43:27,-11.678116,-3.0919704,3.4416432,-0.22273715,-0.581778,-0.9570659,12.56119338,1.14195121,crawl
23/10/2020, 15:43:28,-1.0801538,0.4766089,8.760982,-0.28871056,-0.36919698,0.51267534,8.840174558,0.694619472,crawl
23/10/2020, 15:43:28,-0.8933423,0.2802173,8.837623,-0.28871056,-0.36919698,0.51267534,8.887078046,0.694619472,crawl
23/10/2020, 15:43:28,-0.84544194,-0.05269043,9.072334,-0.28871056,-0.36919698,0.51267534,9.111794434,0.694619472,crawl
23/10/2020, 15:43:28,-0.91010743,-0.24908204,9.158555,-0.28871056,-0.36919698,0.51267534,9.207033597,0.694619472,crawl
23/10/2020, 15:43:28,-0.84544194,-0.17483643,9.18011,-0.28871056,-0.36919698,0.51267534,9.22061598,0.694619472,crawl
23/10/2020, 15:43:28,-0.7544312,0.009580079,9.1130495,-0.28871056,-0.36919698,0.51267534,9.144229301,0.694619472,crawl
23/10/2020, 15:43:28,-0.7711963,0.31374758,9.0148535,-0.28871056,-0.36919698,0.51267534,9.053218461,0.694619472,crawl
23/10/2020, 15:43:28,-0.87897223,0.5484595,8.859178,-0.28871056,-0.36919698,0.51267534,8.919553102,0.694619472,crawl
23/10/2020, 15:43:28,-0.87897223,0.5484595,8.859178,-0.27282807,-0.35942313,0.51511884,8.919553102,0.684812062,crawl
23/10/2020, 15:43:28,-0.87897223,0.5484595,8.859178,-0.25205866,-0.3386537,0.5065667,8.919553102,0.659416203,crawl
23/10/2020, 15:43:28,-0.87897223,0.5484595,8.859178,-0.21051985,-0.31421912,0.4821321,8.919553102,0.61278351,crawl
23/10/2020, 15:43:28,-0.87897223,0.5484595,8.859178,-0.15309854,-0.29833663,0.45525405,8.919553102,0.565420333,crawl
23/10/2020, 15:43:28,-0.87897223,0.5484595,8.859178,-0.06391225,-0.2763455,0.44059327,8.919553102,0.523998128,crawl
23/10/2020, 15:43:28,-0.87897223,0.5484595,8.859178,0.028939236,-0.25435436,0.43814984,8.919553102,0.507453348,crawl
23/10/2020, 15:43:28,-0.87897223,0.5484595,8.859178,0.08269536,-0.2409153,0.43448463,8.919553102,0.503642331,crawl
23/10/2020, 15:43:28,-0.87897223,0.5484595,8.859178,0.09613439,-0.23480666,0.4295977,8.919553102,0.498929028,crawl
23/10/2020, 15:43:28,-0.87897223,0.5484595,8.859178,0.061925948,-0.23969357,0.428376,8.919553102,0.494766427,crawl
23/10/2020, 15:43:28,-0.87897223,0.5484595,8.859178,0.014278475,-0.2409153,0.43081945,8.919553102,0.493811154,crawl
23/10/2020, 15:43:28,-0.87897223,0.5484595,8.859178,-0.015043045,-0.23602839,0.43448463,8.919553102,0.494684331,crawl
23/10/2020, 15:43:28,-0.87897223,0.5484595,8.859178,-0.061468784,-0.22991973,0.44303674,8.919553102,0.502914548,crawl
23/10/2020, 15:43:28,-0.87897223,0.5484595,8.859178,-0.08712512,-0.22747627,0.4540323,8.919553102,0.515249038,crawl
23/10/2020, 15:43:28,-0.87897223,0.5484595,8.859178,-0.081016466,-0.21892416,0.45891923,8.919553102,0.51487699,crawl
23/10/2020, 15:43:28,-0.87897223,0.5484595,8.859178,-0.056581866,-0.21403724,0.4613627,8.919553102,0.511731354,crawl
23/10/2020, 15:43:28,-0.9148975,0.74724615,8.57896,-0.056581866,-0.21403724,0.4613627,8.659906241,0.511731354,crawl
23/10/2020, 15:43:28,-0.847837,0.96040285,8.576566,-0.056581866,-0.21403724,0.4613627,8.671717309,0.511731354,crawl
23/10/2020, 15:43:28,-0.8286768,0.9532178,8.571775,-0.056581866,-0.21403724,0.4613627,8.664332841,0.511731354,crawl
23/10/2020, 15:43:28,-0.8095166,1.0514137,8.538245,-0.056581866,-0.21403724,0.4613627,8.640741804,0.511731354,crawl
23/10/2020, 15:43:28,-0.7209009,1.1208692,8.746612,-0.056581866,-0.21403724,0.4613627,8.847556734,0.511731354,crawl
23/10/2020, 15:43:28,-0.6586304,0.83586186,9.09868,-0.056581866,-0.21403724,0.4613627,9.160700215,0.511731354,crawl
23/10/2020, 15:43:28,-0.65384036,0.5364844,9.400452,-0.056581866,-0.21403724,0.4613627,9.438422229,0.511731354,crawl
23/10/2020, 15:43:29,-14.135406,-3.159031,3.3530276,-0.25816733,-0.67462945,-0.22891477,14.86714364,0.757744834,crawl
23/10/2020, 15:43:29,-14.135406,-3.159031,3.3530276,-0.34491014,-0.7772548,-0.2386886,14.86714364,0.883210231,crawl
23/10/2020, 15:43:29,-14.494658,-3.1350808,3.2332766,-0.34491014,-0.7772548,-0.2386886,15.17820587,0.883210231,crawl
23/10/2020, 15:43:29,-14.494658,-3.1350808,3.2332766,-0.48785257,-0.93241453,-0.25701457,15.17820587,1.083260579,crawl
23/10/2020, 15:43:29,-14.3677225,-3.0368848,3.178191,-0.48785257,-0.93241453,-0.25701457,15.02514616,1.083260579,crawl
23/10/2020, 15:43:29,-14.3677225,-3.0368848,3.178191,-0.6918815,-1.1266696,-0.29977512,15.02514616,1.355709996,crawl
23/10/2020, 15:43:29,-13.4743805,-2.823728,3.051255,-0.6918815,-1.1266696,-0.29977512,14.10115339,1.355709996,crawl
23/10/2020, 15:43:29,-13.4743805,-2.823728,3.051255,-0.92645365,-1.3123726,-0.37430063,14.10115339,1.6494663,crawl
23/10/2020, 15:43:29,-12.193045,-2.6488917,2.9913795,-0.92645365,-1.3123726,-0.37430063,12.83102945,1.6494663,crawl
23/10/2020, 15:43:29,-12.193045,-2.6488917,2.9913795,-1.1610259,-1.450428,-0.48425636,12.83102945,1.919954876,crawl
23/10/2020, 15:43:29,-10.918895,-2.5004005,2.907554,-1.1610259,-1.450428,-0.48425636,11.57273242,1.919954876,crawl
23/10/2020, 15:43:29,-10.918895,-2.5004005,2.907554,-1.3711634,-1.5396143,-0.6247553,11.57273242,2.154256357,crawl
23/10/2020, 15:43:29,-9.750125,-2.3590944,2.7470875,-1.3711634,-1.5396143,-0.6247553,10.40080536,2.154256357,crawl
23/10/2020, 15:43:29,-9.750125,-2.3590944,2.7470875,-1.5458708,-1.6068095,-0.79335403,10.40080536,2.366635556,crawl
23/10/2020, 15:43:29,-8.672366,-2.2776637,2.5938063,-1.5458708,-1.6068095,-0.79335403,9.334105068,2.366635556,crawl
23/10/2020, 15:43:29,-8.672366,-2.2776637,2.5938063,-1.6668221,-1.6507918,-0.9863874,9.334105068,2.544871181,crawl
23/10/2020, 15:43:29,-7.774234,-2.1627028,2.5171657,-1.6668221,-1.6507918,-0.9863874,8.452935456,2.544871181,crawl
23/10/2020, 15:43:29,-7.774234,-2.1627028,2.5171657,-1.7010305,-1.6593438,-1.1879728,8.452935456,2.656728448,crawl
23/10/2020, 15:43:29,-7.1611085,-2.1171973,2.4501052,-1.7010305,-1.6593438,-1.1879728,7.859199362,2.656728448,crawl
23/10/2020, 15:43:29,-7.1611085,-2.1171973,2.4501052,-1.6594917,-1.622692,-1.3687888,7.859199362,2.694554646,crawl
23/10/2020, 15:43:29,-6.8808913,-2.189048,2.3902297,-1.6594917,-1.622692,-1.3687888,7.606036734,2.694554646,crawl
23/10/2020, 15:43:29,-6.8808913,-2.189048,2.3902297,-1.554423,-1.5530534,-1.5190617,7.606036734,2.671283209,crawl
23/10/2020, 15:43:29,-7.082073,-2.3614893,2.3782544,-1.554423,-1.5530534,-1.5190617,7.835080518,2.671283209,crawl
23/10/2020, 15:43:29,-7.082073,-2.3614893,2.3782544,-1.3736069,-1.4760844,-1.635126,7.835080518,2.59600809,crawl
23/10/2020, 15:43:29,-7.6305327,-2.6105714,2.4668703,-1.3736069,-1.4760844,-1.635126,8.433597215,2.59600809,crawl
23/10/2020, 15:43:29,-7.6305327,-2.6105714,2.4668703,-1.1280391,-1.4259934,-1.7267557,8.433597215,2.507511702,crawl
23/10/2020, 15:43:29,-8.461604,-3.0368848,2.6273365,-1.1280391,-1.4259934,-1.7267557,9.366125696,2.507511702,crawl
23/10/2020, 15:43:29,-8.461604,-3.0368848,2.6273365,-0.8482629,-1.3966719,-1.7988379,9.366125696,2.430238696,crawl
23/10/2020, 15:43:29,-9.3453665,-3.542234,2.675237,-0.8482629,-1.3966719,-1.7988379,10.34602284,2.430238696,crawl
23/10/2020, 15:43:29,-9.3453665,-3.542234,2.675237,-0.522061,-1.3759025,-1.839155,10.34602284,2.355450365,crawl
23/10/2020, 15:43:30,-9.690249,-3.8487966,1.5998731,0.8902589,-0.5610086,-1.539831,10.54863799,1.86503919,crawl
23/10/2020, 15:43:30,-9.690249,-3.8487966,1.5998731,0.96967137,-0.5842215,-1.6949908,10.54863799,2.038276468,crawl
23/10/2020, 15:43:30,-9.189691,-3.7649708,1.4034815,0.96967137,-0.5842215,-1.6949908,10.02971477,2.038276468,crawl
23/10/2020, 15:43:30,-9.189691,-3.7649708,1.4034815,1.0356448,-0.5988822,-1.8501505,10.02971477,2.203242321,crawl
23/10/2020, 15:43:30,-8.830438,-3.7410207,1.2502003,1.0356448,-0.5988822,-1.8501505,9.671342498,2.203242321,crawl
23/10/2020, 15:43:30,-8.830438,-3.7410207,1.2502003,1.0967312,-0.5903301,-2.0077536,9.671342498,2.362706819,crawl
23/10/2020, 15:43:30,-8.6077,-3.8631666,1.096919,1.0967312,-0.5903301,-2.0077536,9.498409993,2.362706819,crawl
23/10/2020, 15:43:30,-8.6077,-3.8631666,1.096919,1.1627046,-0.5536782,-2.1543612,9.498409993,2.509923088,crawl
23/10/2020, 15:43:30,-8.804092,-4.040398,0.91010743,1.1627046,-0.5536782,-2.1543612,9.729602028,2.509923088,crawl
23/10/2020, 15:43:30,-8.804092,-4.040398,0.91010743,1.2347867,-0.4999221,-2.2814212,9.729602028,2.64187491,crawl
23/10/2020, 15:43:30,-9.314231,-4.150569,0.8286768,1.2347867,-0.4999221,-2.2814212,10.23077835,2.64187491,crawl
23/10/2020, 15:43:30,-9.314231,-4.150569,0.8286768,1.3093122,-0.4486094,-2.3840466,10.23077835,2.756669527,crawl
23/10/2020, 15:43:30,-10.075848,-4.2080493,0.7232959,1.3093122,-0.4486094,-2.3840466,10.94319612,2.756669527,crawl
23/10/2020, 15:43:30,-10.075848,-4.2080493,0.7232959,1.3801726,-0.4229531,-2.4659023,10.94319612,2.85734843,crawl
23/10/2020, 15:43:30,-10.830278,-4.167334,0.6011499,1.3801726,-0.4229531,-2.4659023,11.6199391,2.85734843,crawl
23/10/2020, 15:43:30,-10.830278,-4.167334,0.6011499,1.4265983,-0.41806617,-2.5257673,11.6199391,2.930778506,crawl
23/10/2020, 15:43:30,-10.830278,-4.167334,0.6011499,1.4522547,-0.4302835,-2.5685277,11.6199391,2.981865522,crawl
23/10/2020, 15:43:30,-11.601475,-4.169729,0.5484595,1.4522547,-0.4302835,-2.5685277,12.3402458,2.981865522,crawl
23/10/2020, 15:43:30,-12.16191,-4.140989,0.48379397,1.4522547,-0.4302835,-2.5685277,12.85666758,2.981865522,crawl
23/10/2020, 15:43:30,-12.16191,-4.140989,0.48379397,1.4632503,-0.45227462,-2.5929623,12.85666758,3.011495811,crawl
23/10/2020, 15:43:30,-12.540323,-4.0811133,0.48379397,1.4632503,-0.45227462,-2.5929623,13.19656206,3.011495811,crawl
23/10/2020, 15:43:30,-12.540323,-4.0811133,0.48379397,1.4705806,-0.48770478,-2.6112883,13.19656206,3.036328346,crawl
23/10/2020, 15:43:30,-12.729529,-4.129014,0.49337405,1.4705806,-0.48770478,-2.6112883,13.39153064,3.036328346,crawl
23/10/2020, 15:43:30,-12.729529,-4.129014,0.49337405,1.4827979,-0.52435666,-2.6198404,13.39153064,3.055683727,crawl
23/10/2020, 15:43:30,-12.676839,-4.1170387,0.5963599,1.4827979,-0.52435666,-2.6198404,13.34196001,3.055683727,crawl
23/10/2020, 15:43:30,-12.676839,-4.1170387,0.5963599,1.5072325,-0.5487913,-2.621062,13.34196001,3.072928253,crawl
23/10/2020, 15:43:30,-12.545113,-4.1721244,0.68976563,1.5072325,-0.5487913,-2.621062,13.23866492,3.072928253,crawl
23/10/2020, 15:43:30,-12.545113,-4.1721244,0.68976563,1.5561017,-0.5610086,-2.6100667,13.23866492,3.090085919,crawl
23/10/2020, 15:43:30,-12.372671,-4.1936793,0.7592212,1.5561017,-0.5610086,-2.6100667,13.08611302,3.090085919,crawl
