DATE,TIME,ax,ay,az,gx,gy,gz,ma,mg,label
27/03/2021, 15:30:32,0.26345217,5.839058,7.8436894,-0.014660761,-0.13194685,-0.047647472,9.781997164,0.14105031,crawl
27/03/2021, 15:30:32,0.05508545,5.752837,8.049661,-0.014660761,-0.13194685,-0.047647472,9.894200682,0.14105031,crawl
27/03/2021, 15:30:32,0.05508545,5.752837,8.049661,-0.03420844,-0.14416414,-0.058643043,9.894200682,0.15935032,crawl
27/03/2021, 15:30:32,0.13172609,5.760022,8.284373,-0.03420844,-0.14416414,-0.058643043,10.09088935,0.15935032,crawl
27/03/2021, 15:30:32,0.13172609,5.760022,8.284373,-0.03176498,-0.074525535,-0.03298671,10.09088935,0.087471095,crawl
27/03/2021, 15:30:32,0.09101075,5.6690116,8.238868,-0.03176498,-0.074525535,-0.03298671,10.00124579,0.087471095,crawl
27/03/2021, 15:30:32,0.09101075,5.6690116,8.238868,-0.04642574,0.00855211,-0.018325951,10.00124579,0.050639199,crawl
27/03/2021, 15:30:32,0.8286768,5.4055595,9.359736,-0.04642574,0.00855211,-0.018325951,10.84026962,0.050639199,crawl
27/03/2021, 15:30:32,0.8286768,5.4055595,9.359736,-0.34452787,0.04276055,-0.095294945,10.84026962,0.360012562,crawl
27/03/2021, 15:30:32,0.023950197,5.221143,11.141631,-0.34452787,0.04276055,-0.095294945,12.30434271,0.360012562,crawl
27/03/2021, 15:30:32,0.023950197,5.221143,11.141631,-0.061086502,0.00977384,-0.030543251,12.30434271,0.0689926,crawl
27/03/2021, 15:30:32,0.6706055,5.8510327,4.7301636,-0.061086502,0.00977384,-0.030543251,7.553723797,0.0689926,crawl
27/03/2021, 15:30:32,0.6706055,5.8510327,4.7301636,-0.101403594,0.116064355,-0.087964565,7.553723797,0.17745813,crawl
27/03/2021, 15:30:32,-2.179468,5.199588,3.8535867,-0.101403594,0.116064355,-0.087964565,6.82905002,0.17745813,crawl
27/03/2021, 15:30:32,-2.179468,5.199588,3.8535867,-0.19792026,0.15027279,-0.13072512,6.82905002,0.280790663,crawl
27/03/2021, 15:30:32,-3.0105398,5.249883,3.8511915,-0.19792026,0.15027279,-0.13072512,7.173304621,0.280790663,crawl
27/03/2021, 15:30:32,-3.0105398,5.249883,3.8511915,-0.074525535,0.101403594,-0.11850781,7.173304621,0.172860768,crawl
27/03/2021, 15:30:32,-1.705254,5.5229154,1.5256275,-0.074525535,0.101403594,-0.11850781,5.97812884,0.172860768,crawl
27/03/2021, 15:30:32,-1.705254,5.5229154,1.5256275,-0.11972954,0.11362089,-0.07696899,5.97812884,0.182123847,crawl
27/03/2021, 15:30:32,2.2632935,6.4138627,2.5051906,-0.11972954,0.11362089,-0.07696899,7.248179929,0.182123847,crawl
27/03/2021, 15:30:33,3.403323,5.7959476,13.833633,0.15027279,-0.2480112,-0.1869247,15.38002044,0.345010592,crawl
27/03/2021, 15:30:33,-3.6763551,4.754114,12.581038,0.15027279,-0.2480112,-0.1869247,13.94272991,0.345010592,crawl
27/03/2021, 15:30:33,-3.6763551,4.754114,12.581038,0.07696899,0.07941245,-0.18814643,13.94272991,0.218242162,crawl
27/03/2021, 15:30:33,-2.6584718,5.0654664,0.90771246,0.07696899,0.07941245,-0.18814643,5.792267624,0.218242162,crawl
27/03/2021, 15:30:33,-2.6584718,5.0654664,0.90771246,-0.109955706,0.01343903,-0.15393798,5.792267624,0.189651698,crawl
27/03/2021, 15:30:33,3.4775686,6.4354177,4.9457154,-0.109955706,0.01343903,-0.15393798,8.829959513,0.189651698,crawl
27/03/2021, 15:30:33,3.4775686,6.4354177,4.9457154,-0.15271625,-0.2651154,-0.1588249,8.829959513,0.344722764,crawl
27/03/2021, 15:30:33,0.8095166,5.6282964,15.764019,-0.15271625,-0.2651154,-0.1588249,16.75820195,0.344722764,crawl
27/03/2021, 15:30:33,0.8095166,5.6282964,15.764019,0.03909536,-0.12095127,-0.16126837,16.75820195,0.205341531,crawl
27/03/2021, 15:30:33,-3.803291,4.6750784,8.47837,0.03909536,-0.12095127,-0.16126837,10.40212161,0.205341531,crawl
27/03/2021, 15:30:33,-3.803291,4.6750784,8.47837,0.018325951,0.16737701,-0.122173004,10.40212161,0.208031601,crawl
27/03/2021, 15:30:33,-0.44307864,5.7312818,-0.047900394,0.018325951,0.16737701,-0.122173004,5.748582757,0.208031601,crawl
27/03/2021, 15:30:33,-0.44307864,5.7312818,-0.047900394,-0.05009093,-0.23701562,-0.09162975,5.748582757,0.259000998,crawl
27/03/2021, 15:30:33,4.4523416,6.1216702,10.0063925,-0.05009093,-0.23701562,-0.09162975,12.5469551,0.259000998,crawl
27/03/2021, 15:30:33,4.4523416,6.1216702,10.0063925,-0.00977384,-0.41294473,-0.12583819,12.5469551,0.431803348,crawl
27/03/2021, 15:30:33,-1.343606,5.240303,15.086228,-0.00977384,-0.41294473,-0.12583819,16.02686306,0.431803348,crawl
27/03/2021, 15:30:33,-1.343606,5.240303,15.086228,-0.20280719,0.03298671,-0.12583819,16.02686306,0.240944244,crawl
27/03/2021, 15:30:33,-3.2524366,4.8571,3.4655933,-0.20280719,0.03298671,-0.12583819,6.795594291,0.240944244,crawl
27/03/2021, 15:30:33,-3.2524366,4.8571,3.4655933,-0.21991141,0.11972954,-0.080634184,6.795594291,0.263055248,crawl
27/03/2021, 15:30:33,2.8333082,6.3084817,1.4825171,-0.21991141,0.11972954,-0.080634184,7.072653941,0.263055248,crawl
27/03/2021, 15:30:34,2.430945,-8.796907,2.8380983,-0.31520635,-0.08674283,-0.23945908,9.557712872,0.405240686,crawl
27/03/2021, 15:30:34,2.548301,-8.880733,2.7614577,-0.31520635,-0.08674283,-0.23945908,9.642971368,0.405240686,crawl
27/03/2021, 15:30:34,2.548301,-8.880733,2.7614577,-0.28710654,-0.08918629,-0.25045466,9.642971368,0.391295158,crawl
27/03/2021, 15:30:34,2.565066,-8.928633,2.938689,-0.28710654,-0.08918629,-0.25045466,9.743507563,0.391295158,crawl
27/03/2021, 15:30:34,2.565066,-8.928633,2.938689,-0.22846352,-0.07819072,-0.25900677,9.743507563,0.354109973,crawl
27/03/2021, 15:30:34,2.5578809,-8.813672,2.7734327,-0.22846352,-0.07819072,-0.25900677,9.587257115,0.354109973,crawl
27/03/2021, 15:30:34,2.5578809,-8.813672,2.7734327,-0.1710422,-0.061086502,-0.28588483,9.587257115,0.338699174,crawl
27/03/2021, 15:30:34,2.3327491,-8.950189,2.675237,-0.1710422,-0.061086502,-0.28588483,9.628316977,0.338699174,crawl
27/03/2021, 15:30:34,2.3327491,-8.950189,2.675237,-0.102625325,-0.040317092,-0.31642807,9.628316977,0.335088266,crawl
27/03/2021, 15:30:34,2.2417383,-8.828042,2.5962012,-0.102625325,-0.040317092,-0.31642807,9.471007199,0.335088266,crawl
27/03/2021, 15:30:34,2.2417383,-8.828042,2.5962012,-0.061086502,-0.03909536,-0.3408627,9.471007199,0.348493016,crawl
27/03/2021, 15:30:34,1.9806812,-8.722662,2.2656887,-0.061086502,-0.03909536,-0.3408627,9.227202984,0.348493016,crawl
27/03/2021, 15:30:34,1.9806812,-8.722662,2.2656887,-0.05742131,-0.0488692,-0.33964095,9.227202984,0.347910013,crawl
27/03/2021, 15:30:34,1.8872755,-8.380174,2.7470875,-0.05742131,-0.0488692,-0.33964095,9.018625684,0.347910013,crawl
27/03/2021, 15:30:34,1.8872755,-8.380174,2.7470875,-0.047647472,-0.03909536,-0.30421078,9.018625684,0.310391573,crawl
27/03/2021, 15:30:34,1.7387843,-8.131092,2.6560767,-0.047647472,-0.03909536,-0.30421078,8.728847143,0.310391573,crawl
27/03/2021, 15:30:34,1.7387843,-8.131092,2.6560767,-0.00733038,-0.03420844,-0.26267195,8.728847143,0.264991516,crawl
27/03/2021, 15:30:34,1.5208374,-8.004155,2.5171657,-0.00733038,-0.03420844,-0.26267195,8.527342449,0.264991516,crawl
27/03/2021, 15:30:34,1.5208374,-8.004155,2.5171657,0.014660761,-0.018325951,-0.22235486,8.527342449,0.223589941,crawl
27/03/2021, 15:30:34,1.4058765,-8.298743,2.6417067,0.014660761,-0.018325951,-0.22235486,8.821804951,0.223589941,crawl
27/03/2021, 15:30:35,-0.7927515,3.4631984,8.126302,3.9999442,1.2363908,0.74036837,8.868989719,4.251630426,crawl
27/03/2021, 15:30:35,-1.5088624,4.248765,7.4892263,3.9999442,1.2363908,0.74036837,8.741692103,4.251630426,crawl
27/03/2021, 15:30:35,-1.5088624,4.248765,7.4892263,4.3627977,1.3829983,0.71837723,8.741692103,4.632791207,crawl
27/03/2021, 15:30:35,-2.299219,5.0487013,6.622229,4.3627977,1.3829983,0.71837723,8.638848907,4.632791207,crawl
27/03/2021, 15:30:35,-2.299219,5.0487013,6.622229,4.4507623,1.5039496,0.70738167,8.638848907,4.750951289,crawl
27/03/2021, 15:30:35,-3.178191,5.9180937,5.647456,4.4507623,1.5039496,0.70738167,8.776017986,4.750951289,crawl
27/03/2021, 15:30:35,-3.178191,5.9180937,5.647456,4.2907157,1.5528189,0.7635813,8.776017986,4.626504518,crawl
27/03/2021, 15:30:35,-3.755391,7.0078273,4.854705,4.2907157,1.5528189,0.7635813,9.315619311,4.626504518,crawl
27/03/2021, 15:30:35,-3.755391,7.0078273,4.854705,4.0207133,1.4599674,0.7525857,9.315619311,4.343273611,crawl
27/03/2021, 15:30:35,-3.8008962,7.0413575,4.488267,4.0207133,1.4599674,0.7525857,9.174533641,4.343273611,crawl
27/03/2021, 15:30:35,-3.8008962,7.0413575,4.488267,3.810576,1.2999208,0.69027746,9.174533641,4.084943844,crawl
27/03/2021, 15:30:35,-3.412903,6.840176,4.023633,3.810576,1.2999208,0.69027746,8.638607473,4.084943844,crawl
27/03/2021, 15:30:35,-3.412903,6.840176,4.023633,3.7458243,1.2009606,0.6304127,8.638607473,3.983833152,crawl
27/03/2021, 15:30:35,-2.6488917,6.5048733,4.2176294,3.7458243,1.2009606,0.6304127,8.192582104,3.983833152,crawl
27/03/2021, 15:30:35,-2.6488917,6.5048733,4.2176294,3.7641501,1.2253952,0.5778783,8.192582104,4.000545341,crawl
27/03/2021, 15:30:35,-1.9040406,6.1528053,4.014053,3.7641501,1.2253952,0.5778783,7.58913726,4.000545341,crawl
27/03/2021, 15:30:35,-1.9040406,6.1528053,4.014053,3.6993985,1.3267988,0.55466545,7.58913726,3.969080271,crawl
27/03/2021, 15:30:35,-2.1076174,6.104905,3.2739918,3.6993985,1.3267988,0.55466545,7.240921219,3.969080271,crawl
27/03/2021, 15:30:35,-2.1076174,6.104905,3.2739918,3.4245093,1.4355328,0.5448916,7.240921219,3.752988829,crawl
27/03/2021, 15:30:35,-2.9889846,6.844966,2.1411476,3.4245093,1.4355328,0.5448916,7.769948558,3.752988829,crawl
27/03/2021, 15:30:36,-8.729847,-3.6380348,-3.7601807,-0.21868968,1.2559384,-1.2840383,10.1776463,1.809408975,crawl
27/03/2021, 15:30:36,-8.595725,-3.439248,-3.8559816,-0.21868968,1.2559384,-1.2840383,10.0291331,1.809408975,crawl
27/03/2021, 15:30:36,-8.595725,-3.439248,-3.8559816,-0.21380275,1.117883,-1.1753043,10.0291331,1.636066664,crawl
27/03/2021, 15:30:36,-8.590936,-3.2596216,-3.7697608,-0.21380275,1.117883,-1.1753043,9.931787668,1.636066664,crawl
27/03/2021, 15:30:36,-8.590936,-3.2596216,-3.7697608,-0.24068081,1.054353,-1.027475,9.931787668,1.49174139,crawl
27/03/2021, 15:30:36,-8.473579,-3.0129347,-3.8607717,-0.24068081,1.054353,-1.027475,9.786975077,1.49174139,crawl
27/03/2021, 15:30:36,-8.473579,-3.0129347,-3.8607717,-0.38606668,1.0629051,-0.92973655,9.786975077,1.46397566,crawl
27/03/2021, 15:30:36,-8.155042,-2.8740237,-3.9972878,-0.38606668,1.0629051,-0.92973655,9.52591342,1.46397566,crawl
27/03/2021, 15:30:36,-8.155042,-2.8740237,-3.9972878,-0.6340779,1.1007787,-0.9370669,9.52591342,1.578563567,crawl
27/03/2021, 15:30:36,-7.9347,-2.7638526,-4.0835085,-0.6340779,1.1007787,-0.9370669,9.342022643,1.578563567,crawl
27/03/2021, 15:30:36,-7.9347,-2.7638526,-4.0835085,-0.9162975,1.1386523,-1.0177011,9.342022643,1.780967671,crawl
27/03/2021, 15:30:36,-7.9394903,-2.6608667,-4.382886,-0.9162975,1.1386523,-1.0177011,9.451211955,1.780967671,crawl
27/03/2021, 15:30:36,-7.9394903,-2.6608667,-4.382886,-1.1826347,1.1337655,-1.1129961,9.451211955,1.980608315,crawl
27/03/2021, 15:30:36,-8.023315,-3.04886,-4.617598,-1.1826347,1.1337655,-1.1129961,9.746350601,1.980608315,crawl
27/03/2021, 15:30:36,-8.023315,-3.04886,-4.617598,-1.4379762,1.0690137,-1.1887434,9.746350601,2.150273646,crawl
27/03/2021, 15:30:36,-7.9897857,-3.5206788,-4.758904,-1.4379762,1.0690137,-1.1887434,9.943793094,2.150273646,crawl
27/03/2021, 15:30:36,-7.9897857,-3.5206788,-4.758904,-1.6847657,0.9810492,-1.2473863,9.943793094,2.314490358,crawl
27/03/2021, 15:30:36,-7.917935,-4.174519,-4.6199927,-1.6847657,0.9810492,-1.2473863,10.07296556,2.314490358,crawl
27/03/2021, 15:30:36,-7.917935,-4.174519,-4.6199927,-1.7800606,0.86131966,-1.2925904,10.07296556,2.362472722,crawl
27/03/2021, 15:30:36,-7.7598634,-4.622388,-4.2056546,-1.7800606,0.86131966,-1.2925904,9.963407057,2.362472722,crawl
27/03/2021, 15:30:37,-1.6214283,-6.444998,9.043594,0.7318163,1.9498811,3.018895,11.22290626,3.66760382,crawl
27/03/2021, 15:30:37,-1.9998415,-6.485713,9.912986,0.7318163,1.9498811,3.018895,12.01378902,3.66760382,crawl
27/03/2021, 15:30:37,-1.9998415,-6.485713,9.912986,1.1557566,2.1074843,2.8454092,12.01378902,3.724730434,crawl
27/03/2021, 15:30:37,-2.9961696,-6.574329,9.927357,1.1557566,2.1074843,2.8454092,12.27807982,3.724730434,crawl
27/03/2021, 15:30:37,-2.9961696,-6.574329,9.927357,1.665218,2.163684,2.6487107,12.27807982,3.803964705,crawl
27/03/2021, 15:30:37,-4.382886,-6.2965064,9.319021,1.665218,2.163684,2.6487107,12.07061882,3.803964705,crawl
27/03/2021, 15:30:37,-4.382886,-6.2965064,9.319021,2.172236,2.149023,2.6010633,12.07061882,4.012784473,crawl
27/03/2021, 15:30:37,-5.3169436,-5.1828227,8.954978,2.172236,2.149023,2.6010633,11.63284882,4.012784473,crawl
27/03/2021, 15:30:37,-5.3169436,-5.1828227,8.954978,2.6560411,2.1062624,2.7085755,11.63284882,4.339041049,crawl
27/03/2021, 15:30:37,-5.158872,-3.415298,8.380174,2.6560411,2.1062624,2.7085755,10.41659891,4.339041049,crawl
27/03/2021, 15:30:37,-5.158872,-3.415298,8.380174,3.1288507,2.1123712,2.8845046,10.41659891,4.7510194,crawl
27/03/2021, 15:30:37,-4.3182206,-1.5112574,8.624466,3.1288507,2.1123712,2.8845046,9.762803953,4.7510194,crawl
27/03/2021, 15:30:37,-4.3182206,-1.5112574,8.624466,3.723833,2.2162182,3.040886,9.762803953,5.293915687,crawl
27/03/2021, 15:30:37,-3.542234,0.10538086,9.297466,3.723833,2.2162182,3.040886,9.949945006,5.293915687,crawl
27/03/2021, 15:30:37,-3.542234,0.10538086,9.297466,4.3860106,2.4239123,3.189937,9.949945006,5.940382055,crawl
27/03/2021, 15:30:37,-3.7434156,1.3028907,9.635164,4.3860106,2.4239123,3.189937,10.41859274,5.940382055,crawl
27/03/2021, 15:30:37,-3.7434156,1.3028907,9.635164,4.8453813,2.7036886,3.4697132,10.41859274,6.544200599,crawl
27/03/2021, 15:30:37,-5.4175344,2.308799,9.845925,4.8453813,2.7036886,3.4697132,11.47268395,6.544200599,crawl
27/03/2021, 15:30:37,-5.4175344,2.308799,9.845925,5.0213103,2.9089391,3.7800326,11.47268395,6.925614122,crawl
27/03/2021, 15:30:37,-8.303533,3.544629,9.989627,5.0213103,2.9089391,3.7800326,13.4649803,6.925614122,crawl
27/03/2021, 15:30:38,-9.72857,-2.42855,1.3196558,-0.34330612,1.6896527,-2.4373515,10.11357605,2.985543073,crawl
27/03/2021, 15:30:38,-9.017249,-2.318379,1.1232642,-0.34330612,1.6896527,-2.4373515,9.378026698,2.985543073,crawl
27/03/2021, 15:30:38,-9.017249,-2.318379,1.1232642,-0.3127629,1.6102402,-2.5228724,9.378026698,3.009249006,crawl
27/03/2021, 15:30:38,-8.971744,-2.3974147,0.99393314,-0.3127629,1.6102402,-2.5228724,9.339576178,3.009249006,crawl
27/03/2021, 15:30:38,-8.971744,-2.3974147,0.99393314,-0.3506365,1.5198321,-2.5961764,9.339576178,3.028690725,crawl
27/03/2021, 15:30:38,-9.06994,-2.3902297,0.5604346,-0.3506365,1.5198321,-2.5961764,9.396333835,3.028690725,crawl
27/03/2021, 15:30:38,-9.06994,-2.3902297,0.5604346,-0.43737936,1.425759,-2.6597064,9.396333835,3.049283063,crawl
27/03/2021, 15:30:38,-9.314231,-2.4956105,0.6394702,-0.43737936,1.425759,-2.6597064,9.663948024,3.049283063,crawl
27/03/2021, 15:30:38,-9.314231,-2.4956105,0.6394702,-0.44959664,1.2877034,-2.6780322,9.663948024,3.005357454,crawl
27/03/2021, 15:30:38,-9.769285,-2.2129982,0.855022,-0.44959664,1.2877034,-2.6780322,10.05322619,3.005357454,crawl
27/03/2021, 15:30:38,-9.769285,-2.2129982,0.855022,-0.37995803,1.163087,-2.652376,10.05322619,2.92099942,crawl
27/03/2021, 15:30:38,-9.881851,-2.0333717,0.45744875,-0.37995803,1.163087,-2.652376,10.09924962,2.92099942,crawl
27/03/2021, 15:30:38,-9.881851,-2.0333717,0.45744875,-0.37018418,1.0702355,-2.5778503,10.09924962,2.815626524,crawl
27/03/2021, 15:30:38,-9.934542,-1.84177,-0.25147706,-0.37018418,1.0702355,-2.5778503,10.10695189,2.815626524,crawl
27/03/2021, 15:30:38,-9.934542,-1.84177,-0.25147706,-0.44715318,0.9737188,-2.50699,10.10695189,2.726366254,crawl
27/03/2021, 15:30:38,-9.812395,-1.695674,-0.4143384,-0.44715318,0.9737188,-2.50699,9.966447911,2.726366254,crawl
27/03/2021, 15:30:38,-9.812395,-1.695674,-0.4143384,-0.58520865,0.89308465,-2.498438,9.966447911,2.717031689,crawl
27/03/2021, 15:30:38,-9.503438,-1.465752,-0.9532178,-0.58520865,0.89308465,-2.498438,9.662938832,2.717031689,crawl
27/03/2021, 15:30:38,-9.503438,-1.465752,-0.9532178,-0.79168105,0.855211,-2.5106552,9.662938832,2.767947639,crawl
27/03/2021, 15:30:38,-9.208851,-1.3244458,-1.7986598,-0.79168105,0.855211,-2.5106552,9.47587822,2.767947639,crawl
27/03/2021, 15:30:39,-0.29698244,-0.28740236,9.182506,3.864332,0.7208207,2.4483469,9.191801125,4.631095587,crawl
27/03/2021, 15:30:39,-0.29698244,-0.28740236,9.182506,3.8227932,0.74159014,2.6975799,9.191801125,4.737155395,crawl
27/03/2021, 15:30:39,-1.8489552,0.3424878,8.756192,3.8227932,0.74159014,2.6975799,8.955826876,4.737155395,crawl
27/03/2021, 15:30:39,-1.8489552,0.3424878,8.756192,3.8533366,0.5962043,3.1960456,8.955826876,5.041663416,crawl
27/03/2021, 15:30:39,-4.1146436,1.0250684,8.52148,3.8533366,0.5962043,3.1960456,9.518228388,5.041663416,crawl
27/03/2021, 15:30:39,-4.1146436,1.0250684,8.52148,3.9449663,0.51923525,3.7714806,9.518228388,5.482374495,crawl
27/03/2021, 15:30:39,-5.7935524,1.3531861,7.95865,3.9449663,0.51923525,3.7714806,9.936622852,5.482374495,crawl
27/03/2021, 15:30:39,-5.7935524,1.3531861,7.95865,3.800802,0.50701797,4.177095,9.936622852,5.670210324,crawl
27/03/2021, 15:30:39,-7.0413575,1.6310084,8.042476,3.800802,0.50701797,4.177095,10.81306244,5.670210324,crawl
27/03/2021, 15:30:39,-7.0413575,1.6310084,8.042476,3.4868176,0.58398694,4.280942,10.81306244,5.552062842,crawl
27/03/2021, 15:30:39,-8.315508,0.059875492,8.265213,3.4868176,0.58398694,4.280942,11.72454701,5.552062842,crawl
27/03/2021, 15:30:39,-8.315508,0.059875492,8.265213,3.0335557,0.50335276,4.2882724,11.72454701,5.276846073,crawl
27/03/2021, 15:30:39,-8.940608,-1.3986914,8.971744,3.0335557,0.50335276,4.2882724,12.74295854,5.276846073,crawl
27/03/2021, 15:30:39,-8.940608,-1.3986914,8.971744,2.7134624,0.41294473,4.2015295,12.74295854,5.018590585,crawl
27/03/2021, 15:30:39,-9.139395,-2.299219,9.431587,2.7134624,0.41294473,4.2015295,13.33303347,5.018590585,crawl
27/03/2021, 15:30:39,-9.139395,-2.299219,9.431587,2.44346,0.46914434,4.1025696,13.33303347,4.798090275,crawl
27/03/2021, 15:30:39,-10.209969,-3.0991554,9.038804,2.44346,0.46914434,4.1025696,13.98385502,4.798090275,crawl
27/03/2021, 15:30:39,-10.209969,-3.0991554,9.038804,2.1966705,0.41416648,4.0439262,13.98385502,4.620631421,crawl
27/03/2021, 15:30:39,-11.196717,-2.7542725,8.198153,2.1966705,0.41416648,4.0439262,14.14786907,4.620631421,crawl
27/03/2021, 15:30:39,-11.196717,-2.7542725,8.198153,2.1600187,0.27855444,3.9657357,14.14786907,4.52441518,crawl
27/03/2021, 15:30:40,-8.629255,-1.0681788,4.478687,-1.1582,1.9645419,-0.77579856,9.780781583,2.408882651,crawl
27/03/2021, 15:30:40,-8.739427,-1.4968873,3.9182522,-1.1582,1.9645419,-0.77579856,9.693861445,2.408882651,crawl
27/03/2021, 15:30:40,-8.739427,-1.4968873,3.9182522,-1.0201446,2.076941,-0.72448593,9.693861445,2.424718295,crawl
27/03/2021, 15:30:40,-8.744217,-1.8082398,3.0728102,-1.0201446,2.076941,-0.72448593,9.443157476,2.424718295,crawl
27/03/2021, 15:30:40,-8.744217,-1.8082398,3.0728102,-0.6475169,2.117258,-0.8466589,9.443157476,2.370420038,crawl
27/03/2021, 15:30:40,-9.235196,-2.078877,2.5459058,-0.6475169,2.117258,-0.8466589,9.802663577,2.370420038,crawl
27/03/2021, 15:30:40,-9.235196,-2.078877,2.5459058,-0.1869247,2.013411,-0.9810492,9.802663577,2.247492463,crawl
27/03/2021, 15:30:40,-9.577683,-2.7327175,1.9663111,-0.1869247,2.013411,-0.9810492,10.15214975,2.247492463,crawl
27/03/2021, 15:30:40,-9.577683,-2.7327175,1.9663111,0.16371182,1.8387036,-1.1862998,10.15214975,2.194297114,crawl
27/03/2021, 15:30:40,-9.551338,-2.4333398,1.9064356,0.16371182,1.8387036,-1.1862998,10.03910857,2.194297114,crawl
27/03/2021, 15:30:40,-9.551338,-2.4333398,1.9064356,0.50213104,1.5968012,-1.3182467,10.03910857,2.130653411,crawl
27/03/2021, 15:30:40,-10.023157,-2.2872438,2.43813,0.50213104,1.5968012,-1.3182467,10.56596614,2.130653411,crawl
27/03/2021, 15:30:40,-10.023157,-2.2872438,2.43813,0.84543717,1.4587456,-1.3500117,10.56596614,2.159915354,crawl
27/03/2021, 15:30:40,-9.642349,-1.2669654,2.1698878,0.84543717,1.4587456,-1.3500117,9.964362158,2.159915354,crawl
27/03/2021, 15:30:40,-9.642349,-1.2669654,2.1698878,1.0800093,1.5002844,-1.357342,9.964362158,2.293392874,crawl
27/03/2021, 15:30:40,-9.398057,0.007185059,1.5376027,1.0800093,1.5002844,-1.357342,9.523011532,2.293392874,crawl
27/03/2021, 15:30:40,-9.398057,0.007185059,1.5376027,1.2302822,1.6664398,-1.4086547,9.523011532,2.504979802,crawl
27/03/2021, 15:30:40,-9.115445,0.6586304,0.57719976,1.2302822,1.6664398,-1.4086547,9.157417407,2.504979802,crawl
27/03/2021, 15:30:40,-9.115445,0.6586304,0.57719976,1.2461647,1.837482,-1.497841,9.157417407,2.678207251,crawl
27/03/2021, 15:30:40,-9.14179,0.7113208,-0.16046631,1.2461647,1.837482,-1.497841,9.170826477,2.678207251,crawl
27/03/2021, 15:30:41,3.9972878,-10.99314,1.9806812,2.4568992,0.79045933,-0.65362555,11.86383324,2.662406023,crawl
27/03/2021, 15:30:41,4.2152348,-11.151212,1.6238233,2.4568992,0.79045933,-0.65362555,12.03139765,2.662406023,crawl
27/03/2021, 15:30:41,4.2152348,-11.151212,1.6238233,3.0335557,0.76235956,-0.475253,12.03139765,3.163782224,crawl
27/03/2021, 15:30:41,4.4403663,-10.255474,1.8896705,3.0335557,0.76235956,-0.475253,11.33412793,3.163782224,crawl
27/03/2021, 15:30:41,4.4403663,-10.255474,1.8896705,3.6004384,0.84543717,-0.45814875,11.33412793,3.726636639,crawl
27/03/2021, 15:30:41,4.670288,-9.426797,1.9567311,3.6004384,0.84543717,-0.45814875,10.70069565,3.726636639,crawl
27/03/2021, 15:30:41,4.670288,-9.426797,1.9567311,3.8851016,1.091005,-0.33231056,10.70069565,4.049041399,crawl
27/03/2021, 15:30:41,4.8163843,-8.674761,2.943479,3.8851016,1.091005,-0.33231056,10.34954599,4.049041399,crawl
27/03/2021, 15:30:41,4.8163843,-8.674761,2.943479,4.1551037,1.4477501,0.05009093,10.34954599,4.400383625,crawl
27/03/2021, 15:30:41,4.8594947,-8.641231,3.755391,4.1551037,1.4477501,0.05009093,10.60134497,4.400383625,crawl
27/03/2021, 15:30:41,4.8594947,-8.641231,3.755391,4.6364655,1.6872091,0.5424481,10.60134497,4.963641545,crawl
27/03/2021, 15:30:41,5.108577,-8.787327,4.4571314,4.6364655,1.6872091,0.5424481,11.09867962,4.963641545,crawl
27/03/2021, 15:30:41,5.108577,-8.787327,4.4571314,4.9577804,1.7079786,0.900415,11.09867962,5.320481577,crawl
27/03/2021, 15:30:41,5.1468973,-9.412427,4.8211746,4.9577804,1.7079786,0.900415,11.7612949,5.320481577,crawl
27/03/2021, 15:30:41,5.1468973,-9.412427,4.8211746,4.9516716,1.6688832,1.1362089,11.7612949,5.347447375,crawl
27/03/2021, 15:30:41,3.4895437,-10.0063925,5.4510646,4.9516716,1.6688832,1.1362089,11.91716873,5.347447375,crawl
27/03/2021, 15:30:41,3.4895437,-10.0063925,5.4510646,4.615696,1.5638144,1.2864817,11.91716873,5.040357118,crawl
27/03/2021, 15:30:41,1.1999048,-8.847202,6.7539554,4.615696,1.5638144,1.2864817,11.19502895,5.040357118,crawl
27/03/2021, 15:30:41,1.1999048,-8.847202,6.7539554,4.484971,1.3744463,1.5625927,11.19502895,4.944265763,crawl
27/03/2021, 15:30:41,-1.1951149,-8.006551,9.24717,4.484971,1.3744463,1.5625927,12.28996812,4.944265763,crawl
27/03/2021, 15:30:42,-9.045989,-0.6730005,2.7422974,-1.6591094,2.4581208,-2.3041828,9.47644672,3.75556388,crawl
27/03/2021, 15:30:42,-10.408755,-1.2430152,6.0378447,-1.6591094,2.4581208,-2.3041828,12.09722455,3.75556388,crawl
27/03/2021, 15:30:42,-10.408755,-1.2430152,6.0378447,-1.7837259,2.756223,-1.7324132,12.09722455,3.71210161,crawl
27/03/2021, 15:30:42,-12.106824,1.2549903,5.3935843,-1.7837259,2.756223,-1.7324132,13.31318659,3.71210161,crawl
27/03/2021, 15:30:42,-12.106824,1.2549903,5.3935843,-1.2889252,2.7635534,-1.0164794,13.31318659,3.214309522,crawl
27/03/2021, 15:30:42,-12.09485,3.7410207,3.1326857,-1.2889252,2.7635534,-1.0164794,13.04202215,3.214309522,crawl
27/03/2021, 15:30:42,-12.09485,3.7410207,3.1326857,-0.58765215,2.4886642,-0.7134903,13.04202215,2.654779222,crawl
27/03/2021, 15:30:42,-10.942844,4.471502,0.34967285,-0.58765215,2.4886642,-0.7134903,11.8263453,2.654779222,crawl
27/03/2021, 15:30:42,-10.942844,4.471502,0.34967285,-0.13927722,2.2589788,-0.84543717,11.8263453,2.41601895,crawl
27/03/2021, 15:30:42,-10.605147,3.1446607,-0.9532178,-0.13927722,2.2589788,-0.84543717,11.10255222,2.41601895,crawl
27/03/2021, 15:30:42,-10.605147,3.1446607,-0.9532178,-0.17226394,2.1123712,-1.1044439,11.10255222,2.389891906,crawl
27/03/2021, 15:30:42,-10.162068,1.5495777,-0.81909674,-0.17226394,2.1123712,-1.1044439,10.31211637,2.389891906,crawl
27/03/2021, 15:30:42,-10.162068,1.5495777,-0.81909674,-0.7672465,2.0744977,-1.2327256,10.31211637,2.532157248,crawl
27/03/2021, 15:30:42,-9.438772,1.0011182,0.8167017,-0.7672465,2.0744977,-1.2327256,9.526786445,2.532157248,crawl
27/03/2021, 15:30:42,-9.438772,1.0011182,0.8167017,-1.5357146,2.1233668,-1.2925904,9.526786445,2.921967832,crawl
27/03/2021, 15:30:42,-9.532178,1.0322535,0.62989014,-1.5357146,2.1233668,-1.2925904,9.608575591,2.921967832,crawl
27/03/2021, 15:30:42,-9.532178,1.0322535,0.62989014,-2.045176,2.036624,-1.3292422,9.608575591,3.177651181,crawl
27/03/2021, 15:30:42,-9.2328005,1.6813037,0.6011499,-2.045176,2.036624,-1.3292422,9.403869855,3.177651181,crawl
27/03/2021, 15:30:42,-9.2328005,1.6813037,0.6011499,-2.1380274,1.8875729,-1.434311,9.403869855,3.19238795,crawl
27/03/2021, 15:30:42,-8.837623,1.1855347,0.63707525,-2.1380274,1.8875729,-1.434311,8.939515166,3.19238795,crawl
27/03/2021, 15:30:43,4.5409575,-10.34888,7.4006104,1.7263045,0.1832595,-0.65240383,13.50883574,1.854546343,crawl
27/03/2021, 15:30:43,4.3301954,-11.02188,7.788604,1.7263045,0.1832595,-0.65240383,14.17373569,1.854546343,crawl
27/03/2021, 15:30:43,4.3301954,-11.02188,7.788604,2.3591607,0.2809979,-0.34330612,14.17373569,2.400512017,crawl
27/03/2021, 15:30:43,4.24637,-11.55597,7.702383,2.3591607,0.2809979,-0.34330612,14.52235547,2.400512017,crawl
27/03/2021, 15:30:43,4.24637,-11.55597,7.702383,2.764775,0.39584053,0.00244346,14.52235547,2.792969155,crawl
27/03/2021, 15:30:43,3.9517825,-10.636282,6.75156,2.764775,0.39584053,0.00244346,13.20343304,2.792969155,crawl
27/03/2021, 15:30:43,3.9517825,-10.636282,6.75156,3.122742,0.4105013,0.07819072,13.20343304,3.150578092,crawl
27/03/2021, 15:30:43,3.9733377,-8.902288,7.879615,3.122742,0.4105013,0.07819072,12.53501023,3.150578092,crawl
27/03/2021, 15:30:43,3.9733377,-8.902288,7.879615,3.638312,0.31031942,-0.080634184,12.53501023,3.652412212,crawl
27/03/2021, 15:30:43,3.9254372,-7.6664577,8.823253,3.638312,0.31031942,-0.080634184,12.33018321,3.652412212,crawl
27/03/2021, 15:30:43,3.9254372,-7.6664577,8.823253,3.8899884,0.21746795,-0.3139846,12.33018321,3.908693972,crawl
27/03/2021, 15:30:43,3.6021094,-7.220984,8.780142,3.8899884,0.21746795,-0.3139846,11.92512862,3.908693972,crawl
27/03/2021, 15:30:43,3.6021094,-7.220984,8.780142,3.7299418,0.16493355,-0.3127629,11.92512862,3.746663831,crawl
27/03/2021, 15:30:43,2.924319,-6.631809,9.316627,3.7299418,0.16493355,-0.3127629,11.80390045,3.746663831,crawl
27/03/2021, 15:30:43,2.924319,-6.631809,9.316627,3.3377664,0.101403594,-0.24678947,11.80390045,3.348413405,crawl
27/03/2021, 15:30:43,2.8285182,-6.2581863,8.349038,3.3377664,0.101403594,-0.24678947,10.81072841,3.348413405,crawl
27/03/2021, 15:30:43,2.8285182,-6.2581863,8.349038,2.6804757,-0.0855211,-0.26878062,10.81072841,2.695274925,crawl
27/03/2021, 15:30:43,2.7015822,-5.1612673,5.7696023,2.6804757,-0.0855211,-0.26878062,8.199118061,2.695274925,crawl
27/03/2021, 15:30:43,2.7015822,-5.1612673,5.7696023,1.7788389,-0.14538588,-0.21991141,8.199118061,1.798267449,crawl
27/03/2021, 15:30:43,2.7566676,-4.0020776,4.8906302,1.7788389,-0.14538588,-0.21991141,6.894498204,1.798267449,crawl
27/03/2021, 15:30:44,-14.08032,3.0536501,7.6161623,-1.6468921,2.3335044,0.3579669,16.29681345,2.878478202,crawl
27/03/2021, 15:30:44,-12.9187355,2.931504,8.48316,-1.6468921,2.3335044,0.3579669,15.73058952,2.878478202,crawl
27/03/2021, 15:30:44,-12.9187355,2.931504,8.48316,-1.7617347,2.3432782,0.23457217,15.73058952,2.941034839,crawl
27/03/2021, 15:30:44,-12.645703,2.3710694,7.220984,-1.7617347,2.3432782,0.23457217,14.75392803,2.941034839,crawl
27/03/2021, 15:30:44,-12.645703,2.3710694,7.220984,-1.9205596,2.381152,0.17715086,14.75392803,3.064280701,crawl
27/03/2021, 15:30:44,-12.4684725,1.5280225,6.1552005,-1.9205596,2.381152,0.17715086,13.98871516,3.064280701,crawl
27/03/2021, 15:30:44,-12.4684725,1.5280225,6.1552005,-2.1368058,2.6071718,0.3408627,13.98871516,3.388136795,crawl
27/03/2021, 15:30:44,-12.147539,1.4058765,6.368357,-2.1368058,2.6071718,0.3408627,13.78750047,3.388136795,crawl
27/03/2021, 15:30:44,-12.147539,1.4058765,6.368357,-1.6297878,2.5900676,0.7000513,13.78750047,3.139224493,crawl
27/03/2021, 15:30:44,-13.48396,2.1148024,6.5336137,-1.6297878,2.5900676,0.7000513,15.1320084,3.139224493,crawl
27/03/2021, 15:30:44,-13.48396,2.1148024,6.5336137,-0.84299374,2.416582,0.96272326,15.1320084,2.734473183,crawl
27/03/2021, 15:30:44,-13.891114,0.859812,6.8808913,-0.84299374,2.416582,0.96272326,15.5257527,2.734473183,crawl
27/03/2021, 15:30:44,-13.891114,0.859812,6.8808913,-0.4105013,2.2467616,1.0494661,15.5257527,2.513528992,crawl
27/03/2021, 15:30:44,-13.754598,-0.65384036,7.443721,-0.4105013,2.2467616,1.0494661,15.65328859,2.513528992,crawl
27/03/2021, 15:30:44,-13.754598,-0.65384036,7.443721,-0.16982047,2.2650874,1.1301003,15.65328859,2.537042835,crawl
27/03/2021, 15:30:44,-13.237273,-2.5051906,7.470066,-0.16982047,2.2650874,1.1301003,15.4046509,2.537042835,crawl
27/03/2021, 15:30:44,-13.237273,-2.5051906,7.470066,-0.08185591,2.3090696,1.2424995,15.4046509,2.623415312,crawl
27/03/2021, 15:30:44,-11.54639,-2.548301,6.844966,-0.08185591,2.3090696,1.2424995,13.66259525,2.623415312,crawl
27/03/2021, 15:30:44,-11.54639,-2.548301,6.844966,-0.02076941,2.302961,1.2632688,13.66259525,2.626767858,crawl
27/03/2021, 15:30:44,-10.241104,-1.3076807,5.9564137,-0.02076941,2.302961,1.2632688,11.91927461,2.626767858,crawl
27/03/2021, 15:30:45,3.2356715,-12.511582,0.45505372,6.4055305,1.5259408,-2.085493,12.93121563,6.907141019,crawl
27/03/2021, 15:30:45,3.0081446,-12.873231,1.4178516,6.4055305,1.5259408,-2.085493,13.29583814,6.907141019,crawl
27/03/2021, 15:30:45,3.0081446,-12.873231,1.4178516,7.1874375,1.5796969,-2.180788,13.29583814,7.675319997,crawl
27/03/2021, 15:30:45,3.6452198,-11.977493,4.497847,7.1874375,1.5796969,-2.180788,13.30333045,7.675319997,crawl
27/03/2021, 15:30:45,3.6452198,-11.977493,4.497847,7.8716063,1.7165307,-2.2516484,13.30333045,8.365320361,crawl
27/03/2021, 15:30:45,3.7098854,-10.672208,5.0822315,7.8716063,1.7165307,-2.2516484,12.38904139,8.365320361,crawl
27/03/2021, 15:30:45,3.7098854,-10.672208,5.0822315,8.069527,1.9559897,-2.2027793,12.38904139,8.590424501,crawl
27/03/2021, 15:30:45,3.551814,-7.2114043,4.157754,8.069527,1.9559897,-2.2027793,9.050229469,8.590424501,crawl
27/03/2021, 15:30:45,3.551814,-7.2114043,4.157754,7.87405,2.149023,-2.122145,9.050229469,8.433413594,crawl
27/03/2021, 15:30:45,3.6907253,-3.2476466,5.237908,7.87405,2.149023,-2.122145,7.18361613,8.433413594,crawl
27/03/2021, 15:30:45,3.6907253,-3.2476466,5.237908,7.4843183,2.1710143,-2.068389,7.18361613,8.062664305,crawl
27/03/2021, 15:30:45,3.9445972,-0.43349856,5.2666483,7.4843183,2.1710143,-2.068389,6.594342474,8.062664305,crawl
27/03/2021, 15:30:45,3.9445972,-0.43349856,5.2666483,7.235085,1.9987503,-2.031737,6.594342474,7.776208175,crawl
27/03/2021, 15:30:45,4.7157936,1.22146,5.733677,7.235085,1.9987503,-2.031737,7.52367761,7.776208175,crawl
27/03/2021, 15:30:45,4.7157936,1.22146,5.733677,6.326118,1.538158,-2.3420565,7.52367761,6.918881975,crawl
27/03/2021, 15:30:45,5.726492,1.0059083,4.5313773,6.326118,1.538158,-2.3420565,7.371427378,6.918881975,crawl
27/03/2021, 15:30:45,5.726492,1.0059083,4.5313773,4.4177756,1.067792,-2.5900676,7.371427378,5.231192188,crawl
27/03/2021, 15:30:45,4.8523097,0.2945874,5.391189,4.4177756,1.067792,-2.5900676,7.259243149,5.231192188,crawl
27/03/2021, 15:30:45,4.8523097,0.2945874,5.391189,2.7281232,0.7367032,-2.3787084,7.259243149,3.693729989,crawl
27/03/2021, 15:30:45,4.737349,-0.45744875,6.262976,2.7281232,0.7367032,-2.3787084,7.866168427,3.693729989,crawl
27/03/2021, 15:30:46,-10.066268,-3.3578174,7.0581226,0.25411984,3.5149174,2.2711961,12.74448052,4.192559229,crawl
27/03/2021, 15:30:46,-10.1189575,-6.981482,5.4438796,0.25411984,3.5149174,2.2711961,13.44508154,4.192559229,crawl
27/03/2021, 15:30:46,-10.1189575,-6.981482,5.4438796,-0.35552344,3.6945117,1.9718722,13.44508154,4.202867268,crawl
27/03/2021, 15:30:46,-8.399334,-9.398057,1.5567628,-0.35552344,3.6945117,1.9718722,12.7002282,4.202867268,crawl
27/03/2021, 15:30:46,-8.399334,-9.398057,1.5567628,-1.696983,3.5552344,1.2498298,12.7002282,4.132979259,crawl
27/03/2021, 15:30:46,-8.938213,-8.566985,2.2968237,-1.696983,3.5552344,1.2498298,12.59207256,4.132979259,crawl
27/03/2021, 15:30:46,-8.938213,-8.566985,2.2968237,-1.7482957,3.2840104,0.9150758,12.59207256,3.831269475,crawl
27/03/2021, 15:30:46,-11.771522,-4.902605,5.5372853,-1.7482957,3.2840104,0.9150758,13.90200652,3.831269475,crawl
27/03/2021, 15:30:46,-11.771522,-4.902605,5.5372853,-0.3506365,2.9248216,1.1801912,13.90200652,3.173385986,crawl
27/03/2021, 15:30:46,-15.498172,-0.32572266,7.3072047,-0.3506365,2.9248216,1.1801912,17.13752215,3.173385986,crawl
27/03/2021, 15:30:46,-15.498172,-0.32572266,7.3072047,0.88086736,2.724458,1.6041316,17.13752215,3.28204764,crawl
27/03/2021, 15:30:46,-14.767691,1.8369801,4.7325587,0.88086736,2.724458,1.6041316,15.6158988,3.28204764,crawl
27/03/2021, 15:30:46,-14.767691,1.8369801,4.7325587,-0.08918629,2.588846,1.5063931,15.6158988,2.996547636,crawl
27/03/2021, 15:30:46,-11.421848,-0.17962648,2.327959,-0.08918629,2.588846,1.5063931,11.65805634,2.996547636,crawl
27/03/2021, 15:30:46,-11.421848,-0.17962648,2.327959,-2.3628259,2.7073538,0.8002332,11.65805634,3.681451345,crawl
27/03/2021, 15:30:46,-9.354947,-2.2848487,1.2597803,-2.3628259,2.7073538,0.8002332,9.711983061,3.681451345,crawl
27/03/2021, 15:30:46,-9.354947,-2.2848487,1.2597803,-3.6297598,3.045773,0.33475402,9.711983061,4.7501526,crawl
27/03/2021, 15:30:46,-12.027788,-1.6310084,7.9969707,-3.6297598,3.045773,0.33475402,14.53545376,4.7501526,crawl
27/03/2021, 15:30:46,-12.027788,-1.6310084,7.9969707,-3.4721568,3.1960456,0.50579625,14.53545376,4.746199548,crawl
27/03/2021, 15:30:46,-14.683866,0.21076173,10.590776,-3.4721568,3.1960456,0.50579625,18.10593476,4.746199548,crawl
27/03/2021, 15:30:47,-2.6393116,-8.49753,-6.071375,0.9969317,0.96272326,-1.8069386,10.77198099,2.277221136,crawl
27/03/2021, 15:30:47,-2.42376,-8.763377,-5.7983427,0.9969317,0.96272326,-1.8069386,10.78388474,2.277221136,crawl
27/03/2021, 15:30:47,-2.42376,-8.763377,-5.7983427,1.1191047,0.88941944,-1.7922779,10.78388474,2.292536269,crawl
27/03/2021, 15:30:47,-2.047742,-8.784932,-5.336104,1.1191047,0.88941944,-1.7922779,10.48056699,2.292536269,crawl
27/03/2021, 15:30:47,-2.047742,-8.784932,-5.336104,1.2498298,0.8222243,-1.7324132,10.48056699,2.288969787,crawl
27/03/2021, 15:30:47,-1.7004639,-8.674761,-4.9552956,1.2498298,0.8222243,-1.7324132,10.13400251,2.288969787,crawl
27/03/2021, 15:30:47,-1.7004639,-8.674761,-4.9552956,1.3878853,0.7342597,-1.6432269,10.13400251,2.272786298,crawl
27/03/2021, 15:30:47,-1.2885206,-8.418494,-4.6822634,1.3878853,0.7342597,-1.6432269,9.718792136,2.272786298,crawl
27/03/2021, 15:30:47,-1.2885206,-8.418494,-4.6822634,1.5601492,0.63896483,-1.5858055,9.718792136,2.314545475,crawl
27/03/2021, 15:30:47,-0.77359134,-8.121511,-4.5888577,1.5601492,0.63896483,-1.5858055,9.360288803,2.314545475,crawl
27/03/2021, 15:30:47,-0.77359134,-8.121511,-4.5888577,1.769065,0.51801354,-1.5809187,9.360288803,2.428421899,crawl
27/03/2021, 15:30:47,-0.34009278,-8.056846,-4.7062135,1.769065,0.51801354,-1.5809187,9.33685549,2.428421899,crawl
27/03/2021, 15:30:47,-0.34009278,-8.056846,-4.7062135,1.9743158,0.39217535,-1.6139053,9.33685549,2.580002826,crawl
27/03/2021, 15:30:47,0.047900394,-8.176597,-4.8523097,1.9743158,0.39217535,-1.6139053,9.508098472,2.580002826,crawl
27/03/2021, 15:30:47,0.047900394,-8.176597,-4.8523097,2.1649055,0.28466308,-1.6456703,9.508098472,2.734242093,crawl
27/03/2021, 15:30:47,0.15328126,-8.590936,-5.1828227,2.1649055,0.28466308,-1.6456703,10.03440694,2.734242093,crawl
27/03/2021, 15:30:47,0.15328126,-8.590936,-5.1828227,2.2919655,0.1747074,-1.6603311,10.03440694,2.835547199,crawl
27/03/2021, 15:30:47,0.51013917,-9.139395,-5.3145485,2.2919655,0.1747074,-1.6603311,10.58457388,2.835547199,crawl
27/03/2021, 15:30:47,0.51013917,-9.139395,-5.3145485,2.2699745,0.12095127,-1.696983,10.58457388,2.836752463,crawl
27/03/2021, 15:30:47,0.69695073,-9.529783,-5.3145485,2.2699745,0.12095127,-1.696983,10.93375209,2.836752463,crawl
27/03/2021, 15:30:48,-3.6452198,3.9637575,5.8055277,0.03543017,2.1050408,2.1416926,7.918532236,3.00321484,crawl
27/03/2021, 15:30:48,-3.4368532,3.0823903,4.8379397,0.03543017,2.1050408,2.1416926,6.687207986,3.00321484,crawl
27/03/2021, 15:30:48,-3.4368532,3.0823903,4.8379397,-0.074525535,2.2748613,2.0073025,6.687207986,3.034767136,crawl
27/03/2021, 15:30:48,-3.5015187,1.7411792,3.4943337,-0.074525535,2.2748613,2.0073025,5.244302319,3.034767136,crawl
27/03/2021, 15:30:48,-3.5015187,1.7411792,3.4943337,-0.5644393,2.276083,1.6212357,5.244302319,2.850885967,crawl
27/03/2021, 15:30:48,-5.0726514,1.6022681,4.1984696,-0.5644393,2.276083,1.6212357,6.776887372,2.850885967,crawl
27/03/2021, 15:30:48,-5.0726514,1.6022681,4.1984696,-0.85643274,2.244318,1.4013244,6.776887372,2.781034053,crawl
27/03/2021, 15:30:48,-6.006709,1.3986914,6.495293,-0.85643274,2.244318,1.4013244,8.956881425,2.781034053,crawl
27/03/2021, 15:30:48,-6.006709,1.3986914,6.495293,-0.7525857,2.2577572,1.5002844,8.956881425,2.813308754,crawl
27/03/2021, 15:30:48,-6.0378447,2.7518775,6.70845,-0.7525857,2.2577572,1.5002844,9.435660942,2.813308754,crawl
27/03/2021, 15:30:48,-6.0378447,2.7518775,6.70845,-0.6304127,2.158797,1.6639963,9.435660942,2.797625526,crawl
27/03/2021, 15:30:48,-5.0031962,4.409231,5.5253105,-0.6304127,2.158797,1.6639963,8.660389631,2.797625526,crawl
27/03/2021, 15:30:48,-5.0031962,4.409231,5.5253105,-0.7134903,1.9779809,1.6322314,8.660389631,2.661889529,crawl
27/03/2021, 15:30:48,-4.047583,5.3001785,4.1721244,-0.7134903,1.9779809,1.6322314,7.866475913,2.661889529,crawl
27/03/2021, 15:30:48,-4.047583,5.3001785,4.1721244,-1.0360271,2.0207415,1.2424995,7.866475913,2.588542658,crawl
27/03/2021, 15:30:48,-3.0799952,5.0702567,3.2284865,-1.0360271,2.0207415,1.2424995,6.754035726,2.588542658,crawl
27/03/2021, 15:30:48,-3.0799952,5.0702567,3.2284865,-1.5112801,2.3835952,0.5900956,6.754035726,2.883349862,crawl
27/03/2021, 15:30:48,-3.6404297,4.3493557,2.5339308,-1.5112801,2.3835952,0.5900956,6.212119512,2.883349862,crawl
27/03/2021, 15:30:48,-3.6404297,4.3493557,2.5339308,-1.8949033,2.8527396,-0.051312663,6.212119512,3.425115266,crawl
27/03/2021, 15:30:48,-5.968389,3.4248781,3.3386574,-1.8949033,2.8527396,-0.051312663,7.648404468,3.425115266,crawl
27/03/2021, 15:30:49,-7.194639,-6.480923,-2.6129665,1.4110981,-0.18936816,-3.1703894,10.02959584,3.475403178,crawl
27/03/2021, 15:30:49,-7.4580913,-7.3479204,-3.3242872,1.4110981,-0.18936816,-3.1703894,10.98480518,3.475403178,crawl
27/03/2021, 15:30:49,-7.4580913,-7.3479204,-3.3242872,1.8081604,-0.04276055,-3.054325,10.98480518,3.549672439,crawl
27/03/2021, 15:30:49,-7.8604546,-7.534732,-3.903882,1.8081604,-0.04276055,-3.054325,11.56716149,3.549672439,crawl
27/03/2021, 15:30:49,-7.8604546,-7.534732,-3.903882,2.221105,0.18570296,-2.7488925,11.56716149,3.538955168,crawl
27/03/2021, 15:30:49,-8.217313,-7.2353544,-3.8751419,2.221105,0.18570296,-2.7488925,11.61427173,3.538955168,crawl
27/03/2021, 15:30:49,-8.217313,-7.2353544,-3.8751419,2.7904313,0.2638937,-2.4678946,11.61427173,3.734521393,crawl
27/03/2021, 15:30:49,-8.473579,-7.079678,-3.300337,2.7904313,0.2638937,-2.4678946,11.52456568,3.734521393,crawl
27/03/2021, 15:30:49,-8.473579,-7.079678,-3.300337,3.4611611,0.108733974,-2.3249521,11.52456568,4.170954552,crawl
27/03/2021, 15:30:49,-8.935819,-7.182664,-2.668052,3.4611611,0.108733974,-2.3249521,11.77106697,4.170954552,crawl
27/03/2021, 15:30:49,-8.935819,-7.182664,-2.668052,4.107456,-0.1832595,-2.230879,11.77106697,4.677777459,crawl
27/03/2021, 15:30:49,-8.995694,-6.9096317,-2.1267774,4.107456,-0.1832595,-2.230879,11.54074115,4.677777459,crawl
27/03/2021, 15:30:49,-8.995694,-6.9096317,-2.1267774,4.664565,-0.42027512,-2.0280719,11.54074115,5.103711804,crawl
27/03/2021, 15:30:49,-8.619676,-6.485713,-2.1555176,4.664565,-0.42027512,-2.0280719,11.0004335,5.103711804,crawl
27/03/2021, 15:30:49,-8.619676,-6.485713,-2.1555176,4.9858804,-0.533896,-1.7214175,11.0004335,5.301634319,crawl
27/03/2021, 15:30:49,-7.671248,-6.109695,-2.703977,4.9858804,-0.533896,-1.7214175,10.17290076,5.301634319,crawl
27/03/2021, 15:30:49,-7.671248,-6.109695,-2.703977,5.001763,-0.5400047,-1.4489719,10.17290076,5.235337267,crawl
27/03/2021, 15:30:49,-6.586304,-5.46304,-3.0608351,5.001763,-0.5400047,-1.4489719,9.088064655,5.235337267,crawl
27/03/2021, 15:30:49,-6.586304,-5.46304,-3.0608351,4.918685,-0.5106832,-1.2815948,9.088064655,5.10849725,crawl
27/03/2021, 15:30:49,-6.1073003,-4.488267,-3.0033545,4.918685,-0.5106832,-1.2815948,8.152533069,5.10849725,crawl
27/03/2021, 15:30:50,-6.6030693,6.0330544,3.7649708,2.9443693,0.86865,1.1740825,9.704291527,3.286690324,crawl
27/03/2021, 15:30:50,-6.1384354,5.9707837,4.4427614,2.9443693,0.86865,1.1740825,9.647215965,3.286690324,crawl
27/03/2021, 15:30:50,-6.1384354,5.9707837,4.4427614,2.4544556,0.79534626,1.1582,9.647215965,2.828136371,crawl
27/03/2021, 15:30:50,-5.7839723,5.7552323,5.046306,2.4544556,0.79534626,1.1582,9.593864704,2.828136371,crawl
27/03/2021, 15:30:50,-5.7839723,5.7552323,5.046306,2.21744,0.84299374,1.2302822,9.593864704,2.672315918,crawl
27/03/2021, 15:30:50,-5.7839723,5.7552323,5.046306,2.1551318,0.95783633,1.3109163,9.593864704,2.698248532,crawl
27/03/2021, 15:30:50,-5.606741,5.8007374,5.637876,2.1551318,0.95783633,1.3109163,9.842242856,2.698248532,crawl
27/03/2021, 15:30:50,-5.508545,5.9540186,6.090535,2.1551318,0.95783633,1.3109163,10.14342265,2.698248532,crawl
27/03/2021, 15:30:50,-5.508545,5.9540186,6.090535,2.1575751,0.99448824,1.3524551,10.14342265,2.733728627,crawl
27/03/2021, 15:30:50,-5.601951,5.9228835,5.8127127,2.1575751,0.99448824,1.3524551,10.0124939,2.733728627,crawl
27/03/2021, 15:30:50,-5.601951,5.9228835,5.8127127,2.0659454,0.9162975,1.3817767,10.0124939,2.648969283,crawl
27/03/2021, 15:30:50,-5.47741,5.5540504,5.2738333,2.0659454,0.9162975,1.3817767,9.416093262,2.648969283,crawl
27/03/2021, 15:30:50,-5.47741,5.5540504,5.2738333,1.7996083,0.7831289,1.3964374,9.416093262,2.408717199,crawl
27/03/2021, 15:30:50,-5.1876125,5.2091675,4.9073954,1.7996083,0.7831289,1.3964374,8.839076812,2.408717199,crawl
27/03/2021, 15:30:50,-5.1876125,5.2091675,4.9073954,1.4282024,0.7208207,1.3866636,8.839076812,2.117116058,crawl
27/03/2021, 15:30:50,-4.8499146,4.9433208,4.7253737,1.4282024,0.7208207,1.3866636,8.383749056,2.117116058,crawl
27/03/2021, 15:30:50,-4.8499146,4.9433208,4.7253737,1.0604616,0.7171555,1.3634508,8.383749056,1.870264397,crawl
27/03/2021, 15:30:50,-4.663103,4.8211746,4.7804594,1.0604616,0.7171555,1.3634508,8.236567695,1.870264397,crawl
27/03/2021, 15:30:50,-4.663103,4.8211746,4.7804594,0.7855724,0.7843507,1.3451247,8.236567695,1.744044305,crawl
27/03/2021, 15:30:50,-4.785249,4.9409256,5.0510964,0.7855724,0.7843507,1.3451247,8.533752471,1.744044305,crawl
27/03/2021, 15:30:51,-9.127419,-1.0514137,0.32093263,0.6133085,1.9999721,-0.764803,9.193381023,2.227321113,crawl
27/03/2021, 15:30:51,-9.15137,0.852627,-1.0322535,0.6133085,1.9999721,-0.764803,9.248788776,2.227321113,crawl
27/03/2021, 15:30:51,-9.15137,0.852627,-1.0322535,0.77457684,1.8900163,-0.67072976,9.248788776,2.149885897,crawl
27/03/2021, 15:30:51,-8.909473,1.9734962,-2.2129982,0.77457684,1.8900163,-0.67072976,9.389928896,2.149885897,crawl
27/03/2021, 15:30:51,-8.909473,1.9734962,-2.2129982,0.6462952,1.7201959,-0.68905574,9.389928896,1.962541512,crawl
27/03/2021, 15:30:51,-8.710687,1.9830762,-2.6896071,0.6462952,1.7201959,-0.68905574,9.329664536,1.962541512,crawl
27/03/2021, 15:30:51,-8.710687,1.9830762,-2.6896071,0.25900677,1.6200141,-0.92973655,9.329664536,1.885720064,crawl
27/03/2021, 15:30:51,-8.349038,1.3819263,-2.43813,0.25900677,1.6200141,-0.92973655,8.806851612,1.885720064,crawl
27/03/2021, 15:30:51,-8.349038,1.3819263,-2.43813,-0.14782934,1.6713266,-1.2547168,8.806851612,2.095113451,crawl
27/03/2021, 15:30:51,-8.53106,0.59156984,-2.203418,-0.14782934,1.6713266,-1.2547168,8.830854675,2.095113451,crawl
27/03/2021, 15:30:51,-8.53106,0.59156984,-2.203418,-0.26755887,1.7702868,-1.4477501,8.830854675,2.302495044,crawl
27/03/2021, 15:30:51,-8.933423,0.09340577,-1.9950514,-0.26755887,1.7702868,-1.4477501,9.153960996,2.302495044,crawl
27/03/2021, 15:30:51,-8.933423,0.09340577,-1.9950514,-0.0488692,1.8252647,-1.3829983,9.153960996,2.290559719,crawl
27/03/2021, 15:30:51,-8.966953,0.20357667,-2.308799,-0.0488692,1.8252647,-1.3829983,9.261654685,2.290559719,crawl
27/03/2021, 15:30:51,-8.966953,0.20357667,-2.308799,0.32009327,1.8423688,-1.2180648,9.261654685,2.231695425,crawl
27/03/2021, 15:30:51,-8.753797,0.50774413,-3.0895753,0.32009327,1.8423688,-1.2180648,9.296893788,2.231695425,crawl
27/03/2021, 15:30:51,-8.753797,0.50774413,-3.0895753,0.70982516,1.8154908,-1.1288786,9.296893788,2.252604189,crawl
27/03/2021, 15:30:51,-8.102351,0.92926764,-3.5829494,0.70982516,1.8154908,-1.1288786,8.907814521,2.252604189,crawl
27/03/2021, 15:30:51,-8.102351,0.92926764,-3.5829494,0.9761623,1.8020518,-1.2278386,8.907814521,2.389115151,crawl
27/03/2021, 15:30:51,-7.448511,0.86220706,-4.24637,0.9761623,1.8020518,-1.2278386,8.617155898,2.389115151,crawl
27/03/2021, 15:30:52,1.5998731,-8.341853,5.022356,4.1208954,0.36285383,1.8472558,9.86763233,4.530540339,crawl
27/03/2021, 15:30:52,2.0261867,-7.1156034,5.369634,4.1208954,0.36285383,1.8472558,9.141674677,4.530540339,crawl
27/03/2021, 15:30:52,2.0261867,-7.1156034,5.369634,4.357911,0.6059781,1.9376638,9.141674677,4.807612676,crawl
27/03/2021, 15:30:52,2.078877,-5.879773,6.583909,4.357911,0.6059781,1.9376638,9.068700007,4.807612676,crawl
27/03/2021, 15:30:52,2.078877,-5.879773,6.583909,4.728095,1.0018187,2.100154,9.068700007,5.269646095,crawl
27/03/2021, 15:30:52,1.4705421,-4.87626,7.862849,4.728095,1.0018187,2.100154,9.368287024,5.269646095,crawl
27/03/2021, 15:30:52,1.4705421,-4.87626,7.862849,5.139818,1.2363908,2.3188436,9.368287024,5.772644886,crawl
27/03/2021, 15:30:52,0.32093263,-4.397256,8.296348,5.139818,1.2363908,2.3188436,9.395117933,5.772644886,crawl
27/03/2021, 15:30:52,0.32093263,-4.397256,8.296348,5.3328514,1.2730427,2.5130987,9.395117933,6.031219361,crawl
27/03/2021, 15:30:52,-1.2334352,-3.9469924,8.399334,5.3328514,1.2730427,2.5130987,9.362100306,6.031219361,crawl
27/03/2021, 15:30:52,-1.2334352,-3.9469924,8.399334,5.1935744,1.2620472,2.7097971,9.362100306,5.992410114,crawl
27/03/2021, 15:30:52,-2.816543,-3.4871485,8.600515,5.1935744,1.2620472,2.7097971,9.698555791,5.992410114,crawl
27/03/2021, 15:30:52,-2.816543,-3.4871485,8.600515,4.9345675,1.253495,2.915048,9.698555791,5.866746096,crawl
27/03/2021, 15:30:52,-4.0930886,-2.8668385,8.859178,4.9345675,1.253495,2.915048,10.17138952,5.866746096,crawl
27/03/2021, 15:30:52,-4.0930886,-2.8668385,8.859178,4.6999955,1.1215482,3.0518816,10.17138952,5.715051109,crawl
27/03/2021, 15:30:52,-4.8139896,-2.680027,9.050779,4.6999955,1.1215482,3.0518816,10.595926,5.715051109,crawl
27/03/2021, 15:30:52,-4.8139896,-2.680027,9.050779,4.4177756,0.92607135,3.0640988,10.595926,5.45555234,crawl
27/03/2021, 15:30:52,-5.118157,-2.680027,9.002879,4.4177756,0.92607135,3.0640988,10.69719158,5.45555234,crawl
27/03/2021, 15:30:52,-5.118157,-2.680027,9.002879,4.0915737,0.79045933,3.0078993,10.69719158,5.139383186,crawl
27/03/2021, 15:30:52,-5.4438796,-2.42855,8.818462,4.0915737,0.79045933,3.0078993,10.64419837,5.139383186,crawl
27/03/2021, 15:30:53,-8.883128,-1.4202466,4.7948294,-1.2657123,2.1514666,0.5607741,10.19399113,2.55837911,crawl
27/03/2021, 15:30:53,-8.883128,-1.4202466,4.7948294,-1.2791513,2.004859,0.5461133,10.19399113,2.440067077,crawl
27/03/2021, 15:30:53,-9.314231,-1.1735597,5.688172,-1.2791513,2.004859,0.5461133,10.97667705,2.440067077,crawl
27/03/2021, 15:30:53,-9.314231,-1.1735597,5.688172,-0.9346235,1.7983866,0.7293728,10.97667705,2.153996286,crawl
27/03/2021, 15:30:53,-8.720266,-0.91010743,5.4103494,-0.9346235,1.7983866,0.7293728,10.30258322,2.153996286,crawl
27/03/2021, 15:30:53,-8.720266,-0.91010743,5.4103494,-0.55466545,1.6847657,0.84421545,10.30258322,1.96438004,crawl
27/03/2021, 15:30:53,-7.553892,-1.5447876,4.854705,-0.55466545,1.6847657,0.84421545,9.111301472,1.96438004,crawl
27/03/2021, 15:30:53,-7.553892,-1.5447876,4.854705,-0.4679226,1.7666216,0.7440336,9.111301472,1.973192682,crawl
27/03/2021, 15:30:53,-6.9790874,-1.2741505,4.991221,-0.4679226,1.7666216,0.7440336,8.674295725,1.973192682,crawl
27/03/2021, 15:30:53,-6.9790874,-1.2741505,4.991221,-0.41294473,1.9511029,0.597426,8.674295725,2.081884607,crawl
27/03/2021, 15:30:53,-7.2664895,-0.8167017,5.3073635,-0.41294473,1.9511029,0.597426,9.035318414,2.081884607,crawl
27/03/2021, 15:30:53,-7.2664895,-0.8167017,5.3073635,-0.16859874,2.1282537,0.53511775,9.035318414,2.200963503,crawl
27/03/2021, 15:30:53,-7.549102,-0.70174074,4.751719,-0.16859874,2.1282537,0.53511775,8.947637226,2.200963503,crawl
27/03/2021, 15:30:53,-7.549102,-0.70174074,4.751719,0.0977384,2.2284355,0.4923572,8.947637226,2.284270836,crawl
27/03/2021, 15:30:53,-7.781419,-0.6993457,3.7266505,0.0977384,2.2284355,0.4923572,8.65606647,2.284270836,crawl
27/03/2021, 15:30:53,-7.781419,-0.6993457,3.7266505,0.25167638,2.2504268,0.35552344,8.65606647,2.29219514,crawl
27/03/2021, 15:30:53,-7.8987746,-0.847837,3.3338673,0.25167638,2.2504268,0.35552344,8.615343251,2.29219514,crawl
27/03/2021, 15:30:53,-7.8987746,-0.847837,3.3338673,0.4349359,2.2663093,0.1747074,8.615343251,2.314270852,crawl
27/03/2021, 15:30:53,-8.140672,-1.4202466,2.938689,0.4349359,2.2663093,0.1747074,8.770606001,2.314270852,crawl
27/03/2021, 15:30:53,-8.140672,-1.4202466,2.938689,0.6120867,2.37993,0.00488692,8.770606001,2.457384977,crawl
27/03/2021, 15:30:54,1.8058448,-9.551338,0.24189699,1.6053532,-0.12950338,-1.6200141,9.723561635,2.284376443,crawl
27/03/2021, 15:30:54,2.203418,-9.812395,0.24189699,1.6053532,-0.12950338,-1.6200141,10.05965519,2.284376443,crawl
27/03/2021, 15:30:54,2.203418,-9.812395,0.24189699,1.6346748,-0.04153882,-1.5002844,10.05965519,2.219175639,crawl
27/03/2021, 15:30:54,2.2369483,-10.135723,0.48618898,1.6346748,-0.04153882,-1.5002844,10.39101536,2.219175639,crawl
27/03/2021, 15:30:54,2.2369483,-10.135723,0.48618898,1.8912381,0.05742131,-1.3145815,10.39101536,2.303953838,crawl
27/03/2021, 15:30:54,2.6560767,-10.114168,1.465752,1.8912381,0.05742131,-1.3145815,10.55933568,2.303953838,crawl
27/03/2021, 15:30:54,2.6560767,-10.114168,1.465752,2.1868968,0.13927722,-1.1801912,10.55933568,2.488928873,crawl
27/03/2021, 15:30:54,2.7303224,-10.777588,1.5040723,2.1868968,0.13927722,-1.1801912,11.21932683,2.488928873,crawl
27/03/2021, 15:30:54,2.7303224,-10.777588,1.5040723,2.3273957,0.21502449,-1.0201446,11.21932683,2.550235506,crawl
27/03/2021, 15:30:54,2.919529,-10.665023,1.9303858,2.3273957,0.21502449,-1.0201446,11.22464927,2.550235506,crawl
27/03/2021, 15:30:54,2.919529,-10.665023,1.9303858,2.4410167,0.3176498,-0.87598044,11.22464927,2.612815633,crawl
27/03/2021, 15:30:54,2.4956105,-10.248289,2.3303542,2.4410167,0.3176498,-0.87598044,10.80213183,2.612815633,crawl
27/03/2021, 15:30:54,2.4956105,-10.248289,2.3303542,2.651154,0.44959664,-0.6805036,10.80213183,2.773777217,crawl
27/03/2021, 15:30:54,1.5998731,-9.932146,2.804568,2.651154,0.44959664,-0.6805036,10.44378865,2.773777217,crawl
27/03/2021, 15:30:54,1.5998731,-9.932146,2.804568,3.0738728,0.50579625,-0.35430172,10.44378865,3.135291626,crawl
27/03/2021, 15:30:54,0.86220706,-9.364527,3.7482057,3.0738728,0.50579625,-0.35430172,10.12357683,3.135291626,crawl
27/03/2021, 15:30:54,0.86220706,-9.364527,3.7482057,3.6077688,0.34697133,-0.16126837,10.12357683,3.628001119,crawl
27/03/2021, 15:30:54,0.7041358,-8.847202,3.8392165,3.6077688,0.34697133,-0.16126837,9.669973053,3.628001119,crawl
27/03/2021, 15:30:54,0.7041358,-8.847202,3.8392165,3.6737423,0.123394735,-0.00244346,9.669973053,3.675814832,crawl
27/03/2021, 15:30:54,0.24668702,-8.56459,3.302732,3.6737423,0.123394735,-0.00244346,9.182652271,3.675814832,crawl
27/03/2021, 15:30:55,-5.3049684,4.517007,6.952742,-1.1423175,1.3341292,0.57543486,9.84310231,1.848219519,crawl
27/03/2021, 15:30:55,-5.4247193,4.296665,7.046148,-1.1423175,1.3341292,0.57543486,9.876087827,1.848219519,crawl
27/03/2021, 15:30:55,-5.4247193,4.296665,7.046148,-0.91385406,1.393994,0.55100024,9.876087827,1.755548264,crawl
27/03/2021, 15:30:55,-5.4342995,4.145779,7.0245924,-0.91385406,1.393994,0.55100024,9.801224093,1.755548264,crawl
27/03/2021, 15:30:55,-5.4342995,4.145779,7.0245924,-0.6438517,1.4734064,0.53145254,9.801224093,1.693491461,crawl
27/03/2021, 15:30:55,-5.637876,4.160149,7.1443434,-0.6438517,1.4734064,0.53145254,10.0067042,1.693491461,crawl
27/03/2021, 15:30:55,-5.637876,4.160149,7.1443434,-0.34452787,1.5528189,0.50213104,10.0067042,1.667957301,crawl
27/03/2021, 15:30:55,-5.831873,4.095484,6.940767,-0.34452787,1.5528189,0.50213104,9.947762226,1.667957301,crawl
27/03/2021, 15:30:55,-5.831873,4.095484,6.940767,-0.108733974,1.6126837,0.44593146,9.947762226,1.676730901,crawl
27/03/2021, 15:30:55,-6.0761647,4.24158,6.569539,-0.108733974,1.6126837,0.44593146,9.90301077,1.676730901,crawl
27/03/2021, 15:30:55,-6.0761647,4.24158,6.569539,0.02687806,1.63834,0.38362324,9.90301077,1.682868731,crawl
27/03/2021, 15:30:55,-6.318062,4.5481424,6.2797413,0.02687806,1.63834,0.38362324,10.00193259,1.682868731,crawl
27/03/2021, 15:30:55,-6.318062,4.5481424,6.2797413,0.061086502,1.6676614,0.36407554,10.00193259,1.708033138,crawl
27/03/2021, 15:30:55,-6.4186525,5.2091675,6.183941,0.061086502,1.6676614,0.36407554,10.32354838,1.708033138,crawl
27/03/2021, 15:30:55,-6.4186525,5.2091675,6.183941,-0.03176498,1.7043134,0.3652973,10.32354838,1.743311584,crawl
27/03/2021, 15:30:55,-6.7874856,5.9396486,6.219866,-0.03176498,1.7043134,0.3652973,10.95609954,1.743311584,crawl
27/03/2021, 15:30:55,-6.7874856,5.9396486,6.219866,-0.25167638,1.7153089,0.37629285,10.95609954,1.774041136,crawl
27/03/2021, 15:30:55,-7.1706886,6.334827,5.9300685,-0.25167638,1.7153089,0.37629285,11.25675443,1.774041136,crawl
27/03/2021, 15:30:55,-7.1706886,6.334827,5.9300685,-0.5644393,1.670105,0.37262765,11.25675443,1.801858409,crawl
27/03/2021, 15:30:55,-7.462881,6.327642,5.508545,-0.5644393,1.670105,0.37262765,11.22843329,1.801858409,crawl
27/03/2021, 15:30:56,-12.015814,-1.7675245,-6.06419,0.7733551,0.08674283,-2.7281232,13.57491525,2.836945294,crawl
27/03/2021, 15:30:56,-10.827884,-2.42855,-6.0186844,0.7733551,0.08674283,-2.7281232,12.62400423,2.836945294,crawl
27/03/2021, 15:30:56,-10.827884,-2.42855,-6.0186844,0.23212871,-0.18203777,-2.8075356,12.62400423,2.82299095,crawl
27/03/2021, 15:30:56,-9.81,-2.7686427,-5.3217335,0.23212871,-0.18203777,-2.8075356,11.49879722,2.82299095,crawl
27/03/2021, 15:30:56,-9.81,-2.7686427,-5.3217335,-0.18570296,-0.3335323,-2.8698437,11.49879722,2.895122169,crawl
27/03/2021, 15:30:56,-9.067544,-3.288362,-4.8906302,-0.18570296,-0.3335323,-2.8698437,10.81443216,2.895122169,crawl
27/03/2021, 15:30:56,-9.067544,-3.288362,-4.8906302,-0.5497785,-0.46670088,-2.886948,10.81443216,2.975657157,crawl
27/03/2021, 15:30:56,-8.404124,-3.9541774,-4.734954,-0.5497785,-0.46670088,-2.886948,10.4251912,2.975657157,crawl
27/03/2021, 15:30:56,-8.404124,-3.9541774,-4.734954,-0.8515458,-0.61941713,-2.9174912,10.4251912,3.1017032,crawl
27/03/2021, 15:30:56,-7.661668,-4.7325587,-4.414021,-0.8515458,-0.61941713,-2.9174912,10.02905018,3.1017032,crawl
27/03/2021, 15:30:56,-7.661668,-4.7325587,-4.414021,-1.0201446,-0.7892376,-2.9993472,10.02905018,3.264915722,crawl
27/03/2021, 15:30:56,-7.1347637,-5.362449,-3.9493873,-1.0201446,-0.7892376,-2.9993472,9.760039679,3.264915722,crawl
27/03/2021, 15:30:56,-7.1347637,-5.362449,-3.9493873,-1.1215482,-0.8991933,-3.0787597,9.760039679,3.397819887,crawl
27/03/2021, 15:30:56,-6.926397,-5.9875493,-3.779341,-1.1215482,-0.8991933,-3.0787597,9.905005715,3.397819887,crawl
27/03/2021, 15:30:56,-6.926397,-5.9875493,-3.779341,-1.1801912,-0.91141057,-3.0531034,9.905005715,3.397787671,crawl
27/03/2021, 15:30:56,-6.912027,-6.3899126,-3.6308498,-1.1801912,-0.91141057,-3.0531034,10.08911142,3.397787671,crawl
27/03/2021, 15:30:56,-6.912027,-6.3899126,-3.6308498,-1.091005,-0.8625414,-2.932152,10.08911142,3.245271177,crawl
27/03/2021, 15:30:56,-6.9886675,-6.466553,-3.1039455,-1.091005,-0.8625414,-2.932152,10.0146024,3.245271177,crawl
27/03/2021, 15:30:56,-6.9886675,-6.466553,-3.1039455,-0.7819072,-0.8344416,-2.7928748,10.0146024,3.017916728,crawl
27/03/2021, 15:30:56,-6.9383717,-6.423443,-2.9722195,-0.7819072,-0.8344416,-2.7928748,9.911392826,3.017916728,crawl
27/03/2021, 15:30:57,-11.826607,0.098195806,5.654641,1.4147633,1.0005969,3.131294,13.10928054,3.578791918,crawl
27/03/2021, 15:30:57,-11.56555,-0.44786867,4.679868,1.4147633,1.0005969,3.131294,12.48453829,3.578791918,crawl
27/03/2021, 15:30:57,-11.56555,-0.44786867,4.679868,1.1129961,0.7476988,2.783101,12.48453829,3.089249978,crawl
27/03/2021, 15:30:57,-11.04104,-0.5029541,5.2043777,1.1129961,0.7476988,2.783101,12.21650863,3.089249978,crawl
27/03/2021, 15:30:57,-11.04104,-0.5029541,5.2043777,1.0971136,0.47280952,2.4226906,12.21650863,2.701228795,crawl
27/03/2021, 15:30:57,-10.260264,0.1939966,7.158714,1.0971136,0.47280952,2.4226906,12.51230769,2.701228795,crawl
27/03/2021, 15:30:57,-10.260264,0.1939966,7.158714,1.3231336,0.26022848,2.1526883,12.51230769,2.540170884,crawl
27/03/2021, 15:30:57,-9.0891,1.3723463,8.202942,1.3231336,0.26022848,2.1526883,12.32003761,2.540170884,crawl
27/03/2021, 15:30:57,-9.0891,1.3723463,8.202942,1.5039496,0.0977384,1.9572115,12.32003761,2.47024172,crawl
27/03/2021, 15:30:57,-7.8676395,3.0416749,7.8029737,1.5039496,0.0977384,1.9572115,11.49077618,2.47024172,crawl
27/03/2021, 15:30:57,-7.8676395,3.0416749,7.8029737,1.4587456,0.00122173,1.7788389,11.49077618,2.300479939,crawl
27/03/2021, 15:30:57,-6.9216065,4.0499783,7.4652762,1.4587456,0.00122173,1.7788389,10.95633654,2.300479939,crawl
27/03/2021, 15:30:57,-6.9216065,4.0499783,7.4652762,1.2327256,-0.051312663,1.569923,10.95633654,1.996723267,crawl
27/03/2021, 15:30:57,-6.6677346,4.655918,7.2760696,1.2327256,-0.051312663,1.569923,10.91226136,1.996723267,crawl
27/03/2021, 15:30:57,-6.6677346,4.655918,7.2760696,0.9517277,-0.10506878,1.3658942,10.91226136,1.668080335,crawl
27/03/2021, 15:30:57,-6.615044,4.7229786,7.2497244,0.9517277,-0.10506878,1.3658942,10.89145716,1.668080335,crawl
27/03/2021, 15:30:57,-6.615044,4.7229786,7.2497244,0.6487386,-0.14416414,1.2681558,10.89145716,1.431734706,crawl
27/03/2021, 15:30:57,-6.3994923,4.6990285,8.049661,0.6487386,-0.14416414,1.2681558,11.30625522,1.431734706,crawl
27/03/2021, 15:30:57,-6.3994923,4.6990285,8.049661,0.65729076,-0.19792026,1.2180648,11.30625522,1.39817216,crawl
27/03/2021, 15:30:57,-5.7791824,4.1984696,10.650652,0.65729076,-0.19792026,1.2180648,12.82429271,1.39817216,crawl
27/03/2021, 15:30:58,-8.3179035,1.5543678,1.3292359,-0.67439497,2.8576264,-0.20280719,8.565655039,2.943122183,crawl
27/03/2021, 15:30:58,-8.5119,0.4382886,1.1591895,-0.67439497,2.8576264,-0.20280719,8.60164274,2.943122183,crawl
27/03/2021, 15:30:58,-8.5119,0.4382886,1.1591895,-0.8185591,2.868622,-0.3750711,8.60164274,3.006611033,crawl
27/03/2021, 15:30:58,-9.19927,-0.15088624,1.2621753,-0.8185591,2.868622,-0.3750711,9.286680047,3.006611033,crawl
27/03/2021, 15:30:58,-9.19927,-0.15088624,1.2621753,-0.77213335,2.6768105,-0.51557004,9.286680047,2.833251992,crawl
27/03/2021, 15:30:58,-9.910591,-0.1460962,1.2669654,-0.77213335,2.6768105,-0.51557004,9.99231514,2.833251992,crawl
27/03/2021, 15:30:58,-9.910591,-0.1460962,1.2669654,-0.41783166,2.3994777,-0.533896,9.99231514,2.493415648,crawl
27/03/2021, 15:30:58,-10.27224,-0.24668702,0.93405765,-0.41783166,2.3994777,-0.533896,10.31756882,2.493415648,crawl
27/03/2021, 15:30:58,-10.27224,-0.24668702,0.93405765,-0.00488692,2.2101097,-0.44226626,10.31756882,2.253931733,crawl
27/03/2021, 15:30:58,-9.613608,-0.2083667,0.6730005,-0.00488692,2.2101097,-0.44226626,9.639388574,2.253931733,crawl
27/03/2021, 15:30:58,-9.613608,-0.2083667,0.6730005,0.3335323,2.1209233,-0.40927956,9.639388574,2.18565073,crawl
27/03/2021, 15:30:58,-9.0004835,0.21794678,0.3281177,0.3335323,2.1209233,-0.40927956,9.009099039,2.18565073,crawl
27/03/2021, 15:30:58,-9.0004835,0.21794678,0.3281177,0.5766566,2.0879366,-0.4923572,9.009099039,2.221357204,crawl
27/03/2021, 15:30:58,-8.746612,0.39996827,0.17004639,0.5766566,2.0879366,-0.4923572,8.757402856,2.221357204,crawl
27/03/2021, 15:30:58,-8.746612,0.39996827,0.17004639,0.73792493,2.0928235,-0.6120867,8.757402856,2.301976016,crawl
27/03/2021, 15:30:58,-8.50711,0.74724615,-0.119750984,0.73792493,2.0928235,-0.6120867,8.540704395,2.301976016,crawl
27/03/2021, 15:30:58,-8.50711,0.74724615,-0.119750984,0.74647707,2.1074843,-0.77824205,8.540704395,2.367356954,crawl
27/03/2021, 15:30:58,-8.47837,0.974773,-0.31135255,0.74647707,2.1074843,-0.77824205,8.53989905,2.367356954,crawl
27/03/2021, 15:30:58,-8.47837,0.974773,-0.31135255,0.62063885,2.1306973,-0.9480625,8.53989905,2.413272843,crawl
27/03/2021, 15:30:58,-8.8951025,1.1951149,-0.44786867,0.62063885,2.1306973,-0.9480625,8.98619688,2.413272843,crawl
27/03/2021, 15:30:59,-0.6777906,-10.91171,9.297466,5.231448,-0.3738494,3.959627,14.35157447,6.571640484,crawl
27/03/2021, 15:30:59,-0.80233157,-11.970308,8.255632,5.231448,-0.3738494,3.959627,14.56322365,6.571640484,crawl
27/03/2021, 15:30:59,-0.80233157,-11.970308,8.255632,5.285204,0.4276055,3.5430171,14.56322365,6.377240595,crawl
27/03/2021, 15:30:59,-1.7914747,-11.460169,7.6209526,5.285204,0.4276055,3.5430171,13.87889657,6.377240595,crawl
27/03/2021, 15:30:59,-1.7914747,-11.460169,7.6209526,5.0848403,1.2021823,2.9126043,13.87889657,5.981981872,crawl
27/03/2021, 15:30:59,-3.6907253,-9.944121,7.676038,5.0848403,1.2021823,2.9126043,13.09307295,5.981981872,crawl
27/03/2021, 15:30:59,-3.6907253,-9.944121,7.676038,4.840494,1.7201959,2.7269015,13.09307295,5.815965056,crawl
27/03/2021, 15:30:59,-6.1959157,-8.911868,7.556287,4.840494,1.7201959,2.7269015,13.2252877,5.815965056,crawl
27/03/2021, 15:30:59,-6.1959157,-8.911868,7.556287,4.675561,1.9669853,3.004234,13.2252877,5.895364614,crawl
27/03/2021, 15:30:59,-7.7167535,-7.101233,8.052056,4.675561,1.9669853,3.004234,13.22162643,5.895364614,crawl
27/03/2021, 15:30:59,-7.7167535,-7.101233,8.052056,4.5240664,2.0158546,3.316997,13.22162643,5.96098284,crawl
27/03/2021, 15:30:59,-8.5119,-3.8847218,8.210127,4.5240664,2.0158546,3.316997,12.44787882,5.96098284,crawl
27/03/2021, 15:30:59,-8.5119,-3.8847218,8.210127,4.3884544,1.9511029,3.3634229,12.44787882,5.863271109,crawl
27/03/2021, 15:30:59,-8.758587,-0.09101075,8.701106,4.3884544,1.9511029,3.3634229,12.34626964,5.863271109,crawl
27/03/2021, 15:30:59,-8.758587,-0.09101075,8.701106,4.101348,1.63834,3.2290325,12.34626964,5.471002077,crawl
27/03/2021, 15:30:59,-8.349038,3.5661843,9.366921,4.101348,1.63834,3.2290325,13.04466653,5.471002077,crawl
27/03/2021, 15:30:59,-8.349038,3.5661843,9.366921,3.5320215,1.1606436,3.1019726,13.04466653,4.841952441,crawl
27/03/2021, 15:30:59,-7.1443434,6.191126,10.356065,3.5320215,1.1606436,3.1019726,14.02211681,4.841952441,crawl
27/03/2021, 15:30:59,-7.1443434,6.191126,10.356065,2.6010633,0.6462952,3.204598,14.02211681,4.177639948,crawl
27/03/2021, 15:30:59,-5.6738014,6.6126494,9.026829,2.6010633,0.6462952,3.204598,12.54602697,4.177639948,crawl
27/03/2021, 15:31:00,-9.182506,-6.1384354,4.1864944,0.94684076,3.5906646,-0.7696899,11.81209266,3.792334697,crawl
27/03/2021, 15:31:00,-11.144027,-6.373147,3.8751419,0.94684076,3.5906646,-0.7696899,13.40981206,3.792334697,crawl
27/03/2021, 15:31:00,-11.144027,-6.373147,3.8751419,0.8381068,3.8227932,-0.9810492,13.40981206,4.034678267,crawl
27/03/2021, 15:31:00,-12.703184,-6.0114994,3.04407,0.8381068,3.8227932,-0.9810492,14.37968617,4.034678267,crawl
27/03/2021, 15:31:00,-12.703184,-6.0114994,3.04407,0.65729076,3.8570018,-1.1606436,14.37968617,4.081125751,crawl
27/03/2021, 15:31:00,-13.131892,-5.2115626,2.3614893,0.65729076,3.8570018,-1.1606436,14.32423156,4.081125751,crawl
27/03/2021, 15:31:00,-13.131892,-5.2115626,2.3614893,0.48747027,3.7140594,-1.3377944,14.32423156,3.977632218,crawl
27/03/2021, 15:31:00,-13.357024,-4.737349,1.3891114,0.48747027,3.7140594,-1.3377944,14.24016157,3.977632218,crawl
27/03/2021, 15:31:00,-13.357024,-4.737349,1.3891114,0.3494148,3.4184005,-1.5100583,14.24016157,3.753375664,crawl
27/03/2021, 15:31:00,-12.715159,-3.8847218,1.3268409,0.3494148,3.4184005,-1.5100583,13.36139397,3.753375664,crawl
27/03/2021, 15:31:00,-12.715159,-3.8847218,1.3268409,0.17592913,3.1923807,-1.6933178,13.36139397,3.61795114,crawl
27/03/2021, 15:31:00,-12.111614,-3.4416432,2.1171973,0.17592913,3.1923807,-1.6933178,12.76787499,3.61795114,crawl
27/03/2021, 15:31:00,-12.111614,-3.4416432,2.1171973,0.061086502,3.0921986,-1.8399254,12.76787499,3.598714953,crawl
27/03/2021, 15:31:00,-11.805052,-3.6068995,1.7627344,0.061086502,3.0921986,-1.8399254,12.46900977,3.598714953,crawl
27/03/2021, 15:31:00,-11.805052,-3.6068995,1.7627344,-0.16615528,2.9785779,-1.882686,12.46900977,3.527611124,crawl
27/03/2021, 15:31:00,-11.63261,-3.403323,1.2717555,-0.16615528,2.9785779,-1.882686,12.18677939,3.527611124,crawl
27/03/2021, 15:31:00,-11.63261,-3.403323,1.2717555,-0.40927956,2.814866,-1.8032736,12.18677939,3.367903836,crawl
27/03/2021, 15:31:00,-10.962005,-3.2284865,1.104104,-0.40927956,2.814866,-1.8032736,11.48075421,3.367903836,crawl
27/03/2021, 15:31:00,-10.962005,-3.2284865,1.104104,-0.60475636,2.6169457,-1.6811005,11.48075421,3.168632848,crawl
27/03/2021, 15:31:00,-10.049502,-2.8740237,1.0011182,-0.60475636,2.6169457,-1.6811005,10.50022608,3.168632848,crawl
27/03/2021, 15:31:01,-6.974297,0.16046631,8.499925,0.12705992,-0.11484262,2.3738215,10.99614878,2.379991923,crawl
27/03/2021, 15:31:01,-7.1251836,0.12933107,9.319021,0.12705992,-0.11484262,2.3738215,11.73154398,2.379991923,crawl
27/03/2021, 15:31:01,-7.1251836,0.12933107,9.319021,-0.1869247,-0.3249802,2.2198834,11.73154398,2.251318606,crawl
27/03/2021, 15:31:01,-7.558682,-0.033530276,8.962164,-0.1869247,-0.3249802,2.2198834,11.72412809,2.251318606,crawl
27/03/2021, 15:31:01,-7.558682,-0.033530276,8.962164,-0.29810214,-0.43982282,2.1453578,11.72412809,2.210174042,crawl
27/03/2021, 15:31:01,-7.1443434,0.07185059,8.8951025,-0.29810214,-0.43982282,2.1453578,11.40919161,2.210174042,crawl
27/03/2021, 15:31:01,-7.1443434,0.07185059,8.8951025,-0.108733974,-0.4263838,2.0671673,11.40919161,2.113482148,crawl
27/03/2021, 15:31:01,-6.1073003,0.16286133,9.726174,-0.108733974,-0.4263838,2.0671673,11.48582205,2.113482148,crawl
27/03/2021, 15:31:01,-6.1073003,0.16286133,9.726174,0.41294473,-0.3494148,1.8619165,11.48582205,1.938903624,crawl
27/03/2021, 15:31:01,-5.1636624,0.09101075,9.376502,0.41294473,-0.3494148,1.8619165,10.70469444,1.938903624,crawl
27/03/2021, 15:31:01,-5.1636624,0.09101075,9.376502,1.0286967,-0.2883283,1.6725484,10.70469444,1.984633016,crawl
27/03/2021, 15:31:01,-4.6990285,-0.14849122,9.354947,1.0286967,-0.2883283,1.6725484,10.46985929,1.984633016,crawl
27/03/2021, 15:31:01,-4.6990285,-0.14849122,9.354947,1.5882491,-0.12950338,1.6371182,10.46985929,2.284614269,crawl
27/03/2021, 15:31:01,-5.000801,-0.05269043,10.059082,1.5882491,-0.12950338,1.6371182,11.2336957,2.284614269,crawl
27/03/2021, 15:31:01,-5.000801,-0.05269043,10.059082,1.9425508,-0.00855211,1.7385218,11.2336957,2.606920552,crawl
27/03/2021, 15:31:01,-5.733677,1.4849122,9.980047,1.9425508,-0.00855211,1.7385218,11.60522975,2.606920552,crawl
27/03/2021, 15:31:01,-5.733677,1.4849122,9.980047,1.9975286,-0.030543251,1.7678434,11.60522975,2.667643787,crawl
27/03/2021, 15:31:01,-6.3060865,3.8751419,9.230406,1.9975286,-0.030543251,1.7678434,11.8314768,2.667643787,crawl
27/03/2021, 15:31:01,-6.3060865,3.8751419,9.230406,1.7324132,-0.116064355,1.6774353,11.8314768,2.414231855,crawl
27/03/2021, 15:31:01,-6.502478,6.05461,8.590936,1.7324132,-0.116064355,1.6774353,12.35899258,2.414231855,crawl
27/03/2021, 15:31:02,-8.794512,1.4250367,9.735755,3.0836465,4.401893,-0.199142,13.19693495,5.37821501,crawl
27/03/2021, 15:31:02,-8.880733,1.4897022,7.893985,3.0836465,4.401893,-0.199142,11.9750415,5.37821501,crawl
27/03/2021, 15:31:02,-8.880733,1.4897022,7.893985,2.7525578,4.289494,-0.48624855,11.9750415,5.11984091,crawl
27/03/2021, 15:31:02,-10.358459,0.7927515,5.9947343,2.7525578,4.289494,-0.48624855,11.99428934,5.11984091,crawl
27/03/2021, 15:31:02,-10.358459,0.7927515,5.9947343,2.2296574,3.8337889,-0.6792819,11.99428934,4.48672856,crawl
27/03/2021, 15:31:02,-11.009905,1.8250049,4.485872,2.2296574,3.8337889,-0.6792819,12.02795468,4.48672856,crawl
27/03/2021, 15:31:02,-11.009905,1.8250049,4.485872,1.6920961,3.181385,-0.8515458,12.02795468,3.702638289,crawl
27/03/2021, 15:31:02,-12.001443,3.2500417,4.3349857,1.6920961,3.181385,-0.8515458,13.16774485,3.702638289,crawl
27/03/2021, 15:31:02,-12.001443,3.2500417,4.3349857,1.2547168,2.5668547,-0.9847144,13.16774485,3.022038995,crawl
27/03/2021, 15:31:02,-12.389437,3.2859669,4.8906302,1.2547168,2.5668547,-0.9847144,13.7191102,3.022038995,crawl
27/03/2021, 15:31:02,-12.389437,3.2859669,4.8906302,0.8881977,2.3432782,-1.091005,13.7191102,2.733155614,crawl
27/03/2021, 15:31:02,-10.585987,3.1350808,4.615203,0.8881977,2.3432782,-1.091005,11.96628398,2.733155614,crawl
27/03/2021, 15:31:02,-10.585987,3.1350808,4.615203,0.5424481,2.4495687,-1.3292422,11.96628398,2.839281934,crawl
27/03/2021, 15:31:02,-9.328602,3.7601807,4.533772,0.5424481,2.4495687,-1.3292422,11.03253641,2.839281934,crawl
27/03/2021, 15:31:02,-9.328602,3.7601807,4.533772,0.41172302,2.6181674,-1.6200141,11.03253641,3.106245639,crawl
27/03/2021, 15:31:02,-9.16574,3.68354,4.7636943,0.41172302,2.6181674,-1.6200141,10.96686103,3.106245639,crawl
27/03/2021, 15:31:02,-9.16574,3.68354,4.7636943,0.5241222,2.6548193,-1.8533645,10.96686103,3.279897736,crawl
27/03/2021, 15:31:02,-10.217154,2.454895,3.5709743,0.5241222,2.6548193,-1.8533645,11.09813471,3.279897736,crawl
27/03/2021, 15:31:02,-10.217154,2.454895,3.5709743,0.75625086,2.3701563,-1.9498811,11.09813471,3.160948023,crawl
27/03/2021, 15:31:02,-10.813514,2.059717,2.938689,0.75625086,2.3701563,-1.9498811,11.393437,3.160948023,crawl
27/03/2021, 15:31:03,1.839375,-12.145144,0.6993457,0.7696899,0.12583819,-0.55222195,12.30353278,0.955618598,crawl
27/03/2021, 15:31:03,1.9950514,-11.795472,0.14370118,0.7696899,0.12583819,-0.55222195,11.96386406,0.955618598,crawl
27/03/2021, 15:31:03,1.9950514,-11.795472,0.14370118,1.05924,-0.07819072,-0.5265656,11.96386406,1.185484911,crawl
27/03/2021, 15:31:03,2.44292,-10.827884,0.05269043,1.05924,-0.07819072,-0.5265656,11.10016667,1.185484911,crawl
27/03/2021, 15:31:03,2.44292,-10.827884,0.05269043,1.4037678,-0.2565633,-0.52045697,11.10016667,1.518968167,crawl
27/03/2021, 15:31:03,2.8213332,-10.164463,0.20118165,1.4037678,-0.2565633,-0.52045697,10.55067315,1.518968167,crawl
27/03/2021, 15:31:03,2.8213332,-10.164463,0.20118165,1.6322314,-0.3579669,-0.45326185,10.55067315,1.73140573,crawl
27/03/2021, 15:31:03,2.8859987,-9.903406,-0.18441652,1.6322314,-0.3579669,-0.45326185,10.31699817,1.73140573,crawl
27/03/2021, 15:31:03,2.8859987,-9.903406,-0.18441652,1.6920961,-0.33841923,-0.33719748,10.31699817,1.75824315,crawl
27/03/2021, 15:31:03,3.2213013,-9.620794,-0.17723145,1.6920961,-0.33841923,-0.33719748,10.14730881,1.75824315,crawl
27/03/2021, 15:31:03,3.2213013,-9.620794,-0.17723145,1.850921,-0.24923292,-0.20280719,10.14730881,1.878604929,crawl
27/03/2021, 15:31:03,3.1566358,-9.529783,0.45984375,1.850921,-0.24923292,-0.20280719,10.04950618,1.878604929,crawl
27/03/2021, 15:31:03,3.1566358,-9.529783,0.45984375,2.1294754,-0.15149452,-0.036651902,10.04950618,2.135171946,crawl
27/03/2021, 15:31:03,3.1422658,-9.237591,0.47181886,2.1294754,-0.15149452,-0.036651902,9.768803969,2.135171946,crawl
27/03/2021, 15:31:03,3.1422658,-9.237591,0.47181886,2.444682,-0.07574726,0.13072512,9.768803969,2.449346078,crawl
27/03/2021, 15:31:03,2.9889846,-9.532178,0.7831714,2.444682,-0.07574726,0.13072512,10.02046917,2.449346078,crawl
27/03/2021, 15:31:03,2.9889846,-9.532178,0.7831714,2.6988015,-0.07208207,0.31520635,10.02046917,2.718102371,crawl
27/03/2021, 15:31:03,2.7854078,-9.678274,0.5125342,2.6988015,-0.07208207,0.31520635,10.08415482,2.718102371,crawl
27/03/2021, 15:31:03,2.7854078,-9.678274,0.5125342,2.8955002,-0.08429937,0.46914434,10.08415482,2.934471692,crawl
27/03/2021, 15:31:03,2.4812403,-9.766891,0.13651612,2.8955002,-0.08429937,0.46914434,10.07806234,2.934471692,crawl
27/03/2021, 15:31:04,-5.824688,6.9024467,2.6967921,-0.9248496,1.3487899,0.51923525,9.425680276,1.715863153,crawl
27/03/2021, 15:31:04,-5.829478,6.964717,2.802173,-0.9248496,1.3487899,0.51923525,9.504854859,1.715863153,crawl
27/03/2021, 15:31:04,-5.829478,6.964717,2.802173,-1.1924086,1.3463465,0.5241222,9.504854859,1.873283515,crawl
27/03/2021, 15:31:04,-5.740862,6.9862723,3.159031,-1.1924086,1.3463465,0.5241222,9.578359605,1.873283515,crawl
27/03/2021, 15:31:04,-5.740862,6.9862723,3.159031,-1.3854419,1.3768897,0.5436699,9.578359605,2.027523478,crawl
27/03/2021, 15:31:04,-5.719307,7.0916533,3.906277,-1.3854419,1.3768897,0.5436699,9.912669604,2.027523478,crawl
27/03/2021, 15:31:04,-5.719307,7.0916533,3.906277,-1.407433,1.4453067,0.55466545,9.912669604,2.092231545,crawl
27/03/2021, 15:31:04,-5.872588,6.947952,4.25595,-1.407433,1.4453067,0.55466545,10.04362663,2.092231545,crawl
27/03/2021, 15:31:04,-5.872588,6.947952,4.25595,-1.3695594,1.470963,0.5632175,10.04362663,2.087256356,crawl
27/03/2021, 15:31:04,-6.12646,6.6821046,4.3637257,-1.3695594,1.470963,0.5632175,10.06112004,2.087256356,crawl
27/03/2021, 15:31:04,-6.12646,6.6821046,4.3637257,-1.4062113,1.4477501,0.5632175,10.06112004,2.095381684,crawl
27/03/2021, 15:31:04,-6.5096636,6.7803006,4.24158,-1.4062113,1.4477501,0.5632175,10.31208987,2.095381684,crawl
27/03/2021, 15:31:04,-6.5096636,6.7803006,4.24158,-1.5308278,1.4269806,0.5497785,10.31208987,2.163784585,crawl
27/03/2021, 15:31:04,-6.686895,6.7300053,4.0787187,-1.5308278,1.4269806,0.5497785,10.32683301,2.163784585,crawl
27/03/2021, 15:31:04,-6.686895,6.7300053,4.0787187,-1.6859875,1.4269806,0.48991373,10.32683301,2.262485999,crawl
27/03/2021, 15:31:04,-6.861731,6.622229,3.7386258,-1.6859875,1.4269806,0.48991373,10.24278253,2.262485999,crawl
27/03/2021, 15:31:04,-6.861731,6.622229,3.7386258,-1.8668035,1.4355328,0.44715318,10.24278253,2.397009766,crawl
27/03/2021, 15:31:04,-7.0293827,6.480923,3.5709743,-1.8668035,1.4355328,0.44715318,10.20619637,2.397009766,crawl
27/03/2021, 15:31:04,-7.0293827,6.480923,3.5709743,-1.9779809,1.4489719,0.45692703,10.20619637,2.494135128,crawl
27/03/2021, 15:31:04,-7.151529,6.5719337,4.028423,-1.9779809,1.4489719,0.45692703,10.51488794,2.494135128,crawl
27/03/2021, 15:31:05,-7.216194,-2.4093897,-6.2438164,0.28588483,-0.2724458,-1.8631383,9.841943907,1.904531764,crawl
27/03/2021, 15:31:05,-6.9719024,-3.04407,-6.2869267,0.28588483,-0.2724458,-1.8631383,9.869104963,1.904531764,crawl
27/03/2021, 15:31:05,-6.9719024,-3.04407,-6.2869267,0.20158546,-0.4031709,-1.8655818,9.869104963,1.919265159,crawl
27/03/2021, 15:31:05,-6.6437845,-3.6380348,-6.013894,0.20158546,-0.4031709,-1.8655818,9.671716092,1.919265159,crawl
27/03/2021, 15:31:05,-6.6437845,-3.6380348,-6.013894,0.23579389,-0.547335,-1.8985685,9.671716092,1.989908737,crawl
27/03/2021, 15:31:05,-6.210286,-4.387676,-5.8031325,0.23579389,-0.547335,-1.8985685,9.565338454,1.989908737,crawl
27/03/2021, 15:31:05,-6.210286,-4.387676,-5.8031325,0.35430172,-0.73792493,-1.9474376,9.565338454,2.112481075,crawl
27/03/2021, 15:31:05,-5.958809,-5.5157304,-5.5708156,0.35430172,-0.73792493,-1.9474376,9.847064089,2.112481075,crawl
27/03/2021, 15:31:05,-5.958809,-5.5157304,-5.5708156,0.5571089,-0.93340176,-2.031737,9.847064089,2.304249282,crawl
27/03/2021, 15:31:05,-5.853428,-7.2401443,-5.1947975,0.5571089,-0.93340176,-2.031737,10.66153029,2.304249282,crawl
27/03/2021, 15:31:05,-5.853428,-7.2401443,-5.1947975,0.81245047,-1.0384705,-2.163684,10.66153029,2.533776774,crawl
27/03/2021, 15:31:05,-5.8127127,-8.959768,-5.1732426,0.81245047,-1.0384705,-2.163684,11.86707694,2.533776774,crawl
27/03/2021, 15:31:05,-5.8127127,-8.959768,-5.1732426,1.1349872,-1.0152576,-2.3127348,11.86707694,2.769058768,crawl
27/03/2021, 15:31:05,-6.215076,-10.001602,-5.0343313,1.1349872,-1.0152576,-2.3127348,12.80639322,2.769058768,crawl
27/03/2021, 15:31:05,-6.215076,-10.001602,-5.0343313,1.6249009,-0.8906412,-2.4385731,12.80639322,3.062708556,crawl
27/03/2021, 15:31:05,-6.71803,-10.085427,-4.8451247,1.6249009,-0.8906412,-2.4385731,13.05078556,3.062708556,crawl
27/03/2021, 15:31:05,-6.71803,-10.085427,-4.8451247,2.254092,-0.7293728,-2.5143204,13.05078556,3.454666737,crawl
27/03/2021, 15:31:05,-7.2640944,-9.139395,-4.893025,2.254092,-0.7293728,-2.5143204,12.65848712,3.454666737,crawl
27/03/2021, 15:31:05,-7.2640944,-9.139395,-4.893025,2.8845046,-0.64018655,-2.548529,12.65848712,3.901948867,crawl
27/03/2021, 15:31:05,-7.783814,-7.783814,-4.8139896,2.8845046,-0.64018655,-2.548529,12.01457513,3.901948867,crawl
27/03/2021, 15:31:06,-6.1647806,-1.2957057,9.16574,2.7953184,2.3164,2.4373515,11.12178777,4.372664648,crawl
27/03/2021, 15:31:06,-7.340735,-2.0932472,10.135723,2.7953184,2.3164,2.4373515,12.68861523,4.372664648,crawl
27/03/2021, 15:31:06,-7.340735,-2.0932472,10.135723,2.7684402,2.262644,2.0586152,12.68861523,4.125738247,crawl
27/03/2021, 15:31:06,-8.8879175,-3.0081446,9.486672,2.7684402,2.262644,2.0586152,13.34319921,4.125738247,crawl
27/03/2021, 15:31:06,-8.8879175,-3.0081446,9.486672,2.8722873,2.2406528,2.1526883,13.34319921,4.231385815,crawl
27/03/2021, 15:31:06,-8.873548,-2.8668385,9.050779,2.8722873,2.2406528,2.1526883,12.99519971,4.231385815,crawl
27/03/2021, 15:31:06,-8.873548,-2.8668385,9.050779,3.1337376,2.2504268,2.6145022,12.99519971,4.660510001,crawl
27/03/2021, 15:31:06,-8.396939,-2.2321582,8.902288,3.1337376,2.2504268,2.6145022,12.43952808,4.660510001,crawl
27/03/2021, 15:31:06,-8.396939,-2.2321582,8.902288,3.6053252,2.2736397,3.054325,12.43952808,5.243730465,crawl
27/03/2021, 15:31:06,-7.3742657,-0.8047266,9.376502,3.6053252,2.2736397,3.054325,11.95600977,5.243730465,crawl
27/03/2021, 15:31:06,-7.3742657,-0.8047266,9.376502,3.8411193,2.167349,3.2424715,11.95600977,5.47404975,crawl
27/03/2021, 15:31:06,-6.3970976,0.15328126,10.717712,3.8411193,2.167349,3.2424715,12.48261639,5.47404975,crawl
27/03/2021, 15:31:06,-6.3970976,0.15328126,10.717712,3.9620705,2.0476196,3.2155933,12.48261639,5.498253253,crawl
27/03/2021, 15:31:06,-5.6354814,0.040715333,10.7871685,3.9620705,2.0476196,3.2155933,12.1705921,5.498253253,crawl
27/03/2021, 15:31:06,-5.6354814,0.040715333,10.7871685,3.837454,1.9938633,3.1752763,12.1705921,5.365065173,crawl
27/03/2021, 15:31:06,-5.0630717,-0.2562671,9.74773,3.837454,1.9938633,3.1752763,10.98720225,5.365065173,crawl
27/03/2021, 15:31:06,-5.0630717,-0.2562671,9.74773,3.6676335,1.9620984,3.266906,10.98720225,5.289049128,crawl
27/03/2021, 15:31:06,-5.6522465,-2.193838,10.34888,3.6676335,1.9620984,3.266906,11.9941706,5.289049128,crawl
27/03/2021, 15:31:06,-5.6522465,-2.193838,10.34888,3.7934718,1.8154908,3.5320215,11.9941706,5.491958797,crawl
27/03/2021, 15:31:06,-6.0593996,-3.558999,10.511742,3.7934718,1.8154908,3.5320215,12.64434696,5.491958797,crawl
27/03/2021, 15:31:07,-7.7622585,3.2476466,3.046465,1.8851295,3.2204804,-1.2021823,8.948788423,3.920516496,crawl
27/03/2021, 15:31:07,-7.1443434,3.4512234,1.9255958,1.8851295,3.2204804,-1.2021823,8.164588421,3.920516496,crawl
27/03/2021, 15:31:07,-7.1443434,3.4512234,1.9255958,1.8106039,3.2168152,-1.1398741,8.164588421,3.863353406,crawl
27/03/2021, 15:31:07,-7.2545147,3.4464333,1.3292359,1.8106039,3.2168152,-1.1398741,8.140807951,3.863353406,crawl
27/03/2021, 15:31:07,-7.2545147,3.4464333,1.3292359,1.6371182,3.1202984,-1.3158033,8.140807951,3.76135034,crawl
27/03/2021, 15:31:07,-7.326365,3.290757,1.0059083,1.6371182,3.1202984,-1.3158033,8.094229839,3.76135034,crawl
27/03/2021, 15:31:07,-7.326365,3.290757,1.0059083,1.3439031,2.9248216,-1.7055352,8.094229839,3.642733473,crawl
27/03/2021, 15:31:07,-8.157437,2.6656568,0.58677983,1.3439031,2.9248216,-1.7055352,8.601966082,3.642733473,crawl
27/03/2021, 15:31:07,-8.157437,2.6656568,0.58677983,1.1020005,2.7550013,-1.9449942,8.601966082,3.547878201,crawl
27/03/2021, 15:31:07,-8.514295,2.816543,0.20597169,1.1020005,2.7550013,-1.9449942,8.970426541,3.547878201,crawl
27/03/2021, 15:31:07,-8.514295,2.816543,0.20597169,1.0201446,2.6279414,-2.0060806,8.970426541,3.459932123,crawl
27/03/2021, 15:31:07,-8.435259,3.3985329,-0.2706372,1.0201446,2.6279414,-2.0060806,9.098179064,3.459932123,crawl
27/03/2021, 15:31:07,-8.435259,3.3985329,-0.2706372,1.1252134,2.434908,-1.9840896,9.098179064,3.336389261,crawl
27/03/2021, 15:31:07,-8.164622,4.1936793,-1.5208374,1.1252134,2.434908,-1.9840896,9.303813747,3.336389261,crawl
27/03/2021, 15:31:07,-8.164622,4.1936793,-1.5208374,1.2107345,2.1930053,-2.0170763,9.303813747,3.21616961,crawl
27/03/2021, 15:31:07,-7.680828,4.0667434,-2.2656887,1.2107345,2.1930053,-2.0170763,8.981473542,3.21616961,crawl
27/03/2021, 15:31:07,-7.680828,4.0667434,-2.2656887,1.1753043,1.9645419,-2.1258101,8.981473542,3.124073284,crawl
27/03/2021, 15:31:07,-6.837781,3.8631666,-3.420088,1.1753043,1.9645419,-2.1258101,8.565997116,3.124073284,crawl
27/03/2021, 15:31:07,-6.837781,3.8631666,-3.420088,0.9810492,1.8496993,-2.2565353,8.565997116,3.078278149,crawl
27/03/2021, 15:31:07,-6.588699,3.1973512,-3.1973512,0.9810492,1.8496993,-2.2565353,7.991061402,3.078278149,crawl
27/03/2021, 15:31:08,-1.2597803,-11.735597,1.3651612,2.5399768,-0.597426,-0.5619958,11.88170612,2.669127091,crawl
27/03/2021, 15:31:08,-2.196233,-11.548784,1.3771362,2.5399768,-0.597426,-0.5619958,11.8361464,2.669127091,crawl
27/03/2021, 15:31:08,-2.196233,-11.548784,1.3771362,2.6462672,-0.70249474,-0.36163208,11.8361464,2.761703566,crawl
27/03/2021, 15:31:08,-3.1925611,-11.479329,1.1400293,2.6462672,-0.70249474,-0.36163208,11.96942398,2.761703566,crawl
27/03/2021, 15:31:08,-3.1925611,-11.479329,1.1400293,2.8319702,-0.8185591,-0.067195155,11.96942398,2.948662324,crawl
27/03/2021, 15:31:08,-3.8200562,-11.302097,0.6706055,2.8319702,-0.8185591,-0.067195155,11.94905624,2.948662324,crawl
27/03/2021, 15:31:08,-3.8200562,-11.302097,0.6706055,2.932152,-0.9761623,0.21991141,11.94905624,3.098188089,crawl
27/03/2021, 15:31:08,-3.4536183,-10.7871685,0.3065625,2.932152,-0.9761623,0.21991141,11.33068684,3.098188089,crawl
27/03/2021, 15:31:08,-3.4536183,-10.7871685,0.3065625,2.9590302,-1.0470226,0.4276055,11.33068684,3.167800845,crawl
27/03/2021, 15:31:08,-2.4812403,-10.051897,0.117355965,2.9590302,-1.0470226,0.4276055,10.35427255,3.167800845,crawl
27/03/2021, 15:31:08,-2.4812403,-10.051897,0.117355965,2.915048,-0.9382887,0.53878295,10.35427255,3.109369213,crawl
27/03/2021, 15:31:08,-2.1363575,-9.793235,-0.09340577,2.915048,-0.9382887,0.53878295,10.02398107,3.109369213,crawl
27/03/2021, 15:31:08,-2.1363575,-9.793235,-0.09340577,2.7525578,-0.8210026,0.57054794,10.02398107,2.928505492,crawl
27/03/2021, 15:31:08,-1.6046631,-9.817185,-0.37601808,2.7525578,-0.8210026,0.57054794,9.954569935,2.928505492,crawl
27/03/2021, 15:31:08,-1.6046631,-9.817185,-0.37601808,2.5912893,-0.66950804,0.70493823,9.954569935,2.767663106,crawl
27/03/2021, 15:31:08,-2.0932472,-10.090218,-0.19639161,2.5912893,-0.66950804,0.70493823,10.30692701,2.767663106,crawl
27/03/2021, 15:31:08,-2.0932472,-10.090218,-0.19639161,2.8173094,-0.52290046,0.9053019,10.30692701,3.005033879,crawl
27/03/2021, 15:31:08,-2.335144,-10.365645,0.43589357,2.8173094,-0.52290046,0.9053019,10.63435497,3.005033879,crawl
27/03/2021, 15:31:08,-2.335144,-10.365645,0.43589357,3.2595756,-0.37751457,1.1166612,10.63435497,3.466162517,crawl
27/03/2021, 15:31:08,-2.2177882,-11.160791,-0.011975098,3.2595756,-0.37751457,1.1166612,11.37901545,3.466162517,crawl
27/03/2021, 15:31:09,-6.3947024,-4.8020144,7.067703,-0.5167918,2.883283,1.0482444,10.67258092,3.111142925,crawl
27/03/2021, 15:31:09,-6.3947024,-4.8020144,7.067703,-0.50701797,3.117855,1.1374307,10.67258092,3.357355506,crawl
27/03/2021, 15:31:09,-7.1874537,-2.9027638,7.2545147,-0.50701797,3.117855,1.1374307,10.61666203,3.357355506,crawl
27/03/2021, 15:31:09,-7.1874537,-2.9027638,7.2545147,-0.14660761,3.1581721,1.1924086,10.61666203,3.378961849,crawl
27/03/2021, 15:31:09,-7.7239385,-1.7124391,7.726333,-0.14660761,3.1581721,1.1924086,11.05838581,3.378961849,crawl
27/03/2021, 15:31:09,-7.7239385,-1.7124391,7.726333,0.10506878,3.076316,1.1459827,11.05838581,3.284514691,crawl
27/03/2021, 15:31:09,-8.5430355,-0.97956306,7.443721,0.10506878,3.076316,1.1459827,11.37330115,3.284514691,crawl
27/03/2021, 15:31:09,-8.5430355,-0.97956306,7.443721,-0.036651902,2.9516997,0.963945,11.37330115,3.105328419,crawl
27/03/2021, 15:31:09,-8.143066,0.11256592,6.715635,-0.036651902,2.9516997,0.963945,10.55565975,3.105328419,crawl
27/03/2021, 15:31:09,-8.143066,0.11256592,6.715635,-0.13194685,2.8637352,0.7892376,10.55565975,2.973429885,crawl
27/03/2021, 15:31:09,-6.7683253,-0.05748047,5.374424,-0.13194685,2.8637352,0.7892376,8.642798441,2.973429885,crawl
27/03/2021, 15:31:09,-6.7683253,-0.05748047,5.374424,-0.36285383,2.8551831,0.7684682,8.642798441,2.978972465,crawl
27/03/2021, 15:31:09,-6.368357,-0.21076173,5.5540504,-0.36285383,2.8551831,0.7684682,8.452684192,2.978972465,crawl
27/03/2021, 15:31:09,-6.368357,-0.21076173,5.5540504,-0.50335276,2.8454092,0.900415,8.452684192,3.026625917,crawl
27/03/2021, 15:31:09,-6.4833183,0.46942386,7.237749,-0.50335276,2.8454092,0.900415,9.728246879,3.026625917,crawl
27/03/2021, 15:31:09,-6.4833183,0.46942386,7.237749,-0.25411984,2.8906133,1.0433575,9.728246879,3.083636992,crawl
27/03/2021, 15:31:09,-6.303692,0.6658155,6.7491655,-0.25411984,2.8906133,1.0433575,9.259107774,3.083636992,crawl
27/03/2021, 15:31:09,-6.303692,0.6658155,6.7491655,-0.20036373,2.8539612,0.9920448,9.259107774,3.028100596,crawl
27/03/2021, 15:31:09,-6.8761015,1.341211,6.1599903,-0.20036373,2.8539612,0.9920448,9.328724416,3.028100596,crawl
27/03/2021, 15:31:09,-6.8761015,1.341211,6.1599903,-0.22602005,2.7452273,0.9602798,9.328724416,2.917103963,crawl
27/03/2021, 15:31:10,-5.621111,-6.231841,-3.1302907,2.3872604,-0.42027512,-3.2070413,8.957201093,4.020044432,crawl
27/03/2021, 15:31:10,-5.621111,-6.231841,-3.1302907,2.4581208,-0.49846584,-3.1691678,8.957201093,4.041590088,crawl
27/03/2021, 15:31:10,-5.400769,-6.6677346,-3.3338673,2.4581208,-0.49846584,-3.1691678,9.20552359,4.041590088,crawl
27/03/2021, 15:31:10,-5.400769,-6.6677346,-3.3338673,2.5179856,-0.55466545,-3.08609,9.20552359,4.02142477,crawl
27/03/2021, 15:31:10,-5.2019825,-6.7874856,-3.0943654,2.5179856,-0.55466545,-3.08609,9.094266306,4.02142477,crawl
27/03/2021, 15:31:10,-5.2019825,-6.7874856,-3.0943654,2.6169457,-0.5619958,-3.0127861,9.094266306,4.030027878,crawl
27/03/2021, 15:31:10,-4.8451247,-7.086863,-2.8740237,2.6169457,-0.5619958,-3.0127861,9.053114018,4.030027878,crawl
27/03/2021, 15:31:10,-4.8451247,-7.086863,-2.8740237,2.724458,-0.50701797,-2.9309304,9.053114018,4.033620132,crawl
27/03/2021, 15:31:10,-4.6032276,-7.436536,-2.579436,2.724458,-0.50701797,-2.9309304,9.118402279,4.033620132,crawl
27/03/2021, 15:31:10,-4.6032276,-7.436536,-2.579436,2.8942785,-0.45448357,-2.8209746,9.118402279,4.067099843,crawl
27/03/2021, 15:31:10,-4.4427614,-7.824529,-1.9950514,2.8942785,-0.45448357,-2.8209746,9.216377587,4.067099843,crawl
27/03/2021, 15:31:10,-4.4427614,-7.824529,-1.9950514,3.0665424,-0.44837493,-2.714684,9.216377587,4.119979558,crawl
27/03/2021, 15:31:10,-4.263135,-8.435259,-1.5352076,3.0665424,-0.44837493,-2.714684,9.575216668,4.119979558,crawl
27/03/2021, 15:31:10,-4.263135,-8.435259,-1.5352076,3.1887155,-0.46181396,-2.6230543,9.575216668,4.15470722,crawl
27/03/2021, 15:31:10,-4.2511597,-8.765772,-1.2310401,3.1887155,-0.46181396,-2.6230543,9.819703392,4.15470722,crawl
27/03/2021, 15:31:10,-4.2511597,-8.765772,-1.2310401,3.3328795,-0.48136163,-2.4898858,9.819703392,4.187997899,crawl
27/03/2021, 15:31:10,-4.287085,-8.677156,-1.0322535,3.3328795,-0.48136163,-2.4898858,9.733328804,4.187997899,crawl
27/03/2021, 15:31:10,-4.287085,-8.677156,-1.0322535,3.524691,-0.52167875,-2.2736397,9.733328804,4.226704803,crawl
27/03/2021, 15:31:10,-4.054768,-8.413704,-1.0011182,3.524691,-0.52167875,-2.2736397,9.393284594,4.226704803,crawl
27/03/2021, 15:31:10,-4.054768,-8.413704,-1.0011182,3.6480858,-0.55222195,-2.0268502,9.393284594,4.209703215,crawl
27/03/2021, 15:31:11,-4.711004,2.1411476,7.95865,2.0292935,0.48991373,1.9950851,9.49305964,2.887630925,crawl
27/03/2021, 15:31:11,-4.4834766,2.668052,7.8365045,2.0292935,0.48991373,1.9950851,9.41439675,2.887630925,crawl
27/03/2021, 15:31:11,-4.4834766,2.668052,7.8365045,2.1612403,0.60842156,1.9828678,9.41439675,2.995480172,crawl
27/03/2021, 15:31:11,-4.4355764,3.4847536,7.4748564,2.1612403,0.60842156,1.9828678,9.364364576,2.995480172,crawl
27/03/2021, 15:31:11,-4.4355764,3.4847536,7.4748564,2.167349,0.7147121,1.9315552,9.364364576,2.989836248,crawl
27/03/2021, 15:31:11,-4.404441,4.071533,6.945557,2.167349,0.7147121,1.9315552,9.176995465,2.989836248,crawl
27/03/2021, 15:31:11,-4.404441,4.071533,6.945557,2.0573933,0.8136722,1.8093822,9.176995465,2.858110147,crawl
27/03/2021, 15:31:11,-4.4571314,4.119434,6.2797413,2.0573933,0.8136722,1.8093822,8.733321608,2.858110147,crawl
27/03/2021, 15:31:11,-4.4571314,4.119434,6.2797413,1.8472558,0.8723152,1.6688832,8.733321608,2.637889136,crawl
27/03/2021, 15:31:11,-4.404441,3.9853127,6.0306597,1.8472558,0.8723152,1.6688832,8.46467205,2.637889136,crawl
27/03/2021, 15:31:11,-4.404441,3.9853127,6.0306597,1.6444486,0.9040802,1.5845839,8.46467205,2.456110425,crawl
27/03/2021, 15:31:11,-4.2511597,3.9757326,6.1456203,1.6444486,0.9040802,1.5845839,8.46448211,2.456110425,crawl
27/03/2021, 15:31:11,-4.2511597,3.9757326,6.1456203,1.5735883,0.93218,1.5625927,8.46448211,2.405584254,crawl
27/03/2021, 15:31:11,-4.148174,4.258345,6.4426026,1.5735883,0.93218,1.5625927,8.766297843,2.405584254,crawl
27/03/2021, 15:31:11,-4.148174,4.258345,6.4426026,1.6407834,0.9920448,1.5760317,8.766297843,2.481974825,crawl
27/03/2021, 15:31:11,-3.9853127,4.3445654,6.478528,1.6407834,0.9920448,1.5760317,8.759525735,2.481974825,crawl
27/03/2021, 15:31:11,-3.9853127,4.3445654,6.478528,1.6762136,1.0885614,1.6249009,8.759525735,2.575841827,crawl
27/03/2021, 15:31:11,-3.9972878,4.550537,6.1144853,1.6762136,1.0885614,1.6249009,8.606545613,2.575841827,crawl
27/03/2021, 15:31:11,-3.9972878,4.550537,6.1144853,1.5528189,1.2156214,1.665218,8.606545613,2.581072018,crawl
27/03/2021, 15:31:11,-4.0906935,5.0534916,6.047425,1.5528189,1.2156214,1.665218,8.879352285,2.581072018,crawl
27/03/2021, 15:31:12,-8.145462,-2.1052222,-2.208208,3.6419773,1.92789,-4.2161903,8.698085729,5.895508403,crawl
27/03/2021, 15:31:12,-8.56459,-1.5040723,-2.572251,3.6419773,1.92789,-4.2161903,9.068126531,5.895508403,crawl
27/03/2021, 15:31:12,-8.56459,-1.5040723,-2.572251,3.850893,2.1783447,-3.8154628,9.068126531,5.842287171,crawl
27/03/2021, 15:31:12,-8.842413,-0.86939216,-3.7050953,3.850893,2.1783447,-3.8154628,9.626621453,5.842287171,crawl
27/03/2021, 15:31:12,-8.842413,-0.86939216,-3.7050953,3.5136955,2.2711961,-3.5869994,9.626621453,5.510984719,crawl
27/03/2021, 15:31:12,-8.957374,-0.7448511,-4.9313455,3.5136955,2.2711961,-3.5869994,10.25219554,5.510984719,crawl
27/03/2021, 15:31:12,-8.957374,-0.7448511,-4.9313455,2.6670365,2.2027793,-3.5356867,10.25219554,4.946352307,crawl
27/03/2021, 15:31:12,-9.3309965,-1.346001,-4.2751102,2.6670365,2.2027793,-3.5356867,10.35160772,4.946352307,crawl
27/03/2021, 15:31:12,-9.3309965,-1.346001,-4.2751102,1.7934997,2.0793846,-3.470935,10.35160772,4.425818781,crawl
27/03/2021, 15:31:12,-9.307046,-1.0442286,-3.2404616,1.7934997,2.0793846,-3.470935,9.91020225,4.425818781,crawl
27/03/2021, 15:31:12,-9.307046,-1.0442286,-3.2404616,1.091005,1.846034,-3.3866355,9.91020225,4.008420368,crawl
27/03/2021, 15:31:12,-9.72378,-0.9364527,-2.43813,1.091005,1.846034,-3.3866355,10.06843147,4.008420368,crawl
27/03/2021, 15:31:12,-9.72378,-0.9364527,-2.43813,0.6059781,1.6224575,-3.2107065,10.06843147,3.648042465,crawl
27/03/2021, 15:31:12,-10.032737,-0.61552006,-1.839375,0.6059781,1.6224575,-3.2107065,10.21851127,3.648042465,crawl
27/03/2021, 15:31:12,-10.032737,-0.61552006,-1.839375,0.443488,1.3023642,-3.035999,10.21851127,3.333185336,crawl
27/03/2021, 15:31:12,-10.092612,-0.8646021,-1.1999048,0.443488,1.3023642,-3.035999,10.20039855,3.333185336,crawl
27/03/2021, 15:31:12,-10.092612,-0.8646021,-1.1999048,0.40439263,0.7489205,-3.014008,10.20039855,3.131878001,crawl
27/03/2021, 15:31:12,-10.269844,-1.6597486,-1.2837305,0.40439263,0.7489205,-3.014008,10.48200487,3.131878001,crawl
27/03/2021, 15:31:12,-10.269844,-1.6597486,-1.2837305,0.03909536,-0.010995571,-3.1239636,10.48200487,3.124227567,crawl
27/03/2021, 15:31:12,-10.471025,-2.7375073,-1.8824854,0.03909536,-0.010995571,-3.1239636,10.98544819,3.124227567,crawl
27/03/2021, 15:31:13,-2.2608986,-5.479805,9.376502,4.2076383,1.3817767,2.2394311,11.0931833,4.962718854,crawl
27/03/2021, 15:31:13,-2.2608986,-5.479805,9.376502,4.471532,1.6737702,2.0842714,11.0931833,5.209634468,crawl
27/03/2021, 15:31:13,-1.6693287,-3.66438,8.583751,4.471532,1.6737702,2.0842714,9.481303502,5.209634468,crawl
27/03/2021, 15:31:13,-1.6693287,-3.66438,8.583751,4.742756,2.0977104,2.018298,9.481303502,5.564858371,crawl
27/03/2021, 15:31:13,-2.6704469,-1.8441651,8.143066,4.742756,2.0977104,2.018298,8.765943296,5.564858371,crawl
27/03/2021, 15:31:13,-2.6704469,-1.8441651,8.143066,5.1618094,2.5314245,2.1331406,8.765943296,6.132102047,crawl
27/03/2021, 15:31:13,-4.267925,0.22273682,8.665181,5.1618094,2.5314245,2.1331406,9.661788561,6.132102047,crawl
27/03/2021, 15:31:13,-4.267925,0.22273682,8.665181,5.6944838,2.9236,2.5130987,9.661788561,6.876790468,crawl
27/03/2021, 15:31:13,-6.6102543,2.0621119,8.722662,5.6944838,2.9236,2.5130987,11.13699236,6.876790468,crawl
27/03/2021, 15:31:13,-6.6102543,2.0621119,8.722662,6.0976543,3.2094848,3.0628772,11.13699236,7.540782312,crawl
27/03/2021, 15:31:13,-8.490345,2.555486,8.638836,6.0976543,3.2094848,3.0628772,12.37925493,7.540782312,crawl
27/03/2021, 15:31:13,-8.490345,2.555486,8.638836,5.9901423,3.3634229,3.353649,12.37925493,7.644696179,crawl
27/03/2021, 15:31:13,-8.799302,1.0346485,8.341853,5.9901423,3.3634229,3.353649,12.1690069,7.644696179,crawl
27/03/2021, 15:31:13,-8.799302,1.0346485,8.341853,5.5723104,3.2559104,3.0946422,12.1690069,7.157402207,crawl
27/03/2021, 15:31:13,-9.417217,-0.68976563,8.023315,5.5723104,3.2559104,3.0946422,12.39085743,7.157402207,crawl
27/03/2021, 15:31:13,-9.417217,-0.68976563,8.023315,5.2790956,2.9541433,2.6181674,12.39085743,6.59170797,crawl
27/03/2021, 15:31:13,-9.649534,-1.8274,8.164622,5.2790956,2.9541433,2.6181674,12.77160753,6.59170797,crawl
27/03/2021, 15:31:13,-9.649534,-1.8274,8.164622,5.390273,2.7366753,2.326174,12.77160753,6.477308168,crawl
27/03/2021, 15:31:13,-8.971744,-1.7675245,7.3096,5.390273,2.7366753,2.326174,11.70668937,6.477308168,crawl
27/03/2021, 15:31:13,-8.971744,-1.7675245,7.3096,5.766566,2.6670365,2.2687526,11.70668937,6.746377045,crawl
27/03/2021, 15:31:14,-9.74294,-0.19160157,1.9232007,-0.14294241,2.4043646,-0.20158546,9.932788684,2.417030884,crawl
27/03/2021, 15:31:14,-10.174044,-1.2406201,1.7339942,-0.14294241,2.4043646,-0.20158546,10.39504876,2.417030884,crawl
27/03/2021, 15:31:14,-10.174044,-1.2406201,1.7339942,-0.11972954,2.4678946,-0.18081604,10.39504876,2.477404516,crawl
27/03/2021, 15:31:14,-10.461446,-1.4801221,0.9867481,-0.11972954,2.4678946,-0.18081604,10.6116107,2.477404516,crawl
27/03/2021, 15:31:14,-10.461446,-1.4801221,0.9867481,0.00977384,2.5741851,-0.04642574,10.6116107,2.574622298,crawl
27/03/2021, 15:31:14,-11.105706,-1.6381935,0.9627979,0.00977384,2.5741851,-0.04642574,11.26709227,2.574622298,crawl
27/03/2021, 15:31:14,-11.105706,-1.6381935,0.9627979,0.31154117,2.5460854,0.08185591,11.26709227,2.566380513,crawl
27/03/2021, 15:31:14,-11.239827,-1.2334352,0.4981641,0.31154117,2.5460854,0.08185591,11.31827037,2.566380513,crawl
27/03/2021, 15:31:14,-11.239827,-1.2334352,0.4981641,0.65362555,2.3616042,0.15149452,11.31827037,2.455066477,crawl
27/03/2021, 15:31:14,-10.813514,-1.1064991,0.4622388,0.65362555,2.3616042,0.15149452,10.87980168,2.455066477,crawl
27/03/2021, 15:31:14,-10.813514,-1.1064991,0.4622388,1.0054839,2.127032,0.2565633,10.87980168,2.36666175,crawl
27/03/2021, 15:31:14,-10.047108,-0.8933423,0.51732427,1.0054839,2.127032,0.2565633,10.10000287,2.36666175,crawl
27/03/2021, 15:31:14,-10.047108,-0.8933423,0.51732427,1.407433,2.0085242,0.38606668,10.10000287,2.482757459,crawl
27/03/2021, 15:31:14,-8.842413,-1.4346168,1.1951149,1.407433,2.0085242,0.38606668,9.037405138,2.482757459,crawl
27/03/2021, 15:31:14,-8.842413,-1.4346168,1.1951149,1.9437724,2.0891583,0.43004897,9.037405138,2.88578859,crawl
27/03/2021, 15:31:14,-7.486831,-2.5842261,2.186653,1.9437724,2.0891583,0.43004897,8.216587907,2.88578859,crawl
27/03/2021, 15:31:14,-7.486831,-2.5842261,2.186653,2.6071718,2.3139567,0.31031942,8.216587907,3.499719787,crawl
27/03/2021, 15:31:14,-6.710845,-3.9972878,2.3686745,2.6071718,2.3139567,0.31031942,8.162375197,3.499719787,crawl
27/03/2021, 15:31:14,-6.710845,-3.9972878,2.3686745,3.1972675,2.6438239,0.07086034,8.162375197,4.149378926,crawl
27/03/2021, 15:31:14,-6.6581545,-4.9289503,1.3172607,3.1972675,2.6438239,0.07086034,8.388131389,4.149378926,crawl
27/03/2021, 15:31:15,5.4606447,-8.262817,1.477727,3.0836465,0.19425507,-0.42394033,10.01381392,3.118707488,crawl
27/03/2021, 15:31:15,5.4606447,-8.262817,1.477727,3.3915226,0.16126837,-0.17592913,10.01381392,3.39990947,crawl
27/03/2021, 15:31:15,4.9241605,-7.8987746,0.70174074,3.3915226,0.16126837,-0.17592913,9.334368595,3.39990947,crawl
27/03/2021, 15:31:15,4.9241605,-7.8987746,0.70174074,3.236363,0.27122405,0.11117743,9.334368595,3.24961043,crawl
27/03/2021, 15:31:15,4.8211746,-7.0341725,1.1951149,3.236363,0.27122405,0.11117743,8.611132765,3.24961043,crawl
27/03/2021, 15:31:15,4.8211746,-7.0341725,1.1951149,3.005456,0.5485568,0.44959664,8.611132765,3.088011869,crawl
27/03/2021, 15:31:15,5.144502,-5.743257,2.7063723,3.005456,0.5485568,0.44959664,8.171618861,3.088011869,crawl
27/03/2021, 15:31:15,5.144502,-5.743257,2.7063723,3.018895,0.7440336,0.7476988,8.171618861,3.197868965,crawl
27/03/2021, 15:31:15,4.054768,-7.0269876,3.8176613,3.018895,0.7440336,0.7476988,8.966283287,3.197868965,crawl
27/03/2021, 15:31:15,4.054768,-7.0269876,3.8176613,3.4318397,0.57176965,1.22173,8.966283287,3.687420301,crawl
27/03/2021, 15:31:15,1.9854712,-9.841136,5.50136,3.4318397,0.57176965,1.22173,11.44792621,3.687420301,crawl
27/03/2021, 15:31:15,1.9854712,-9.841136,5.50136,4.031709,0.15271625,1.8081604,11.44792621,4.421249303,crawl
27/03/2021, 15:31:15,0.35925296,-12.887601,4.631968,4.031709,0.15271625,1.8081604,13.69943237,4.421249303,crawl
27/03/2021, 15:31:15,0.35925296,-12.887601,4.631968,4.4898577,-0.4508184,2.0598369,13.69943237,4.960341426,crawl
27/03/2021, 15:31:15,0.6706055,-13.191768,3.642825,4.4898577,-0.4508184,2.0598369,13.70192029,4.960341426,crawl
27/03/2021, 15:31:15,0.6706055,-13.191768,3.642825,4.5851526,-0.80756354,1.9034554,13.70192029,5.029803759,crawl
27/03/2021, 15:31:15,-0.41912845,-13.713882,5.609136,4.5851526,-0.80756354,1.9034554,14.82257225,5.029803759,crawl
27/03/2021, 15:31:15,-0.41912845,-13.713882,5.609136,4.834386,-0.67072976,1.7263045,14.82257225,5.176996475,crawl
27/03/2021, 15:31:15,-2.4620802,-14.180911,6.006709,4.834386,-0.67072976,1.7263045,15.59617363,5.176996475,crawl
27/03/2021, 15:31:15,-2.4620802,-14.180911,6.006709,5.8752995,-0.6951644,1.9474376,15.59617363,6.228556058,crawl
27/03/2021, 15:31:16,-12.20502,-0.56522465,1.6070582,0.69027746,4.118452,1.6456703,12.32333668,4.488469801,crawl
27/03/2021, 15:31:16,-11.211087,0.15088624,2.3375392,0.69027746,4.118452,1.6456703,11.45318004,4.488469801,crawl
27/03/2021, 15:31:16,-11.211087,0.15088624,2.3375392,0.95783633,4.185647,1.4538587,11.45318004,4.533298639,crawl
27/03/2021, 15:31:16,-10.109378,0.88376224,2.440525,0.95783633,4.185647,1.4538587,10.43727546,4.533298639,crawl
27/03/2021, 15:31:16,-10.109378,0.88376224,2.440525,1.2449429,4.312707,1.1386523,10.43727546,4.630966763,crawl
27/03/2021, 15:31:16,-9.398057,1.3268409,0.45744875,1.2449429,4.312707,1.1386523,9.502275577,4.630966763,crawl
27/03/2021, 15:31:16,-9.398057,1.3268409,0.45744875,1.0152576,4.243068,0.63652134,9.502275577,4.40902884,crawl
27/03/2021, 15:31:16,-10.514136,1.4801221,0.28979737,1.0152576,4.243068,0.63652134,10.62176098,4.40902884,crawl
27/03/2021, 15:31:16,-10.514136,1.4801221,0.28979737,0.49113548,4.249177,0.24556774,10.62176098,4.284509607,crawl
27/03/2021, 15:31:16,-10.260264,2.7183473,0.72569096,0.49113548,4.249177,0.24556774,10.63903496,4.284509607,crawl
27/03/2021, 15:31:16,-10.260264,2.7183473,0.72569096,-0.14538588,4.202751,-0.2076941,10.63903496,4.210390861,crawl
27/03/2021, 15:31:16,-11.096126,2.8524685,-0.57719976,-0.14538588,4.202751,-0.2076941,11.47143145,4.210390861,crawl
27/03/2021, 15:31:16,-11.096126,2.8524685,-0.57719976,-0.7171555,4.076913,-0.5803218,11.47143145,4.179988522,crawl
27/03/2021, 15:31:16,-12.399016,4.3278003,-0.17483643,-0.7171555,4.076913,-0.5803218,13.13377441,4.179988522,crawl
27/03/2021, 15:31:16,-12.399016,4.3278003,-0.17483643,-0.9016368,4.004831,-0.82466775,13.13377441,4.187086794,crawl
27/03/2021, 15:31:16,-12.789405,3.0776002,0.7209009,-0.9016368,4.004831,-0.82466775,13.17422477,4.187086794,crawl
27/03/2021, 15:31:16,-12.789405,3.0776002,0.7209009,-0.9969317,4.0109396,-0.97494054,13.17422477,4.2464124,crawl
27/03/2021, 15:31:16,-11.867322,0.5245093,0.29698244,-0.9969317,4.0109396,-0.97494054,11.88261921,4.2464124,crawl
27/03/2021, 15:31:16,-11.867322,0.5245093,0.29698244,-1.357342,3.89121,-1.1545348,11.88261921,4.279818202,crawl
27/03/2021, 15:31:16,-10.8997345,-2.1004322,0.54366946,-1.357342,3.89121,-1.1545348,11.11357745,4.279818202,crawl
27/03/2021, 15:31:17,0.45505372,-10.4494705,-3.1278956,2.8637352,-0.067195155,-1.8912381,10.91706182,3.432532011,crawl
27/03/2021, 15:31:17,1.1999048,-10.782378,-2.816543,2.8637352,-0.067195155,-1.8912381,11.20858448,3.432532011,crawl
27/03/2021, 15:31:17,1.1999048,-10.782378,-2.816543,3.4196224,-0.054977853,-1.8093822,11.20858448,3.869199402,crawl
27/03/2021, 15:31:17,1.3723463,-11.407478,-3.06323,3.4196224,-0.054977853,-1.8093822,11.89105859,3.869199402,crawl
27/03/2021, 15:31:17,1.3723463,-11.407478,-3.06323,3.8667755,-0.08307764,-1.6994264,11.89105859,4.224559728,crawl
27/03/2021, 15:31:17,1.5519727,-11.690091,-3.2859669,3.8667755,-0.08307764,-1.6994264,12.24191278,4.224559728,crawl
27/03/2021, 15:31:17,1.5519727,-11.690091,-3.2859669,4.1123433,-0.09285148,-1.5662578,12.24191278,4.40149435,crawl
27/03/2021, 15:31:17,1.8681153,-11.366763,-2.9602442,4.1123433,-0.09285148,-1.5662578,11.89353623,4.40149435,crawl
27/03/2021, 15:31:17,1.8681153,-11.366763,-2.9602442,4.150217,0.025656331,-1.4159851,11.89353623,4.38519939,crawl
27/03/2021, 15:31:17,2.327959,-10.962005,-2.6249416,4.150217,0.025656331,-1.4159851,11.50978966,4.38519939,crawl
27/03/2021, 15:31:17,2.327959,-10.962005,-2.6249416,4.069583,0.22602005,-1.1960737,11.50978966,4.24772675,crawl
27/03/2021, 15:31:17,2.0094216,-10.609937,-2.4668703,4.069583,0.22602005,-1.1960737,11.07673153,4.24772675,crawl
27/03/2021, 15:31:17,2.0094216,-10.609937,-2.4668703,3.927862,0.321315,-0.94684076,11.07673153,4.053128432,crawl
27/03/2021, 15:31:17,1.4897022,-10.341695,-2.0573218,3.927862,0.321315,-0.94684076,10.64905806,4.053128432,crawl
27/03/2021, 15:31:17,1.4897022,-10.341695,-2.0573218,3.651751,0.35674515,-0.71837723,10.64905806,3.738799088,crawl
27/03/2021, 15:31:17,1.6597486,-10.212363,-1.477727,3.651751,0.35674515,-0.71837723,10.45135424,3.738799088,crawl
27/03/2021, 15:31:17,1.6597486,-10.212363,-1.477727,3.393966,0.33475402,-0.5986477,10.45135424,3.462577692,crawl
27/03/2021, 15:31:17,1.7124391,-10.468631,-0.8095166,3.393966,0.33475402,-0.5986477,10.63860871,3.462577692,crawl
27/03/2021, 15:31:17,1.7124391,-10.468631,-0.8095166,3.2253673,0.24068081,-0.49357894,10.63860871,3.271779591,crawl
27/03/2021, 15:31:17,2.0501368,-10.827884,-0.4023633,3.2253673,0.24068081,-0.49357894,11.02760278,3.271779591,crawl
27/03/2021, 15:31:18,-9.438772,4.27032,3.297942,-1.9596549,2.2088878,0.45326185,10.87209612,2.987453618,crawl
27/03/2021, 15:31:18,-9.589659,4.893025,3.1015503,-1.9596549,2.2088878,0.45326185,11.20369859,2.987453618,crawl
27/03/2021, 15:31:18,-9.589659,4.893025,3.1015503,-1.6310096,2.2834134,0.3494148,11.20369859,2.827765858,crawl
27/03/2021, 15:31:18,-8.844808,3.3314724,1.5687379,-1.6310096,2.2834134,0.3494148,9.580723811,2.827765858,crawl
27/03/2021, 15:31:18,-8.844808,3.3314724,1.5687379,-1.9107858,2.602285,-0.025656331,9.580723811,3.228567382,crawl
27/03/2021, 15:31:18,-7.6353226,0.8646021,1.1807446,-1.9107858,2.602285,-0.025656331,7.774306751,3.228567382,crawl
27/03/2021, 15:31:18,-7.6353226,0.8646021,1.1807446,-2.4874423,3.1007507,-0.31031942,7.774306751,3.987269984,crawl
27/03/2021, 15:31:18,-6.8018556,-0.59156984,1.8848804,-2.4874423,3.1007507,-0.31031942,7.082934999,3.987269984,crawl
27/03/2021, 15:31:18,-6.8018556,-0.59156984,1.8848804,-2.276083,3.6822944,-0.22357659,7.082934999,4.334723993,crawl
27/03/2021, 15:31:18,-7.4916215,-0.7161109,4.758904,-2.276083,3.6822944,-0.22357659,8.904177363,4.334723993,crawl
27/03/2021, 15:31:18,-7.4916215,-0.7161109,4.758904,-1.0372488,4.2479553,-0.00610865,8.904177363,4.372761932,crawl
27/03/2021, 15:31:18,-9.0004835,-2.6464968,5.0774417,-1.0372488,4.2479553,-0.00610865,10.66738313,4.372761932,crawl
27/03/2021, 15:31:18,-9.0004835,-2.6464968,5.0774417,-0.24678947,4.756195,0.00488692,10.66738313,4.762595978,crawl
27/03/2021, 15:31:18,-11.184742,-4.7636943,4.1098537,-0.24678947,4.756195,0.00488692,12.8328537,4.762595978,crawl
27/03/2021, 15:31:18,-11.184742,-4.7636943,4.1098537,-0.30787596,5.0469666,-0.21013756,12.8328537,5.060713071,crawl
27/03/2021, 15:31:18,-12.78222,-4.0523734,3.0871804,-0.30787596,5.0469666,-0.21013756,13.75999848,5.060713071,crawl
27/03/2021, 15:31:18,-12.78222,-4.0523734,3.0871804,-0.09162975,4.996876,-0.4031709,13.75999848,5.013951554,crawl
27/03/2021, 15:31:18,-12.937896,-1.8944606,2.802173,-0.09162975,4.996876,-0.4031709,13.3727447,5.013951554,crawl
27/03/2021, 15:31:18,-12.937896,-1.8944606,2.802173,0.18936816,4.7207646,-0.4263838,13.3727447,4.743762452,crawl
27/03/2021, 15:31:18,-12.7918,0.16765137,3.1973512,0.18936816,4.7207646,-0.4263838,13.18640578,4.743762452,crawl
27/03/2021, 15:31:19,-7.110813,-3.302732,-5.0630717,1.8387036,-1.0164794,-1.5833621,9.333080812,2.630797771,crawl
27/03/2021, 15:31:19,-6.8808913,-3.0704153,-5.264253,1.8387036,-1.0164794,-1.5833621,9.191652538,2.630797771,crawl
27/03/2021, 15:31:19,-6.8808913,-3.0704153,-5.264253,1.8106039,-1.0018187,-1.5760317,9.191652538,2.601115688,crawl
27/03/2021, 15:31:19,-6.950347,-2.7183473,-5.5516553,1.8106039,-1.0018187,-1.5760317,9.301484358,2.601115688,crawl
27/03/2021, 15:31:19,-6.950347,-2.7183473,-5.5516553,1.8020518,-0.9676102,-1.5271626,9.301484358,2.552623268,crawl
27/03/2021, 15:31:19,-6.835386,-2.8716285,-5.815108,1.8020518,-0.9676102,-1.5271626,9.42253832,2.552623268,crawl
27/03/2021, 15:31:19,-6.835386,-2.8716285,-5.815108,1.8655818,-0.8906412,-1.4550805,9.42253832,2.528022216,crawl
27/03/2021, 15:31:19,-6.5048733,-3.180586,-5.6618266,1.8655818,-0.8906412,-1.4550805,9.19161492,2.528022216,crawl
27/03/2021, 15:31:19,-6.5048733,-3.180586,-5.6618266,2.0073025,-0.79534626,-1.4282024,9.19161492,2.588745094,crawl
27/03/2021, 15:31:19,-6.133645,-4.030818,-5.8438478,2.0073025,-0.79534626,-1.4282024,9.381878909,2.588745094,crawl
27/03/2021, 15:31:19,-6.133645,-4.030818,-5.8438478,2.0525064,-0.6450735,-1.4416414,9.381878909,2.589832537,crawl
27/03/2021, 15:31:19,-5.716912,-4.8331494,-6.0426345,2.0525064,-0.6450735,-1.4416414,9.620594859,2.589832537,crawl
27/03/2021, 15:31:19,-5.716912,-4.8331494,-6.0426345,1.877799,-0.35430172,-1.4330894,9.620594859,2.388598769,crawl
27/03/2021, 15:31:19,-5.484595,-5.2115626,-5.934859,1.877799,-0.35430172,-1.4330894,9.615805448,2.388598769,crawl
27/03/2021, 15:31:19,-5.484595,-5.2115626,-5.934859,1.6884309,0.047647472,-1.402546,9.615805448,2.195496441,crawl
27/03/2021, 15:31:19,-5.46304,-5.1397123,-5.2834134,1.6884309,0.047647472,-1.402546,9.174742765,2.195496441,crawl
27/03/2021, 15:31:19,-5.46304,-5.1397123,-5.2834134,1.6933178,0.42516205,-1.3866636,9.174742765,2.22955683,crawl
27/03/2021, 15:31:19,-5.5612354,-5.0487013,-4.761299,1.6933178,0.42516205,-1.3866636,8.893069976,2.22955683,crawl
27/03/2021, 15:31:19,-5.5612354,-5.0487013,-4.761299,1.7458522,0.6633994,-1.4318676,8.893069976,2.353368564,crawl
27/03/2021, 15:31:19,-5.719307,-5.271438,-4.6750784,1.7458522,0.6633994,-1.4318676,9.074959492,2.353368564,crawl
27/03/2021, 15:31:20,-6.8425713,4.152964,-0.16286133,-1.3206902,1.5638144,0.23457217,8.005898837,2.060282037,crawl
27/03/2021, 15:31:20,-6.318062,4.2056546,0.55324954,-1.3206902,1.5638144,0.23457217,7.609961965,2.060282037,crawl
27/03/2021, 15:31:20,-6.318062,4.2056546,0.55324954,-1.4465283,1.63834,0.0977384,7.609961965,2.187728252,crawl
27/03/2021, 15:31:20,-6.569539,5.225933,1.7699195,-1.4465283,1.63834,0.0977384,8.579151193,2.187728252,crawl
27/03/2021, 15:31:20,-6.569539,5.225933,1.7699195,-1.1533132,1.8448124,0.14660761,8.579151193,2.180586573,crawl
27/03/2021, 15:31:20,-6.5216384,6.468948,2.6033864,-1.1533132,1.8448124,0.14660761,9.547600477,2.180586573,crawl
27/03/2021, 15:31:20,-6.5216384,6.468948,2.6033864,-0.82833296,2.0818279,0.22724178,9.547600477,2.252061642,crawl
27/03/2021, 15:31:20,-6.933582,6.964717,2.1579127,-0.82833296,2.0818279,0.22724178,10.06173077,2.252061642,crawl
27/03/2021, 15:31:20,-6.933582,6.964717,2.1579127,-0.7867941,2.0622802,0.25167638,10.06173077,2.22157276,crawl
27/03/2021, 15:31:20,-7.5203614,7.3790555,1.2478052,-0.7867941,2.0622802,0.25167638,10.60958594,2.22157276,crawl
27/03/2021, 15:31:20,-7.5203614,7.3790555,1.2478052,-1.1814129,1.9156727,0.15638144,10.60958594,2.256101376,crawl
27/03/2021, 15:31:20,-7.3742657,7.074888,0.1939966,-1.1814129,1.9156727,0.15638144,10.22112872,2.256101376,crawl
27/03/2021, 15:31:20,-7.3742657,7.074888,0.1939966,-1.8142691,1.7165307,0.11117743,10.22112872,2.500082047,crawl
27/03/2021, 15:31:20,-6.9311867,7.577842,1.3124708,-1.8142691,1.7165307,0.11117743,10.35314548,2.500082047,crawl
27/03/2021, 15:31:20,-6.9311867,7.577842,1.3124708,-2.0818279,1.6224575,0.19181162,10.35314548,2.64634982,crawl
27/03/2021, 15:31:20,-6.595884,8.234077,3.1135256,-2.0818279,1.6224575,0.19181162,10.99998896,2.64634982,crawl
27/03/2021, 15:31:20,-6.595884,8.234077,3.1135256,-2.0525064,1.6187923,0.42149687,10.99998896,2.647816236,crawl
27/03/2021, 15:31:20,-6.6653395,8.447234,4.2918754,-2.0525064,1.6187923,0.42149687,11.5845893,2.647816236,crawl
27/03/2021, 15:31:20,-6.6653395,8.447234,4.2918754,-2.0011938,1.6200141,0.79168105,11.5845893,2.693692809,crawl
27/03/2021, 15:31:20,-6.7491655,8.713081,5.120552,-2.0011938,1.6200141,0.79168105,12.15273943,2.693692809,crawl
27/03/2021, 15:31:21,-6.8186207,0.6730005,-3.9637575,0.73792493,1.091005,-2.0732758,7.915673776,2.456277185,crawl
27/03/2021, 15:31:21,-6.9886675,1.0585986,-3.5661843,0.73792493,1.091005,-2.0732758,7.917055935,2.456277185,crawl
27/03/2021, 15:31:21,-6.9886675,1.0585986,-3.5661843,0.92973655,1.009149,-2.0476196,7.917055935,2.464860569,crawl
27/03/2021, 15:31:21,-7.359895,0.8143067,-3.422483,0.92973655,1.009149,-2.0476196,8.157483853,2.464860569,crawl
27/03/2021, 15:31:21,-7.359895,0.8143067,-3.422483,1.0763441,0.89308465,-2.076941,8.157483853,2.503957038,crawl
27/03/2021, 15:31:21,-7.7335186,0.4981641,-3.422483,1.0763441,0.89308465,-2.076941,8.471650787,2.503957038,crawl
27/03/2021, 15:31:21,-7.7335186,0.4981641,-3.422483,1.1533132,0.7831289,-2.1148148,8.471650787,2.532955508,crawl
27/03/2021, 15:31:21,-8.150251,0.26584718,-3.5039136,1.1533132,0.7831289,-2.1148148,8.875510308,2.532955508,crawl
27/03/2021, 15:31:21,-8.150251,0.26584718,-3.5039136,1.189965,0.6633994,-2.1233668,8.875510308,2.522855959,crawl
27/03/2021, 15:31:21,-8.473579,0.14370118,-3.5566041,1.189965,0.6633994,-2.1233668,9.190844958,2.522855959,crawl
27/03/2021, 15:31:21,-8.473579,0.14370118,-3.5566041,1.2070693,0.5290091,-2.1258101,9.190844958,2.501186849,crawl
27/03/2021, 15:31:21,-8.5598,-0.047900394,-3.894302,1.2070693,0.5290091,-2.1258101,9.404151224,2.501186849,crawl
27/03/2021, 15:31:21,-8.5598,-0.047900394,-3.894302,1.1325437,0.38728842,-2.1074843,9.404151224,2.423662056,crawl
27/03/2021, 15:31:21,-8.775352,-0.37122804,-4.385281,1.1325437,0.38728842,-2.1074843,9.817091975,2.423662056,crawl
27/03/2021, 15:31:21,-8.775352,-0.37122804,-4.385281,0.9529494,0.23701562,-2.1062624,9.817091975,2.323925657,crawl
27/03/2021, 15:31:21,-8.808882,-0.40954837,-4.5313773,0.9529494,0.23701562,-2.1062624,9.914509978,2.323925657,crawl
27/03/2021, 15:31:21,-8.808882,-0.40954837,-4.5313773,0.77091163,0.03176498,-2.131919,9.914509978,2.267243257,crawl
27/03/2021, 15:31:21,-8.950189,-0.38080812,-4.5625124,0.77091163,0.03176498,-2.131919,10.05322888,2.267243257,crawl
27/03/2021, 15:31:21,-8.950189,-0.38080812,-4.5625124,0.61941713,-0.18814643,-2.2076662,10.05322888,2.300623074,crawl
27/03/2021, 15:31:21,-8.859178,-0.3520679,-4.7062135,0.61941713,-0.18814643,-2.2076662,10.03779979,2.300623074,crawl
27/03/2021, 15:31:22,0.33530274,-7.472461,8.140672,1.2620472,0.10018186,0.73914665,11.05534445,1.465993601,crawl
27/03/2021, 15:31:22,0.33530274,-7.472461,8.140672,1.330464,0.19792026,0.78801584,11.05534445,1.558934209,crawl
27/03/2021, 15:31:22,0.24668702,-7.448511,8.049661,1.330464,0.19792026,0.78801584,10.96987737,1.558934209,crawl
27/03/2021, 15:31:22,0.24668702,-7.448511,8.049661,1.3695594,0.29810214,0.7696899,10.96987737,1.599056104,crawl
27/03/2021, 15:31:22,-0.4981641,-7.6305327,8.274793,1.3695594,0.29810214,0.7696899,11.26700453,1.599056104,crawl
27/03/2021, 15:31:22,-0.4981641,-7.6305327,8.274793,1.2962556,0.38728842,0.77824205,11.26700453,1.560747117,crawl
27/03/2021, 15:31:22,-1.2334352,-8.025711,8.267608,1.2962556,0.38728842,0.77824205,11.58821544,1.560747117,crawl
27/03/2021, 15:31:22,-1.2334352,-8.025711,8.267608,1.194852,0.42394033,0.8539893,11.58821544,1.52862501,crawl
27/03/2021, 15:31:22,-1.7172291,-8.078402,8.473579,1.194852,0.42394033,0.8539893,11.83262421,1.52862501,crawl
27/03/2021, 15:31:22,-1.7172291,-8.078402,8.473579,1.1655304,0.45326185,0.9346235,11.83262421,1.561226623,crawl
27/03/2021, 15:31:22,-1.7292042,-7.9730206,9.21364,1.1655304,0.45326185,0.9346235,12.30651737,1.561226623,crawl
27/03/2021, 15:31:22,-1.7292042,-7.9730206,9.21364,1.1691957,0.5644393,0.9896013,12.30651737,1.632458561,crawl
27/03/2021, 15:31:22,-1.2885206,-7.8915896,9.613608,1.1691957,0.5644393,0.9896013,12.50435676,1.632458561,crawl
27/03/2021, 15:31:22,-1.2885206,-7.8915896,9.613608,1.1105525,0.6988296,0.97494054,12.50435676,1.634686152,crawl
27/03/2021, 15:31:22,-0.852627,-7.436536,9.627979,1.1105525,0.6988296,0.97494054,12.19536892,1.634686152,crawl
27/03/2021, 15:31:22,-0.852627,-7.436536,9.627979,1.1276568,0.7831289,0.9358452,12.19536892,1.66153755,crawl
27/03/2021, 15:31:22,-0.3424878,-6.715635,9.692644,1.1276568,0.7831289,0.9358452,11.79679613,1.66153755,crawl
27/03/2021, 15:31:22,-0.3424878,-6.715635,9.692644,1.2192866,0.75502914,0.886976,11.79679613,1.686254771,crawl
27/03/2021, 15:31:22,-0.028740235,-6.330037,9.462723,1.2192866,0.75502914,0.886976,11.38478451,1.686254771,crawl
27/03/2021, 15:31:22,-0.028740235,-6.330037,9.462723,1.2974772,0.74036837,0.86009794,11.38478451,1.723763613,crawl
27/03/2021, 15:31:23,-12.23376,1.9806812,4.9361353,-0.87353694,3.506365,0.8051201,13.33991793,3.702145476,crawl
27/03/2021, 15:31:23,-12.23376,1.9806812,4.9361353,-0.37873632,3.5283563,0.89674985,13.33991793,3.660177561,crawl
27/03/2021, 15:31:23,-11.457774,2.335144,4.5720925,-0.37873632,3.5283563,0.89674985,12.55537799,3.660177561,crawl
27/03/2021, 15:31:23,-11.457774,2.335144,4.5720925,-0.12583819,3.5979948,0.82833296,12.55537799,3.694257348,crawl
27/03/2021, 15:31:23,-10.2315235,2.2824538,3.8176613,-0.12583819,3.5979948,0.82833296,11.156532,3.694257348,crawl
27/03/2021, 15:31:23,-10.2315235,2.2824538,3.8176613,-0.533896,3.6615248,0.6133085,11.156532,3.750727387,crawl
27/03/2021, 15:31:23,-9.642349,2.3135889,2.7255323,-0.533896,3.6615248,0.6133085,10.28377939,3.750727387,crawl
27/03/2021, 15:31:23,-9.642349,2.3135889,2.7255323,-1.1105525,3.5307999,0.20647237,10.28377939,3.707088547,crawl
27/03/2021, 15:31:23,-10.267449,1.7411792,3.422483,-1.1105525,3.5307999,0.20647237,10.96200764,3.707088547,crawl
27/03/2021, 15:31:23,-10.267449,1.7411792,3.422483,-1.3781115,3.3267708,-0.058643043,10.96200764,3.601393356,crawl
27/03/2021, 15:31:23,-11.931988,1.3507911,4.7325587,-1.3781115,3.3267708,-0.058643043,12.90713294,3.601393356,crawl
27/03/2021, 15:31:23,-11.931988,1.3507911,4.7325587,-1.099557,3.2400281,-0.04520401,12.90713294,3.421819904,crawl
27/03/2021, 15:31:23,-13.098362,1.6118482,5.4103494,-1.099557,3.2400281,-0.04520401,14.26313504,3.421819904,crawl
27/03/2021, 15:31:23,-13.098362,1.6118482,5.4103494,-0.6059781,3.348762,0.29565868,14.26313504,3.415967015,crawl
27/03/2021, 15:31:23,-12.087664,1.2286451,3.5973196,-0.6059781,3.348762,0.29565868,12.67130181,3.415967015,crawl
27/03/2021, 15:31:23,-12.087664,1.2286451,3.5973196,-0.4850268,3.338988,0.3824015,12.67130181,3.395632962,crawl
27/03/2021, 15:31:23,-10.660233,0.7065308,1.8561403,-0.4850268,3.338988,0.3824015,10.84366176,3.395632962,crawl
27/03/2021, 15:31:23,-10.660233,0.7065308,1.8561403,-0.6499604,3.099529,0.11362089,10.84366176,3.16898066,crawl
27/03/2021, 15:31:23,-10.181229,0.6825806,2.2800586,-0.6499604,3.099529,0.11362089,10.45571615,3.16898066,crawl
27/03/2021, 15:31:23,-10.181229,0.6825806,2.2800586,-0.7318163,2.8845046,-0.24312428,10.45571615,2.985804923,crawl
27/03/2021, 15:31:24,-5.695357,-4.502637,-7.5946074,0.75625086,0.07819072,-2.1710143,10.50661171,2.300289608,crawl
27/03/2021, 15:31:24,-5.5708156,-4.406836,-7.4844365,0.75625086,0.07819072,-2.1710143,10.31847759,2.300289608,crawl
27/03/2021, 15:31:24,-5.5708156,-4.406836,-7.4844365,0.91385406,0.20891583,-2.0402892,10.31847759,2.245340719,crawl
27/03/2021, 15:31:24,-5.640271,-4.4595265,-7.3646855,0.91385406,0.20891583,-2.0402892,10.29264927,2.245340719,crawl
27/03/2021, 15:31:24,-5.640271,-4.4595265,-7.3646855,1.1166612,0.31642807,-1.9449942,10.29264927,2.264963889,crawl
27/03/2021, 15:31:24,-5.518125,-4.756509,-7.2497244,1.1166612,0.31642807,-1.9449942,10.27777136,2.264963889,crawl
27/03/2021, 15:31:24,-5.518125,-4.756509,-7.2497244,1.3109163,0.37751457,-1.9474376,10.27777136,2.37771575,crawl
27/03/2021, 15:31:24,-5.2091675,-5.240303,-7.2521195,1.3109163,0.37751457,-1.9474376,10.35323329,2.37771575,crawl
27/03/2021, 15:31:24,-5.2091675,-5.240303,-7.2521195,1.4892889,0.39584053,-2.0329587,10.35323329,2.550998332,crawl
27/03/2021, 15:31:24,-4.88105,-5.836663,-7.3718705,1.4892889,0.39584053,-2.0329587,10.59413788,2.550998332,crawl
27/03/2021, 15:31:24,-4.88105,-5.836663,-7.3718705,1.6823223,0.3652973,-2.1282537,10.59413788,2.737355313,crawl
27/03/2021, 15:31:24,-4.703819,-6.4258375,-7.34313,1.6823223,0.3652973,-2.1282537,10.83230626,2.737355313,crawl
27/03/2021, 15:31:24,-4.703819,-6.4258375,-7.34313,1.9034554,0.31154117,-2.1966705,10.83230626,2.923279271,crawl
27/03/2021, 15:31:24,-4.4403663,-6.809041,-7.414981,1.9034554,0.31154117,-2.1966705,11.00281027,2.923279271,crawl
27/03/2021, 15:31:24,-4.4403663,-6.809041,-7.414981,2.1563535,0.26633716,-2.2406528,11.00281027,3.121108898,crawl
27/03/2021, 15:31:24,-4.25595,-7.077283,-7.479646,2.1563535,0.26633716,-2.2406528,11.14208916,3.121108898,crawl
27/03/2021, 15:31:24,-4.25595,-7.077283,-7.479646,2.4385731,0.23945908,-2.2589788,11.14208916,3.33271135,crawl
27/03/2021, 15:31:24,-3.9901028,-7.3622904,-7.4580913,2.4385731,0.23945908,-2.2589788,11.21371326,3.33271135,crawl
27/03/2021, 15:31:24,-3.9901028,-7.3622904,-7.4580913,2.7391188,0.23090698,-2.2614222,11.21371326,3.559511214,crawl
27/03/2021, 15:31:24,-3.7482057,-7.704778,-7.28565,2.7391188,0.23090698,-2.2614222,11.24692604,3.559511214,crawl
27/03/2021, 15:31:25,-4.8331494,-1.3962965,9.175321,4.3860106,0.28710654,1.3267988,10.46400908,4.591286814,crawl
