DATE,TIME,ax,ay,az,gx,gy,gz,ma,mg,label
16/03/2021, 14:38:49,0.977168,4.021238,8.851993,-0.04346225,-0.022768034,-0.012445978,9.771539506,0.050618701,crawl
16/03/2021, 14:38:49,0.9987232,4.1002736,8.873548,-0.04346225,-0.022768034,-0.012445978,9.825962442,0.050618701,crawl
16/03/2021, 14:38:49,0.9987232,4.1002736,8.873548,-0.03979706,-0.011772463,-0.002672137,9.825962442,0.041587705,crawl
16/03/2021, 14:38:49,1.0873389,4.064348,8.693921,-0.03979706,-0.011772463,-0.002672137,9.658441712,0.041587705,crawl
16/03/2021, 14:38:49,1.0873389,4.064348,8.693921,-0.045905713,-0.006885544,0.015653813,9.658441712,0.048987622,crawl
16/03/2021, 14:38:49,0.86939216,3.9014869,8.705896,-0.045905713,-0.006885544,0.015653813,9.579669842,0.048987622,crawl
16/03/2021, 14:38:49,0.86939216,3.9014869,8.705896,-0.016584193,-0.027654955,0.022984194,9.579669842,0.039599308,crawl
16/03/2021, 14:38:49,0.80712163,3.9972878,8.760982,-0.016584193,-0.027654955,0.022984194,9.663568315,0.039599308,crawl
16/03/2021, 14:38:49,0.80712163,3.9972878,8.760982,0.005406948,-0.037428793,0.008323433,9.663568315,0.038722463,crawl
16/03/2021, 14:38:49,1.0873389,4.1936793,8.804092,0.005406948,-0.037428793,0.008323433,9.812303267,0.038722463,crawl
16/03/2021, 14:38:49,1.0873389,4.1936793,8.804092,5.20E-04,-0.023989765,-0.012445978,9.812303267,0.027031123,crawl
16/03/2021, 14:38:49,1.219065,4.138594,8.830438,5.20E-04,-0.023989765,-0.012445978,9.828057294,0.027031123,crawl
16/03/2021, 14:38:49,1.219065,4.138594,8.830438,-0.027579764,-0.012994194,-0.030771928,9.828057294,0.043317479,crawl
16/03/2021, 14:38:49,1.2310401,3.9493873,8.835227,-0.027579764,-0.012994194,-0.030771928,9.755734533,0.043317479,crawl
16/03/2021, 14:38:49,1.2310401,3.9493873,8.835227,-0.04712744,0.001666567,-0.03321539,9.755734533,0.057680457,crawl
16/03/2021, 14:38:49,1.22146,3.9134622,8.914263,-0.04712744,0.001666567,-0.03321539,9.811790425,0.057680457,crawl
16/03/2021, 14:38:49,1.22146,3.9134622,8.914263,-0.052014362,0.027322898,-0.023441548,9.811790425,0.063257733,crawl
16/03/2021, 14:38:49,1.2693604,3.9948928,8.959768,-0.052014362,0.027322898,-0.023441548,9.891809367,0.063257733,crawl
16/03/2021, 14:38:49,1.2693604,3.9948928,8.959768,-0.045905713,0.04442712,-0.035658848,9.891809367,0.073161854,crawl
16/03/2021, 14:38:49,1.2837305,4.1625443,8.928633,-0.045905713,0.04442712,-0.035658848,9.934546854,0.073161854,crawl
16/03/2021, 14:38:50,1.346001,4.5481424,8.040081,-0.3415644,-0.03987225,0.082848966,9.334892674,0.353723025,crawl
16/03/2021, 14:38:50,1.346001,4.5481424,8.040081,-0.33667746,-0.03987225,0.068188205,9.334892674,0.345819521,crawl
16/03/2021, 14:38:50,1.3891114,4.5649076,8.176597,-0.33667746,-0.03987225,0.068188205,9.467034597,0.345819521,crawl
16/03/2021, 14:38:50,1.3891114,4.5649076,8.176597,-0.31346458,-0.023989765,0.055970903,9.467034597,0.319324749,crawl
16/03/2021, 14:38:50,1.4729371,4.5816727,8.401729,-0.31346458,-0.023989765,0.055970903,9.682474484,0.319324749,crawl
16/03/2021, 14:38:50,1.4729371,4.5816727,8.401729,-0.28903,-0.003220353,0.053527445,9.682474484,0.293962397,crawl
16/03/2021, 14:38:50,1.4920973,4.648733,8.566985,-0.28903,-0.003220353,0.053527445,9.860543,0.293962397,crawl
16/03/2021, 14:38:50,1.4920973,4.648733,8.566985,-0.2816996,0.017549057,0.06330129,9.860543,0.289257128,crawl
16/03/2021, 14:38:50,1.3867164,4.5840673,8.710687,-0.2816996,0.017549057,0.06330129,9.940458651,0.289257128,crawl
16/03/2021, 14:38:50,1.3867164,4.5840673,8.710687,-0.30369076,0.035875008,0.087735884,9.940458651,0.318139403,crawl
16/03/2021, 14:38:50,1.2597803,4.495452,8.693921,-0.30369076,0.035875008,0.087735884,9.868150704,0.318139403,crawl
16/03/2021, 14:38:50,1.2597803,4.495452,8.693921,-0.33789918,0.04442712,0.11461395,9.868150704,0.359563598,crawl
16/03/2021, 14:38:50,1.1520045,4.414021,8.720266,-0.33789918,0.04442712,0.11461395,9.841429821,0.359563598,crawl
16/03/2021, 14:38:50,1.1520045,4.414021,8.720266,-0.37332937,0.04198366,0.13904855,9.841429821,0.400589497,crawl
16/03/2021, 14:38:50,0.9388477,4.258345,8.641231,-0.37332937,0.04198366,0.13904855,9.679142744,0.400589497,crawl
16/03/2021, 14:38:50,0.9388477,4.258345,8.641231,-0.4124247,0.03831847,0.14637893,9.679142744,0.439305408,crawl
16/03/2021, 14:38:50,0.76401126,4.0427933,8.557405,-0.4124247,0.03831847,0.14637893,9.495108166,0.439305408,crawl
16/03/2021, 14:38:50,0.76401126,4.0427933,8.557405,-0.43075067,0.030988088,0.14760067,9.495108166,0.456390574,crawl
16/03/2021, 14:38:50,0.66342044,3.9517825,8.464,-0.43075067,0.030988088,0.14760067,9.364614411,0.456390574,crawl
16/03/2021, 14:38:50,0.66342044,3.9517825,8.464,-0.411203,0.028544627,0.1451572,9.364614411,0.437004936,crawl
16/03/2021, 14:38:51,0.58677983,-2.0932472,9.216036,-1.5119817,-0.5627727,0.6839401,9.468965676,1.752305886,crawl
16/03/2021, 14:38:51,0.58677983,-2.0932472,9.216036,-1.569403,-0.59087247,0.6986009,9.468965676,1.816645098,crawl
16/03/2021, 14:38:51,0.69695073,-2.299219,9.16574,-1.569403,-0.59087247,0.6986009,9.475385894,1.816645098,crawl
16/03/2021, 14:38:51,0.69695073,-2.299219,9.16574,-1.5950594,-0.60675496,0.70470953,9.475385894,1.846342756,crawl
16/03/2021, 14:38:51,0.74724615,-2.4980054,9.129815,-1.5950594,-0.60675496,0.70470953,9.494837098,1.846342756,crawl
16/03/2021, 14:38:51,0.74724615,-2.4980054,9.129815,-1.6060549,-0.6140853,0.7010443,9.494837098,1.856872711,crawl
16/03/2021, 14:38:51,0.8861573,-2.7782228,9.077125,-1.6060549,-0.6140853,0.7010443,9.53404361,1.856872711,crawl
16/03/2021, 14:38:51,0.8861573,-2.7782228,9.077125,-1.628046,-0.6128636,0.6876053,9.53404361,1.87054451,crawl
16/03/2021, 14:38:51,1.0035132,-2.9530592,9.017249,-1.628046,-0.6128636,0.6876053,9.541403401,1.87054451,crawl
16/03/2021, 14:38:51,1.0035132,-2.9530592,9.017249,-1.6365982,-0.5982029,0.6961574,9.541403401,1.876415619,crawl
16/03/2021, 14:38:51,1.0801538,-3.0033545,8.969349,-1.6365982,-0.5982029,0.6961574,9.520298874,1.876415619,crawl
16/03/2021, 14:38:51,1.0801538,-3.0033545,8.969349,-1.6072767,-0.561551,0.7499136,9.520298874,1.860389256,crawl
16/03/2021, 14:38:51,1.1879297,-2.943479,8.784932,-1.6072767,-0.561551,0.7499136,9.340785765,1.860389256,crawl
16/03/2021, 14:38:51,1.1879297,-2.943479,8.784932,-1.5498554,-0.5139035,0.8061131,9.340785765,1.820979622,crawl
16/03/2021, 14:38:51,1.101709,-2.816543,8.533455,-1.5498554,-0.5139035,0.8061131,9.053536891,1.820979622,crawl
16/03/2021, 14:38:51,1.101709,-2.816543,8.533455,-1.5009861,-0.4564822,0.84398675,9.053536891,1.781473801,crawl
16/03/2021, 14:38:51,1.0178833,-2.8261232,8.284373,-1.5009861,-0.4564822,0.84398675,8.812145009,1.781473801,crawl
16/03/2021, 14:38:51,1.0178833,-2.8261232,8.284373,-1.478995,-0.4039478,0.8733083,8.812145009,1.76444533,crawl
16/03/2021, 14:38:51,0.9699829,-2.804568,8.025711,-1.478995,-0.4039478,0.8733083,8.556781337,1.76444533,crawl
16/03/2021, 14:38:51,0.9699829,-2.804568,8.025711,-1.4716647,-0.39783916,0.89774287,8.556781337,1.769184881,crawl
16/03/2021, 14:38:52,-5.249883,-6.2773466,4.2032595,-0.31102112,0.13850033,0.7022661,9.199659993,0.780444841,crawl
16/03/2021, 14:38:52,-5.249883,-6.2773466,4.2032595,-0.39287704,0.09940497,0.7157051,9.199659993,0.822476446,crawl
16/03/2021, 14:38:52,-5.257068,-6.449788,4.2511597,-0.39287704,0.09940497,0.7157051,9.343922655,0.822476446,crawl
16/03/2021, 14:38:52,-5.257068,-6.449788,4.2511597,-0.45885047,0.074970365,0.72181374,9.343922655,0.858591512,crawl
16/03/2021, 14:38:52,-5.2977834,-6.631809,4.26074,-0.45885047,0.074970365,0.72181374,9.497436816,0.858591512,crawl
16/03/2021, 14:38:52,-5.2977834,-6.631809,4.26074,-0.5223804,0.068861715,0.72547895,9.497436816,0.896628648,crawl
16/03/2021, 14:38:52,-5.223538,-6.744375,4.397256,-0.5223804,0.068861715,0.72547895,9.597281129,0.896628648,crawl
16/03/2021, 14:38:52,-5.223538,-6.744375,4.397256,-0.5724713,0.074970365,0.7315876,9.597281129,0.931968008,crawl
16/03/2021, 14:38:52,-5.2666483,-6.7970657,4.3565407,-0.5724713,0.074970365,0.7315876,9.639353378,0.931968008,crawl
16/03/2021, 14:38:52,-5.2666483,-6.7970657,4.3565407,-0.605458,0.088409394,0.7474701,9.639353378,0.965974719,crawl
16/03/2021, 14:38:52,-5.2834134,-6.7779055,4.3445654,-0.605458,0.088409394,0.7474701,9.629626586,0.965974719,crawl
16/03/2021, 14:38:52,-5.2834134,-6.7779055,4.3445654,-0.6225622,0.112844,0.76213086,9.629626586,0.990535683,crawl
16/03/2021, 14:38:52,-5.2977834,-6.7659307,4.26553,-0.6225622,0.112844,0.76213086,9.593699672,0.990535683,crawl
16/03/2021, 14:38:52,-5.2977834,-6.7659307,4.26553,-0.6494403,0.1287265,0.77434814,9.593699672,1.018802356,crawl
16/03/2021, 14:38:52,-5.3863993,-6.7539554,4.1721244,-0.6494403,0.1287265,0.77434814,9.593530739,1.018802356,crawl
16/03/2021, 14:38:52,-5.3863993,-6.7539554,4.1721244,-0.6934226,0.13972206,0.7853437,9.593530739,1.056939883,crawl
16/03/2021, 14:38:52,-5.49657,-6.595884,4.0691385,-0.6934226,0.13972206,0.7853437,9.501360694,1.056939883,crawl
16/03/2021, 14:38:52,-5.49657,-6.595884,4.0691385,-0.7545091,0.13850033,0.79389584,9.501360694,1.103964183,crawl
16/03/2021, 14:38:52,-5.5253105,-6.5384035,3.9757326,-0.7545091,0.13850033,0.79389584,9.438550005,1.103964183,crawl
16/03/2021, 14:38:52,-5.5253105,-6.5384035,3.9757326,-0.822926,0.11162227,0.797561,9.438550005,1.151420965,crawl
16/03/2021, 14:38:53,-6.557564,-4.5840673,6.6509695,0.78120553,-1.4558574,-0.4925859,10.40436022,1.724077641,crawl
16/03/2021, 14:38:53,-5.958809,-4.095484,6.7755103,0.78120553,-1.4558574,-0.4925859,9.908982332,1.724077641,crawl
16/03/2021, 14:38:53,-5.958809,-4.095484,6.7755103,0.8972699,-1.3520104,-0.49136415,9.908982332,1.695424445,crawl
16/03/2021, 14:38:53,-5.3863993,-3.5853443,6.830596,0.8972699,-1.3520104,-0.49136415,9.408774216,1.695424445,crawl
16/03/2021, 14:38:53,-5.3863993,-3.5853443,6.830596,0.95591295,-1.3006977,-0.53534645,9.408774216,1.700641011,crawl
16/03/2021, 14:38:53,-5.240303,-3.5949244,6.7946706,0.95591295,-1.3006977,-0.53534645,9.303322313,1.700641011,crawl
16/03/2021, 14:38:53,-5.240303,-3.5949244,6.7946706,0.91681755,-1.2725979,-0.5292378,9.303322313,1.655340601,crawl
16/03/2021, 14:38:53,-5.7648125,-3.8320315,6.919212,0.91681755,-1.2725979,-0.5292378,9.787390917,1.655340601,crawl
16/03/2021, 14:38:53,-5.7648125,-3.8320315,6.919212,0.8728353,-1.2823718,-0.47792512,9.787390917,1.623185502,crawl
16/03/2021, 14:38:53,-5.8917484,-3.8487966,7.2353544,0.8728353,-1.2823718,-0.47792512,10.09337845,1.623185502,crawl
16/03/2021, 14:38:53,-5.8917484,-3.8487966,7.2353544,0.85817456,-1.3825536,-0.5438985,10.09337845,1.715734122,crawl
16/03/2021, 14:38:53,-5.985154,-4.169729,7.28565,0.85817456,-1.3825536,-0.5438985,10.3096753,1.715734122,crawl
16/03/2021, 14:38:53,-5.985154,-4.169729,7.28565,0.78120553,-1.4705181,-0.681954,10.3096753,1.799379588,crawl
16/03/2021, 14:38:53,-6.205496,-4.5577226,7.3096,0.78120553,-1.4705181,-0.681954,10.61655612,1.799379588,crawl
16/03/2021, 14:38:53,-6.205496,-4.5577226,7.3096,0.7054583,-1.4363097,-0.745484,10.61655612,1.765333769,crawl
16/03/2021, 14:38:53,-6.3923073,-4.737349,7.580237,0.7054583,-1.4363097,-0.745484,10.98927022,1.765333769,crawl
16/03/2021, 14:38:53,-6.3923073,-4.737349,7.580237,0.66758466,-1.3202454,-0.76014477,10.98927022,1.663291082,crawl
16/03/2021, 14:38:53,-5.944439,-4.6942387,7.438931,0.66758466,-1.3202454,-0.76014477,10.61649307,1.663291082,crawl
16/03/2021, 14:38:53,-5.944439,-4.6942387,7.438931,0.5930591,-1.2725979,-0.79190975,10.61649307,1.611938466,crawl
16/03/2021, 14:38:53,-5.6594315,-4.528982,7.199429,0.5930591,-1.2725979,-0.79190975,10.216292,1.611938466,crawl
16/03/2021, 14:38:54,2.1339624,-5.606741,7.431746,0.04083712,-0.31964844,-0.28733525,9.550926044,0.431745692,crawl
16/03/2021, 14:38:54,2.2800586,-5.6618266,7.3742657,0.04083712,-0.31964844,-0.28733525,9.572603725,0.431745692,crawl
16/03/2021, 14:38:54,2.3758595,-5.6187162,7.3646855,0.04083712,-0.31964844,-0.28733525,9.563120494,0.431745692,crawl
16/03/2021, 14:38:54,2.3758595,-5.6187162,7.3646855,-0.014140733,-0.35141343,-0.22380526,9.563120494,0.416869469,crawl
16/03/2021, 14:38:54,2.3758595,-5.6187162,7.3646855,-0.060566474,-0.34530476,-0.16516222,9.563120494,0.387533524,crawl
16/03/2021, 14:38:54,2.4812403,-5.5564456,7.3862405,-0.060566474,-0.34530476,-0.16516222,9.570119615,0.387533524,crawl
16/03/2021, 14:38:54,2.4812403,-5.5564456,7.3862405,-0.10577048,-0.30498767,-0.14194936,9.570119615,0.352639324,crawl
16/03/2021, 14:38:54,2.4620802,-5.5612354,7.2425394,-0.10577048,-0.30498767,-0.14194936,9.457460317,0.352639324,crawl
16/03/2021, 14:38:54,2.4620802,-5.5612354,7.2425394,-0.13142681,-0.26467058,-0.13461898,9.457460317,0.324724181,crawl
16/03/2021, 14:38:54,2.311194,-5.5516553,7.1491337,-0.13142681,-0.26467058,-0.13461898,9.341980857,0.324724181,crawl
16/03/2021, 14:38:54,2.311194,-5.5516553,7.1491337,-0.13387027,-0.24634463,-0.12362341,9.341980857,0.306414216,crawl
16/03/2021, 14:38:54,2.2369483,-5.5588408,7.151529,-0.13387027,-0.24634463,-0.12362341,9.330006038,0.306414216,crawl
16/03/2021, 14:38:54,2.2369483,-5.5588408,7.151529,-0.10943568,-0.24756636,-0.10896265,9.330006038,0.291784385,crawl
16/03/2021, 14:38:54,2.1387525,-5.5516553,7.103628,-0.10943568,-0.24756636,-0.10896265,9.265887523,0.291784385,crawl
16/03/2021, 14:38:54,2.1387525,-5.5516553,7.103628,-0.085001074,-0.2695575,-0.09674535,9.265887523,0.298740848,crawl
16/03/2021, 14:38:54,2.1746778,-5.5516553,6.9862723,-0.085001074,-0.2695575,-0.09674535,9.184666645,0.298740848,crawl
16/03/2021, 14:38:54,2.1746778,-5.5516553,6.9862723,-0.07767069,-0.2927704,-0.085749775,9.184666645,0.314801937,crawl
16/03/2021, 14:38:54,2.1698878,-5.518125,6.844966,-0.07767069,-0.2927704,-0.085749775,9.056029802,0.314801937,crawl
16/03/2021, 14:38:54,2.1698878,-5.518125,6.844966,-0.09110972,-0.3098746,-0.072310746,9.056029802,0.33098654,crawl
16/03/2021, 14:38:54,2.193838,-5.4103494,6.7395854,-0.09110972,-0.3098746,-0.072310746,8.916659481,0.33098654,crawl
16/03/2021, 14:38:55,1.0609937,-11.290123,6.12646,1.6901727,-0.2292404,0.34429917,12.88899134,1.740050787,crawl
16/03/2021, 14:38:55,1.3220508,-10.935659,6.1528053,1.6901727,-0.2292404,0.34429917,12.6171898,1.740050787,crawl
16/03/2021, 14:38:55,1.3220508,-10.935659,6.1528053,1.7976849,-0.20358407,0.28199095,12.6171898,1.831020589,crawl
16/03/2021, 14:38:55,1.6286134,-10.31535,6.2725563,1.7976849,-0.20358407,0.28199095,12.18210905,1.831020589,crawl
16/03/2021, 14:38:55,1.6286134,-10.31535,6.2725563,1.919858,-0.13028027,0.22212619,12.18210905,1.937051277,crawl
16/03/2021, 14:38:55,1.9040406,-9.642349,6.248606,1.919858,-0.13028027,0.22212619,11.64668833,1.937051277,crawl
16/03/2021, 14:38:55,1.9040406,-9.642349,6.248606,2.0212615,-0.030098414,0.16348314,11.64668833,2.028085431,crawl
16/03/2021, 14:38:55,2.198628,-8.947793,6.2031007,2.0212615,-0.030098414,0.16348314,11.10744897,2.028085431,crawl
16/03/2021, 14:38:55,2.198628,-8.947793,6.2031007,2.0444744,0.05297923,0.09262281,11.10744897,2.047256996,crawl
16/03/2021, 14:38:55,2.3303542,-8.468789,6.11209,2.0444744,0.05297923,0.09262281,10.70086843,2.047256996,crawl
16/03/2021, 14:38:55,2.3303542,-8.468789,6.11209,1.9577316,0.09329632,0.010766893,10.70086843,1.95998295,crawl
16/03/2021, 14:38:55,2.2968237,-8.008945,6.13604,1.9577316,0.09329632,0.010766893,10.34744395,1.95998295,crawl
16/03/2021, 14:38:55,2.2968237,-8.008945,6.13604,1.7756938,0.10551362,-0.06009345,10.34744395,1.779840646,crawl
16/03/2021, 14:38:55,2.1722827,-7.606582,6.191126,1.7756938,0.10551362,-0.06009345,10.04534439,1.779840646,crawl
16/03/2021, 14:38:55,2.1722827,-7.606582,6.191126,1.5692214,0.10184842,-0.106519185,10.04534439,1.576126635,crawl
16/03/2021, 14:38:55,2.1124072,-7.204219,6.3899126,1.5692214,0.10184842,-0.106519185,9.85870259,1.576126635,crawl
16/03/2021, 14:38:55,2.1124072,-7.204219,6.3899126,1.3578621,0.07863556,-0.14439282,9.85870259,1.367780085,crawl
16/03/2021, 14:38:55,2.0070264,-6.8593364,6.473738,1.3578621,0.07863556,-0.14439282,9.643025294,1.367780085,crawl
16/03/2021, 14:38:55,2.0070264,-6.8593364,6.473738,1.1293986,0.03831847,-0.18348818,9.643025294,1.14484819,crawl
16/03/2021, 14:38:55,1.9303858,-6.5168486,6.5719337,1.1293986,0.03831847,-0.18348818,9.4544179,1.14484819,crawl
16/03/2021, 14:38:56,6.337222,-5.3025737,3.439248,0.276631,-0.7350366,-1.3820053,8.950201057,1.589572984,crawl
16/03/2021, 14:38:56,6.662945,-5.3313136,3.7529957,0.276631,-0.7350366,-1.3820053,9.322162575,1.589572984,crawl
16/03/2021, 14:38:56,6.662945,-5.3313136,3.7529957,0.24853122,-0.7130455,-1.3551273,9.322162575,1.5513129,crawl
16/03/2021, 14:38:56,6.959927,-5.1636624,4.7397437,0.24853122,-0.7130455,-1.3551273,9.877710522,1.5513129,crawl
16/03/2021, 14:38:56,6.959927,-5.1636624,4.7397437,0.30717427,-0.65562415,-1.3221406,9.877710522,1.507399999,crawl
16/03/2021, 14:38:56,7.1563187,-5.2283278,4.493057,0.30717427,-0.65562415,-1.3221406,9.936592327,1.507399999,crawl
16/03/2021, 14:38:56,7.1563187,-5.2283278,4.493057,0.3572652,-0.55422056,-1.2561672,9.936592327,1.418715905,crawl
16/03/2021, 14:38:56,6.959927,-5.630691,4.3709106,0.3572652,-0.55422056,-1.2561672,9.962435775,1.418715905,crawl
16/03/2021, 14:38:56,6.959927,-5.630691,4.3709106,0.32427847,-0.48213854,-1.1559852,9.962435775,1.293799046,crawl
16/03/2021, 14:38:56,6.967112,-5.9468336,4.1960745,0.32427847,-0.48213854,-1.1559852,10.07534226,1.293799046,crawl
16/03/2021, 14:38:56,6.967112,-5.9468336,4.1960745,0.23753566,-0.4234955,-1.125442,10.07534226,1.225720762,crawl
16/03/2021, 14:38:56,7.32876,-5.9204884,4.0691385,0.23753566,-0.4234955,-1.125442,10.26259207,1.225720762,crawl
16/03/2021, 14:38:56,7.32876,-5.9204884,4.0691385,0.3035091,-0.43082586,-1.188972,10.26259207,1.300531851,crawl
16/03/2021, 14:38:56,7.28565,-6.229446,4.4595265,0.3035091,-0.43082586,-1.188972,10.57232549,1.300531851,crawl
16/03/2021, 14:38:56,7.28565,-6.229446,4.4595265,0.5014294,-0.48213854,-1.2964842,10.57232549,1.471312462,crawl
16/03/2021, 14:38:56,7.965835,-6.253396,3.7434156,0.5014294,-0.48213854,-1.2964842,10.79688154,1.471312462,crawl
16/03/2021, 14:38:56,7.965835,-6.253396,3.7434156,0.6529239,-0.4564822,-1.4064399,10.79688154,1.616403041,crawl
16/03/2021, 14:38:56,8.720266,-6.09293,4.119434,0.6529239,-0.4564822,-1.4064399,11.40774187,1.616403041,crawl
16/03/2021, 14:38:56,8.720266,-6.09293,4.119434,0.8276313,-0.55422056,-1.5713735,11.40774187,1.86046998,crawl
16/03/2021, 14:38:56,8.729847,-6.0019193,3.8655617,0.8276313,-0.55422056,-1.5713735,11.27722618,1.86046998,crawl
16/03/2021, 14:38:57,9.977652,1.0346485,3.2308815,-0.8974515,0.096961506,-0.1150713,10.53862533,0.909979213,crawl
16/03/2021, 14:38:57,9.613608,0.6490503,3.4871485,-0.8974515,0.096961506,-0.1150713,10.24709407,0.909979213,crawl
16/03/2021, 14:38:57,9.613608,0.6490503,3.4871485,-0.96831185,0.09940497,-0.21158797,10.24709407,0.996131842,crawl
16/03/2021, 14:38:57,9.417217,0.39517823,4.28469,-0.96831185,0.09940497,-0.21158797,10.35368119,0.996131842,crawl
16/03/2021, 14:38:57,9.417217,0.39517823,4.28469,-0.91577744,0.035875008,-0.24213122,10.35368119,0.947925562,crawl
16/03/2021, 14:38:57,9.3309965,0.3784131,4.878655,-0.91577744,0.035875008,-0.24213122,10.53622165,0.947925562,crawl
16/03/2021, 14:38:57,9.3309965,0.3784131,4.878655,-0.687314,-0.08874146,-0.28855696,10.53622165,0.750693457,crawl
16/03/2021, 14:38:57,9.211246,0.8143067,4.7229786,-0.687314,-0.08874146,-0.28855696,10.38348046,0.750693457,crawl
16/03/2021, 14:38:57,9.211246,0.8143067,4.7229786,-0.47717643,-0.17304082,-0.38873884,10.38348046,0.639342127,crawl
16/03/2021, 14:38:57,9.220825,1.5376027,4.181704,-0.47717643,-0.17304082,-0.38873884,10.24082457,0.639342127,crawl
16/03/2021, 14:38:57,9.220825,1.5376027,4.181704,-0.39165533,-0.2048058,-0.47059476,10.24082457,0.645599523,crawl
16/03/2021, 14:38:57,9.16574,2.6536818,3.5206788,-0.39165533,-0.2048058,-0.47059476,10.17093878,0.645599523,crawl
16/03/2021, 14:38:57,9.16574,2.6536818,3.5206788,-0.411203,-0.2206883,-0.455934,10.17093878,0.65243163,crawl
16/03/2021, 14:38:57,9.319021,3.1422658,2.7662477,-0.411203,-0.2206883,-0.455934,10.21616942,0.65243163,crawl
16/03/2021, 14:38:57,9.319021,3.1422658,2.7662477,-0.63355786,-0.20969272,-0.36919117,10.21616942,0.762672087,crawl
16/03/2021, 14:38:57,9.589659,3.415298,2.1579127,-0.63355786,-0.20969272,-0.36919117,10.40588307,0.762672087,crawl
16/03/2021, 14:38:57,9.589659,3.415298,2.1579127,-0.9108905,-0.14127584,-0.2494616,10.40588307,0.954940571,crawl
16/03/2021, 14:38:57,9.74773,3.9805226,2.1267774,-0.9108905,-0.14127584,-0.2494616,10.74178699,0.954940571,crawl
16/03/2021, 14:38:57,9.74773,3.9805226,2.1267774,-1.040394,-0.005663814,-0.17249261,10.74178699,1.054611467,crawl
16/03/2021, 14:38:57,10.0063925,4.1218286,2.6177564,-1.040394,-0.005663814,-0.17249261,11.13418203,1.054611467,crawl
16/03/2021, 14:38:58,8.892708,2.2728736,2.335144,-0.19862197,-0.47114298,0.013210353,9.470961131,0.511469361,crawl
16/03/2021, 14:38:58,10.095008,2.7422974,3.0799952,-0.19862197,-0.47114298,0.013210353,10.90484982,0.511469361,crawl
16/03/2021, 14:38:58,10.095008,2.7422974,3.0799952,-0.25359982,-0.10951087,0.026649384,10.90484982,0.277517009,crawl
16/03/2021, 14:38:58,10.346485,2.8524685,3.3123121,-0.25359982,-0.10951087,0.026649384,11.23199639,0.277517009,crawl
16/03/2021, 14:38:58,10.346485,2.8524685,3.3123121,-0.29880384,0.16782185,0.04741879,11.23199639,0.345971746,crawl
16/03/2021, 14:38:58,9.685459,2.7901978,3.288362,-0.29880384,0.16782185,0.04741879,10.60220013,0.345971746,crawl
16/03/2021, 14:38:58,9.685459,2.7901978,3.288362,-0.38065973,0.21669106,0.13538335,10.60220013,0.45845992,crawl
16/03/2021, 14:38:58,8.631651,2.9913795,2.5099807,-0.38065973,0.21669106,0.13538335,9.473845682,0.45845992,crawl
16/03/2021, 14:38:58,8.631651,2.9913795,2.5099807,-0.39287704,0.008996947,0.23312177,9.473845682,0.456923488,crawl
16/03/2021, 14:38:58,7.8508744,3.3841627,1.8010547,-0.39287704,0.008996947,0.23312177,8.736852079,0.456923488,crawl
16/03/2021, 14:38:58,7.8508744,3.3841627,1.8010547,-0.30246902,-0.29887903,0.2722171,8.736852079,0.50489437,crawl
16/03/2021, 14:38:58,7.692803,3.786526,1.4250367,-0.30246902,-0.29887903,0.2722171,8.691819426,0.50489437,crawl
16/03/2021, 14:38:58,7.692803,3.786526,1.4250367,-0.12409644,-0.51146,0.22701311,8.691819426,0.573172065,crawl
16/03/2021, 14:38:58,8.064031,3.8368216,1.2765454,-0.12409644,-0.51146,0.22701311,9.021050832,0.573172065,crawl
16/03/2021, 14:38:58,8.064031,3.8368216,1.2765454,0.1947751,-0.53589463,0.16226141,9.021050832,0.59283148,crawl
16/03/2021, 14:38:58,8.753797,3.4823585,1.6070582,0.1947751,-0.53589463,0.16226141,9.557113104,0.59283148,crawl
16/03/2021, 14:38:58,8.753797,3.4823585,1.6070582,0.7079017,-0.30865288,0.124387786,9.557113104,0.782217208,crawl
16/03/2021, 14:38:58,9.678274,2.929109,2.799778,0.7079017,-0.30865288,0.124387786,10.4922556,0.782217208,crawl
16/03/2021, 14:38:58,9.678274,2.929109,2.799778,1.3334275,0.11528746,0.11217049,10.4922556,1.343094354,crawl
16/03/2021, 14:38:58,10.262659,2.4620802,3.4847536,1.3334275,0.11528746,0.11217049,11.11429341,1.343094354,crawl
16/03/2021, 14:38:59,8.234077,-2.215393,6.205496,-0.5798017,1.5410464,1.8494706,10.54590805,2.476193751,crawl
16/03/2021, 14:38:59,7.9682302,-1.81782,6.3132715,-0.5798017,1.5410464,1.8494706,10.32736946,2.476193751,crawl
16/03/2021, 14:38:59,7.9682302,-1.81782,6.3132715,-0.33789918,1.4090995,1.8152621,10.32736946,2.322695322,crawl
16/03/2021, 14:38:59,7.7526784,-1.3388159,5.942044,-0.33789918,1.4090995,1.8152621,9.859225866,2.322695322,crawl
16/03/2021, 14:38:59,7.7526784,-1.3388159,5.942044,-0.080114156,1.2844831,1.8091534,9.859225866,2.220214226,crawl
16/03/2021, 14:38:59,7.6233473,-1.2358302,5.2834134,-0.080114156,1.2844831,1.8091534,9.357198155,2.220214226,crawl
16/03/2021, 14:38:59,7.6233473,-1.2358302,5.2834134,0.04205885,1.2221748,1.7896059,9.357198155,2.16752606,crawl
16/03/2021, 14:38:59,7.685618,-1.4010864,4.869075,0.04205885,1.2221748,1.7896059,9.205414479,2.16752606,crawl
16/03/2021, 14:38:59,7.685618,-1.4010864,4.869075,-0.025136303,1.2563833,1.7260759,9.205414479,2.135057095,crawl
16/03/2021, 14:38:59,7.726333,-1.698069,4.792434,-0.025136303,1.2563833,1.7260759,9.249166869,2.135057095,crawl
16/03/2021, 14:38:59,7.726333,-1.698069,4.792434,-0.24138252,1.3944387,1.6234505,9.249166869,2.153675118,crawl
16/03/2021, 14:38:59,7.7071733,-2.2201831,5.1157618,-0.24138252,1.3944387,1.6234505,9.513188346,2.153675118,crawl
16/03/2021, 14:38:59,7.7071733,-2.2201831,5.1157618,-0.5003893,1.5886939,1.5122731,9.513188346,2.249734973,crawl
16/03/2021, 14:38:59,7.5131764,-3.027305,5.712122,-0.5003893,1.5886939,1.5122731,9.911646304,2.249734973,crawl
16/03/2021, 14:38:59,7.5131764,-3.027305,5.712122,-0.72763103,1.6998713,1.3876566,9.911646304,2.31183912,crawl
16/03/2021, 14:38:59,7.582632,-3.767366,6.5551686,-0.72763103,1.6998713,1.3876566,10.70792187,2.31183912,crawl
16/03/2021, 14:38:59,7.582632,-3.767366,6.5551686,-0.79726964,1.6167936,1.2948052,10.70792187,2.21950016,crawl
16/03/2021, 14:38:59,6.588699,-4.893025,7.3718705,-0.79726964,1.6167936,1.2948052,11.03164179,2.21950016,crawl
16/03/2021, 14:38:59,6.588699,-4.893025,7.3718705,-0.71663547,1.3858867,1.2899182,11.03164179,2.024385628,crawl
16/03/2021, 14:38:59,5.8198977,-5.5875807,7.7383084,-0.71663547,1.3858867,1.2899182,11.17916293,2.024385628,crawl
16/03/2021, 14:39:00,0.15328126,-2.0166066,8.926238,2.986428,0.46836743,-0.31176984,9.1524818,3.038967064,crawl
16/03/2021, 14:39:00,-0.033530276,-2.196233,9.10347,2.986428,0.46836743,-0.31176984,9.364706461,3.038967064,crawl
16/03/2021, 14:39:00,-0.033530276,-2.196233,9.10347,3.12204,0.6418531,-0.35697386,9.364706461,3.207263584,crawl
16/03/2021, 14:39:00,-0.031135255,-2.3566992,9.630374,3.12204,0.6418531,-0.35697386,9.914590418,3.207263584,crawl
16/03/2021, 14:39:00,-0.031135255,-2.3566992,9.630374,3.2894173,0.832443,-0.40950826,9.914590418,3.417736724,crawl
16/03/2021, 14:39:00,-0.5292993,-2.2968237,9.81,3.2894173,0.832443,-0.40950826,10.08918556,3.417736724,crawl
16/03/2021, 14:39:00,-0.5292993,-2.2968237,9.81,3.561863,0.968055,-0.43882978,10.08918556,3.717064665,crawl
16/03/2021, 14:39:00,-0.9148975,-2.1315675,9.881851,3.561863,0.968055,-0.43882978,10.15044829,3.717064665,crawl
16/03/2021, 14:39:00,-0.9148975,-2.1315675,9.881851,3.8086524,0.9876027,-0.46692955,10.15044829,3.962223547,crawl
16/03/2021, 14:39:00,-1.1663746,-1.5399976,9.740545,3.8086524,0.9876027,-0.46692955,9.930269099,3.962223547,crawl
16/03/2021, 14:39:00,-1.1663746,-1.5399976,9.740545,3.8905084,0.87886876,-0.47059476,9.930269099,4.016207843,crawl
16/03/2021, 14:39:00,-1.585503,-1.0490186,9.347761,3.8905084,0.87886876,-0.47059476,9.539124612,4.016207843,crawl
16/03/2021, 14:39:00,-1.585503,-1.0490186,9.347761,3.739014,0.75425225,-0.36430424,9.539124612,3.831688801,crawl
16/03/2021, 14:39:00,-1.9232007,-0.5508545,8.921448,3.739014,0.75425225,-0.36430424,9.142995775,3.831688801,crawl
16/03/2021, 14:39:00,-1.9232007,-0.5508545,8.921448,3.371273,0.65529215,-0.23480085,9.142995775,3.442385969,crawl
16/03/2021, 14:39:00,-2.3974147,0.17962648,8.52148,3.371273,0.65529215,-0.23480085,8.854122064,3.442385969,crawl
16/03/2021, 14:39:00,-2.3974147,0.17962648,8.52148,3.019415,0.63818794,-0.15294492,8.854122064,3.089909764,crawl
16/03/2021, 14:39:00,-2.1124072,0.43589357,8.842413,3.019415,0.63818794,-0.15294492,9.101677547,3.089909764,crawl
16/03/2021, 14:39:00,-2.1124072,0.43589357,8.842413,2.805612,0.75425225,-0.14317109,9.101677547,2.908754649,crawl
16/03/2021, 14:39:00,-2.0213966,0.43349856,8.504715,2.805612,0.75425225,-0.14317109,8.75237922,2.908754649,crawl
16/03/2021, 14:39:01,-8.320298,7.36708,1.0681788,-1.6084983,2.877619,0.09262281,11.16432886,3.297959543,crawl
16/03/2021, 14:39:01,-7.8891945,3.9422023,3.1350808,-1.6084983,2.877619,0.09262281,9.359972254,3.297959543,crawl
16/03/2021, 14:39:01,-7.8891945,3.9422023,3.1350808,-1.7465539,2.869067,0.16714834,9.359972254,3.363024572,crawl
16/03/2021, 14:39:01,-6.3970976,2.3974147,3.0201197,-1.7465539,2.869067,0.16714834,7.469375979,3.363024572,crawl
16/03/2021, 14:39:01,-6.3970976,2.3974147,3.0201197,-1.8577313,3.2612422,0.18791775,7.469375979,3.757948801,crawl
16/03/2021, 14:39:01,-6.13604,2.3926246,2.071692,-1.8577313,3.2612422,0.18791775,6.90416901,3.757948801,crawl
16/03/2021, 14:39:01,-6.13604,2.3926246,2.071692,-1.6023897,3.6583045,0.07063167,6.90416901,3.994475314,crawl
16/03/2021, 14:39:01,-7.4916215,2.411785,3.7266505,-1.6023897,3.6583045,0.07063167,8.707986147,3.994475314,crawl
16/03/2021, 14:39:01,-7.4916215,2.411785,3.7266505,-1.4912122,3.692513,-0.22258353,8.707986147,3.988472085,crawl
16/03/2021, 14:39:01,-8.854387,2.4716604,4.8355446,-1.4912122,3.692513,-0.22258353,10.38709635,3.988472085,crawl
16/03/2021, 14:39:01,-8.854387,2.4716604,4.8355446,-0.9499859,3.6302047,-0.28000486,10.38709635,3.762879479,crawl
16/03/2021, 14:39:01,-8.751402,3.5039136,4.4379716,-0.9499859,3.6302047,-0.28000486,10.41921484,3.762879479,crawl
16/03/2021, 14:39:01,-8.751402,3.5039136,4.4379716,-0.51627177,3.4982579,-0.27145275,10.41921484,3.54655203,crawl
16/03/2021, 14:39:01,-7.927515,3.4655933,1.9160157,-0.51627177,3.4982579,-0.27145275,8.86154321,3.54655203,crawl
16/03/2021, 14:39:01,-7.927515,3.4655933,1.9160157,-0.7215224,3.3247721,-0.4033996,8.86154321,3.42599408,crawl
16/03/2021, 14:39:01,-7.6329274,3.5709743,1.3292359,-0.7215224,3.3247721,-0.4033996,8.53113749,3.42599408,crawl
16/03/2021, 14:39:01,-7.6329274,3.5709743,1.3292359,-0.78260887,3.1818297,-0.73937535,8.53113749,3.359046402,crawl
16/03/2021, 14:39:01,-7.1563187,3.6907253,2.9602442,-0.78260887,3.1818297,-0.73937535,8.578892461,3.359046402,crawl
16/03/2021, 14:39:01,-7.1563187,3.6907253,2.9602442,-1.2468663,3.2319207,-1.3172537,8.578892461,3.706095594,crawl
16/03/2021, 14:39:01,-8.442444,1.0322535,4.0571632,-1.2468663,3.2319207,-1.3172537,9.423427135,3.706095594,crawl
16/03/2021, 14:39:02,3.7386258,-9.69504,4.045188,1.811124,-0.4442649,-0.9116393,11.15054545,2.075723363,crawl
16/03/2021, 14:39:02,2.1195924,-10.250684,4.9241605,1.811124,-0.4442649,-0.9116393,11.56791021,2.075723363,crawl
16/03/2021, 14:39:02,2.1195924,-10.250684,4.9241605,0.9913431,-0.60919845,-0.8493311,11.56791021,1.440571811,crawl
16/03/2021, 14:39:02,1.4130616,-9.431587,5.6426663,0.9913431,-0.60919845,-0.8493311,11.08112197,1.440571811,crawl
16/03/2021, 14:39:02,1.4130616,-9.431587,5.6426663,0.5478551,-1.050243,-1.1449897,11.08112197,1.647469899,crawl
16/03/2021, 14:39:02,0.031135255,-10.090218,5.50136,0.5478551,-1.050243,-1.1449897,11.49253765,1.647469899,crawl
16/03/2021, 14:39:02,0.031135255,-10.090218,5.50136,0.23631392,-1.4546356,-1.0741293,11.49253765,1.823612597,crawl
16/03/2021, 14:39:02,-0.35925296,-10.904525,5.9204884,0.23631392,-1.4546356,-1.0741293,12.41329554,1.823612597,crawl
16/03/2021, 14:39:02,-0.35925296,-10.904525,5.9204884,0.8080836,-1.6220127,-0.5585593,12.41329554,1.896289244,crawl
16/03/2021, 14:39:02,-0.29698244,-10.966795,5.4103494,0.8080836,-1.6220127,-0.5585593,12.23236162,1.896289244,crawl
16/03/2021, 14:39:02,-0.29698244,-10.966795,5.4103494,1.8673235,-1.615904,-0.04787615,12.23236162,2.469885604,crawl
16/03/2021, 14:39:02,0.66342044,-10.739268,4.617598,1.8673235,-1.615904,-0.04787615,11.70872419,2.469885604,crawl
16/03/2021, 14:39:02,0.66342044,-10.739268,4.617598,2.6944346,-1.4338663,0.340634,11.70872419,3.071153206,crawl
16/03/2021, 14:39:02,1.6142433,-10.2387085,3.3578174,2.6944346,-1.4338663,0.340634,10.89549773,3.071153206,crawl
16/03/2021, 14:39:02,1.6142433,-10.2387085,3.3578174,3.2161133,-1.1980723,0.6460665,10.89549773,3.492300692,crawl
16/03/2021, 14:39:02,2.2968237,-9.390872,2.8213332,3.2161133,-1.1980723,0.6460665,10.07093824,3.492300692,crawl
16/03/2021, 14:39:02,2.2968237,-9.390872,2.8213332,3.8086524,-1.2383895,0.77679163,10.07093824,4.079564546,crawl
16/03/2021, 14:39:02,3.427273,-7.822134,2.5698562,3.8086524,-1.2383895,0.77679163,8.91830375,4.079564546,crawl
16/03/2021, 14:39:02,3.427273,-7.822134,2.5698562,4.013903,-1.453414,0.80733484,8.91830375,4.344608166,crawl
16/03/2021, 14:39:02,3.5494192,-7.664063,2.4644752,4.013903,-1.453414,0.80733484,8.798288215,4.344608166,crawl
16/03/2021, 14:39:03,-11.170372,2.8524685,2.560276,-3.2822685,2.4402397,-1.8670322,11.80969096,4.495983255,crawl
16/03/2021, 14:39:03,-11.170372,2.8524685,2.560276,-4.2058964,2.5001044,-2.2237773,11.80969096,5.374502018,crawl
16/03/2021, 14:39:03,-10.657837,-0.68018556,5.0487013,-4.2058964,2.5001044,-2.2237773,11.81276956,5.374502018,crawl
16/03/2021, 14:39:03,-10.657837,-0.68018556,5.0487013,-4.447799,2.669925,-2.3752718,11.81276956,5.705552844,crawl
16/03/2021, 14:39:03,-11.072176,-5.364844,6.085745,-4.447799,2.669925,-2.3752718,13.72628576,5.705552844,crawl
16/03/2021, 14:39:03,-11.072176,-5.364844,6.085745,-4.4099255,2.9655836,-2.2323294,13.72628576,5.764149794,crawl
16/03/2021, 14:39:03,-11.472144,-7.4964113,6.320457,-4.4099255,2.9655836,-2.2323294,15.09153571,5.764149794,crawl
16/03/2021, 14:39:03,-11.472144,-7.4964113,6.320457,-4.001868,3.3675327,-1.9916487,15.09153571,5.596596,crawl
16/03/2021, 14:39:03,-10.30577,-6.4018874,8.945398,-4.001868,3.3675327,-1.9916487,15.07359305,5.596596,crawl
16/03/2021, 14:39:03,-10.30577,-6.4018874,8.945398,-3.000049,3.7035086,-1.7986153,15.07359305,5.094240658,crawl
16/03/2021, 14:39:03,-11.726016,-3.9733377,7.9730206,-3.000049,3.7035086,-1.7986153,14.72602869,5.094240658,crawl
16/03/2021, 14:39:03,-11.726016,-3.9733377,7.9730206,-1.8675052,3.7926948,-1.7863979,14.72602869,4.589480049,crawl
16/03/2021, 14:39:03,-11.01709,-1.1543995,6.696475,-1.8675052,3.7926948,-1.7863979,12.9441757,4.589480049,crawl
16/03/2021, 14:39:03,-11.01709,-1.1543995,6.696475,-1.3678175,3.6302047,-2.052735,12.9441757,4.388967091,crawl
16/03/2021, 14:39:03,-10.41594,-0.91729254,4.1936793,-1.3678175,3.6302047,-2.052735,11.26588585,4.388967091,crawl
16/03/2021, 14:39:03,-10.41594,-0.91729254,4.1936793,-1.8504009,3.3675327,-2.2506552,11.26588585,4.45305614,crawl
16/03/2021, 14:39:03,-11.460169,-2.2824538,4.524192,-1.8504009,3.3675327,-2.2506552,12.53049788,4.45305614,crawl
16/03/2021, 14:39:03,-11.460169,-2.2824538,4.524192,-2.5101352,3.085313,-2.0331874,12.53049788,4.466966125,crawl
16/03/2021, 14:39:03,-12.602593,-1.9591261,5.158872,-2.5101352,3.085313,-2.0331874,13.75781588,4.466966125,crawl
16/03/2021, 14:39:03,-12.602593,-1.9591261,5.158872,-2.8876498,2.89961,-1.863367,13.75781588,4.496487079,crawl
16/03/2021, 14:39:04,3.7529957,-10.145303,7.2736745,5.0401564,0.005331757,2.0669386,13.03527851,5.44751686,crawl
16/03/2021, 14:39:04,3.182981,-9.352551,7.197034,5.0401564,0.005331757,2.0669386,12.22288361,5.44751686,crawl
16/03/2021, 14:39:04,3.182981,-9.352551,7.197034,5.2246375,-0.037428793,2.2538633,12.22288361,5.690179078,crawl
16/03/2021, 14:39:04,2.7183473,-8.080796,7.31918,5.2246375,-0.037428793,2.2538633,11.2365064,5.690179078,crawl
16/03/2021, 14:39:04,2.7183473,-8.080796,7.31918,5.244185,-0.24634463,2.4261272,11.2365064,5.783446624,crawl
16/03/2021, 14:39:04,2.8309133,-7.7550735,7.486831,5.244185,-0.24634463,2.4261272,11.14485877,5.783446624,crawl
16/03/2021, 14:39:04,2.8309133,-7.7550735,7.486831,5.1110168,-0.20236234,2.5886173,11.14485877,5.732746497,crawl
16/03/2021, 14:39:04,3.8416114,-6.5048733,6.5240335,5.1110168,-0.20236234,2.5886173,9.981701663,5.732746497,crawl
16/03/2021, 14:39:04,3.8416114,-6.5048733,6.5240335,4.8642273,0.04076193,2.5605175,9.981701663,5.497146426,crawl
16/03/2021, 14:39:04,3.8200562,-5.391189,5.589976,4.8642273,0.04076193,2.5605175,8.654800927,5.497146426,crawl
16/03/2021, 14:39:04,3.8200562,-5.391189,5.589976,4.5685687,0.22035624,2.2477546,8.654800927,5.096349431,crawl
16/03/2021, 14:39:04,3.1446607,-6.430628,5.144502,4.5685687,0.22035624,2.2477546,8.815200944,5.096349431,crawl
16/03/2021, 14:39:04,3.1446607,-6.430628,5.144502,4.204493,0.2142476,1.9191092,8.815200944,4.626731462,crawl
16/03/2021, 14:39:04,2.2561085,-7.3479204,6.967112,4.204493,0.2142476,1.9191092,10.3741318,4.626731462,crawl
16/03/2021, 14:39:04,2.2561085,-7.3479204,6.967112,4.3413267,0.32175982,1.8054882,10.3741318,4.712794793,crawl
16/03/2021, 14:39:04,1.2573853,-8.013736,8.48316,4.3413267,0.32175982,1.8054882,11.73733286,4.712794793,crawl
16/03/2021, 14:39:04,1.2573853,-8.013736,8.48316,4.680968,0.51601493,2.2159896,11.73733286,5.204646087,crawl
16/03/2021, 14:39:04,1.0657837,-8.787327,10.186019,4.680968,0.51601493,2.2159896,13.49473932,5.204646087,crawl
16/03/2021, 14:39:04,1.0657837,-8.787327,10.186019,5.0352693,0.5257888,2.431014,13.49473932,5.616067996,crawl
16/03/2021, 14:39:04,1.1951149,-7.417376,10.027947,5.0352693,0.5257888,2.431014,12.53018342,5.616067996,crawl
16/03/2021, 14:39:05,-9.74773,-7.685618,5.388794,-3.4765236,1.6754366,-1.5432737,13.53240807,4.156320263,crawl
16/03/2021, 14:39:05,-8.619676,-8.365804,5.199588,-3.4765236,1.6754366,-1.5432737,13.08897221,4.156320263,crawl
16/03/2021, 14:39:05,-8.619676,-8.365804,5.199588,-3.153987,1.6412282,-1.7692938,13.08897221,3.971355444,crawl
16/03/2021, 14:39:05,-8.155042,-9.105865,4.8259645,-3.153987,1.6412282,-1.7692938,13.14197119,3.971355444,crawl
16/03/2021, 14:39:05,-8.155042,-9.105865,4.8259645,-3.0806832,1.5190552,-1.831602,13.14197119,3.892673094,crawl
16/03/2021, 14:39:05,-8.392149,-9.093889,5.494175,-3.0806832,1.5190552,-1.831602,13.53931107,3.892673094,crawl
16/03/2021, 14:39:05,-8.392149,-9.093889,5.494175,-3.0110445,1.334574,-1.7692938,13.53931107,3.738699936,crawl
16/03/2021, 14:39:05,-7.6305327,-8.475974,5.910908,-3.0110445,1.334574,-1.7692938,12.84546623,3.738699936,crawl
16/03/2021, 14:39:05,-7.6305327,-8.475974,5.910908,-2.8546631,1.2514963,-1.7106507,12.84546623,3.555512676,crawl
16/03/2021, 14:39:05,-7.0102224,-7.8412943,6.7779055,-2.8546631,1.2514963,-1.7106507,12.51275818,3.555512676,crawl
16/03/2021, 14:39:05,-7.0102224,-7.8412943,6.7779055,-2.8876498,1.28937,-1.7509679,12.51275818,3.614814589,crawl
16/03/2021, 14:39:05,-5.6761966,-6.0617948,7.656878,-2.8876498,1.28937,-1.7509679,11.29567811,3.614814589,crawl
16/03/2021, 14:39:05,-5.6761966,-6.0617948,7.656878,-2.6897297,1.3614521,-2.0283005,11.29567811,3.633483267,crawl
16/03/2021, 14:39:05,-5.0439115,-5.369634,8.205338,-2.6897297,1.3614521,-2.0283005,11.02731053,3.633483267,crawl
16/03/2021, 14:39:05,-5.0439115,-5.369634,8.205338,-2.3684146,1.4665208,-2.278755,11.02731053,3.598999201,crawl
16/03/2021, 14:39:05,-5.005591,-5.398374,7.3862405,-2.3684146,1.4665208,-2.278755,10.42856326,3.598999201,crawl
16/03/2021, 14:39:05,-5.005591,-5.398374,7.3862405,-2.0813081,1.4604121,-2.4522407,10.42856326,3.532439897,crawl
16/03/2021, 14:39:05,-5.2905984,-5.4031644,7.046148,-2.0813081,1.4604121,-2.4522407,10.33599612,3.532439897,crawl
16/03/2021, 14:39:05,-5.2905984,-5.4031644,7.046148,-1.786871,1.3993257,-2.7185779,10.33599612,3.541424276,crawl
16/03/2021, 14:39:05,-6.104905,-5.43909,6.476133,-1.786871,1.3993257,-2.7185779,10.43042958,3.541424276,crawl
16/03/2021, 14:39:06,-11.170372,7.8604546,5.8175025,4.8410144,2.8434105,1.8262577,14.84612044,5.903864896,crawl
16/03/2021, 14:39:06,-10.298584,8.571775,5.213958,4.8410144,2.8434105,1.8262577,14.37781353,5.903864896,crawl
16/03/2021, 14:39:06,-10.298584,8.571775,5.213958,4.7078457,2.614947,1.910557,14.37781353,5.714191756,crawl
16/03/2021, 14:39:06,-8.964559,9.24717,4.993616,4.7078457,2.614947,1.910557,13.81338749,5.714191756,crawl
16/03/2021, 14:39:06,-8.964559,9.24717,4.993616,4.6015553,2.311958,1.9508742,13.81338749,5.506847731,crawl
16/03/2021, 14:39:06,-7.510782,9.168135,4.5696974,4.6015553,2.311958,1.9508742,12.70230965,5.506847731,crawl
16/03/2021, 14:39:06,-7.510782,9.168135,4.5696974,4.3694267,2.0822728,1.8458054,12.70230965,5.180226578,crawl
16/03/2021, 14:39:06,-6.5384035,8.756192,4.600833,4.3694267,2.0822728,1.8458054,11.8570353,5.180226578,crawl
16/03/2021, 14:39:06,-6.5384035,8.756192,4.600833,4.184945,1.9747605,1.6100115,11.8570353,4.899549122,crawl
16/03/2021, 14:39:06,-6.167176,8.485555,4.873865,4.184945,1.9747605,1.6100115,11.56690351,4.899549122,crawl
16/03/2021, 14:39:06,-6.167176,8.485555,4.873865,4.085985,1.9808692,1.4157565,11.56690351,4.756415034,crawl
16/03/2021, 14:39:06,-6.08814,8.396939,5.48699,4.085985,1.9808692,1.4157565,11.73375886,4.756415034,crawl
16/03/2021, 14:39:06,-6.08814,8.396939,5.48699,4.0383377,2.0908248,1.336344,11.73375886,4.739782195,crawl
16/03/2021, 14:39:06,-6.375542,7.92512,4.639153,4.0383377,2.0908248,1.336344,11.17930246,4.739782195,crawl
16/03/2021, 14:39:06,-6.375542,7.92512,4.639153,3.7720006,2.3583837,1.3510047,11.17930246,4.64921234,crawl
16/03/2021, 14:39:06,-6.253396,7.3862405,2.818938,3.7720006,2.3583837,1.3510047,10.08007549,4.64921234,crawl
16/03/2021, 14:39:06,-6.253396,7.3862405,2.818938,3.2894173,2.5929558,1.4768429,10.08007549,4.44125554,crawl
16/03/2021, 14:39:06,-5.527705,6.6198344,1.829795,3.2894173,2.5929558,1.4768429,8.816228345,4.44125554,crawl
16/03/2021, 14:39:06,-5.527705,6.6198344,1.829795,2.7115388,2.646712,1.5538119,8.816228345,4.095345995,crawl
16/03/2021, 14:39:06,-5.199588,6.9790874,1.5112574,2.7115388,2.646712,1.5538119,8.833304747,4.095345995,crawl
16/03/2021, 14:39:07,-3.7625759,-9.223221,6.464158,0.053054422,3.0657654,-2.0967174,11.87476816,3.714559977,crawl
16/03/2021, 14:39:07,-4.136199,-10.30577,5.951624,0.053054422,3.0657654,-2.0967174,12.5991612,3.714559977,crawl
16/03/2021, 14:39:07,-4.136199,-10.30577,5.951624,1.1269552,2.9716923,-2.242103,12.5991612,3.889474192,crawl
16/03/2021, 14:39:07,-5.470225,-11.139236,3.1135256,1.1269552,2.9716923,-2.242103,12.79452971,3.889474192,crawl
16/03/2021, 14:39:07,-5.470225,-11.139236,3.1135256,1.9430708,2.4671178,-2.3997064,12.79452971,3.952313856,crawl
16/03/2021, 14:39:07,-6.1216702,-10.607542,0.97956306,1.9430708,2.4671178,-2.3997064,12.28634765,3.952313856,crawl
16/03/2021, 14:39:07,-6.1216702,-10.607542,0.97956306,2.2692726,1.8562527,-2.514549,12.28634765,3.862412292,crawl
16/03/2021, 14:39:07,-6.361172,-9.608819,0.059875492,2.2692726,1.8562527,-2.514549,11.52377974,3.862412292,crawl
16/03/2021, 14:39:07,-6.361172,-9.608819,0.059875492,2.1104476,1.2698222,-2.4045932,11.52377974,3.442165943,crawl
16/03/2021, 14:39:07,-6.840176,-8.828042,-0.38559815,2.1104476,1.2698222,-2.4045932,11.17457029,3.442165943,crawl
16/03/2021, 14:39:07,-6.840176,-8.828042,-0.38559815,1.7219377,0.6931658,-2.1626906,11.17457029,2.850048928,crawl
16/03/2021, 14:39:07,-6.3012967,-7.932305,-0.20597169,1.7219377,0.6931658,-2.1626906,10.13263169,2.850048928,crawl
16/03/2021, 14:39:07,-6.3012967,-7.932305,-0.20597169,1.335871,0.17148705,-1.9647706,10.13263169,2.382075234,crawl
16/03/2021, 14:39:07,-4.905,-7.5706573,0.31853762,1.335871,0.17148705,-1.9647706,9.026369399,2.382075234,crawl
16/03/2021, 14:39:07,-4.905,-7.5706573,0.31853762,0.9461391,-0.1803712,-1.8389324,9.026369399,2.075905902,crawl
16/03/2021, 14:39:07,-3.307522,-7.8724294,0.62989014,0.9461391,-0.1803712,-1.8389324,8.562219803,2.075905902,crawl
16/03/2021, 14:39:07,-3.307522,-7.8724294,0.62989014,0.616272,-0.2683358,-1.7668504,8.562219803,1.890384989,crawl
16/03/2021, 14:39:07,-1.4825171,-8.291558,-0.5508545,0.616272,-0.2683358,-1.7668504,8.441044733,1.890384989,crawl
16/03/2021, 14:39:07,-1.4825171,-8.291558,-0.5508545,0.3413827,-0.3550786,-1.8291585,8.441044733,1.894318863,crawl
16/03/2021, 14:39:07,-0.11496094,-8.2197075,2.6321266,0.3413827,-0.3550786,-1.8291585,8.631621951,1.894318863,crawl
16/03/2021, 14:39:08,-7.4748564,9.613608,2.4860303,-0.26337367,3.2270339,1.7358496,12.42880889,3.673729315,crawl
16/03/2021, 14:39:08,-7.0509377,10.703342,2.7854078,-0.26337367,3.2270339,1.7358496,13.11624022,3.673729315,crawl
16/03/2021, 14:39:08,-7.0509377,10.703342,2.7854078,0.7030148,3.3614242,1.16408,13.11624022,3.626083949,crawl
16/03/2021, 14:39:08,-6.6342044,9.7621,1.9687061,0.7030148,3.3614242,1.16408,11.96608008,3.626083949,crawl
16/03/2021, 14:39:08,-6.6342044,9.7621,1.9687061,0.42568207,3.3516502,0.51900655,11.96608008,3.418206012,crawl
16/03/2021, 14:39:08,-9.256751,12.245735,-0.852627,0.42568207,3.3516502,0.51900655,15.3744087,3.418206012,crawl
16/03/2021, 14:39:08,-9.256751,12.245735,-0.852627,0.010293868,2.9277098,0.21357408,15.3744087,2.935507559,crawl
16/03/2021, 14:39:08,-12.097244,11.721226,-1.5040723,0.010293868,2.9277098,0.21357408,16.91131825,2.935507559,crawl
16/03/2021, 14:39:08,-12.097244,11.721226,-1.5040723,-0.61767536,2.7542243,0.3174211,16.91131825,2.840427875,crawl
16/03/2021, 14:39:08,-9.984837,9.13221,0.8095166,-0.61767536,2.7542243,0.3174211,13.55542453,2.840427875,crawl
16/03/2021, 14:39:08,-9.984837,9.13221,0.8095166,-1.1014805,2.9875748,0.3259732,13.55542453,3.200800067,crawl
16/03/2021, 14:39:08,-10.190808,10.691368,5.575606,-1.1014805,2.9875748,0.3259732,15.78750476,3.200800067,crawl
16/03/2021, 14:39:08,-10.190808,10.691368,5.575606,-0.44052452,3.2966723,0.8354347,15.78750476,3.429294606,crawl
16/03/2021, 14:39:08,-7.2832546,12.525952,4.5792775,-0.44052452,3.2966723,0.8354347,15.19588966,3.429294606,crawl
16/03/2021, 14:39:08,-7.2832546,12.525952,4.5792775,0.20943587,3.7597082,0.84765196,15.19588966,3.859764594,crawl
16/03/2021, 14:39:08,-3.9350173,12.851675,0.58677983,0.20943587,3.7597082,0.84765196,13.45340935,3.859764594,crawl
16/03/2021, 14:39:08,-3.9350173,12.851675,0.58677983,-0.84980404,3.8464508,0.24533907,13.45340935,3.946839491,crawl
16/03/2021, 14:39:08,-5.47262,10.506951,-0.79035646,-0.84980404,3.8464508,0.24533907,11.87308972,3.946839491,crawl
16/03/2021, 14:39:08,-5.47262,10.506951,-0.79035646,-2.1790464,3.6961782,0.010766893,11.87308972,4.290698355,crawl
16/03/2021, 14:39:08,-10.023157,6.133645,-0.24908204,-2.1790464,3.6961782,0.010766893,11.7536089,4.290698355,crawl
16/03/2021, 14:39:09,-0.32093263,-9.266331,-2.5770411,3.4726768,0.027322898,-2.464458,9.623358241,4.258378043,crawl
16/03/2021, 14:39:09,-0.32093263,-9.266331,-2.5770411,3.3065214,-0.17304082,-2.342285,9.623358241,4.055776823,crawl
16/03/2021, 14:39:09,-2.1698878,-10.011182,-3.5015187,3.3065214,-0.17304082,-2.342285,10.82556271,4.055776823,crawl
16/03/2021, 14:39:09,-2.1698878,-10.011182,-3.5015187,3.3040779,-0.57499,-2.0820565,10.82556271,3.947467969,crawl
16/03/2021, 14:39:09,-2.6129665,-10.528506,-3.2692018,3.3040779,-0.57499,-2.0820565,11.32981548,3.947467969,crawl
16/03/2021, 14:39:09,-2.6129665,-10.528506,-3.2692018,3.5862975,-0.9134092,-1.8096108,11.32981548,4.119531232,crawl
16/03/2021, 14:39:09,-2.430945,-11.251802,-3.7985013,3.5862975,-0.9134092,-1.8096108,12.12192902,4.119531232,crawl
16/03/2021, 14:39:09,-2.430945,-11.251802,-3.7985013,3.851413,-1.0331388,-1.5347216,12.12192902,4.272719075,crawl
16/03/2021, 14:39:09,-1.6094532,-11.220667,-3.297942,3.851413,-1.0331388,-1.5347216,11.80551252,4.272719075,crawl
16/03/2021, 14:39:09,-1.6094532,-11.220667,-3.297942,4.0994244,-1.023365,-1.3172537,11.80551252,4.425800877,crawl
16/03/2021, 14:39:09,-0.5029541,-9.635164,-3.5781593,4.0994244,-1.023365,-1.3172537,10.29041192,4.425800877,crawl
16/03/2021, 14:39:09,-0.5029541,-9.635164,-3.5781593,4.2777967,-0.94395244,-1.2134066,10.29041192,4.545651405,crawl
16/03/2021, 14:39:09,0.46942386,-8.145462,-3.63564,4.2777967,-0.94395244,-1.2134066,8.932345049,4.545651405,crawl
16/03/2021, 14:39:09,0.46942386,-8.145462,-3.63564,4.186167,-0.79001445,-1.1486549,8.932345049,4.412201623,crawl
16/03/2021, 14:39:09,0.5508545,-7.558682,-3.2452517,4.186167,-0.79001445,-1.1486549,8.244317561,4.412201623,crawl
16/03/2021, 14:39:09,0.5508545,-7.558682,-3.2452517,3.9393775,-0.67883706,-0.99227345,8.244317561,4.118752458,crawl
16/03/2021, 14:39:09,0.12933107,-7.89638,-2.1818628,3.9393775,-0.67883706,-0.99227345,8.1932941,4.118752458,crawl
16/03/2021, 14:39:09,0.12933107,-7.89638,-2.1818628,3.8685172,-0.8168925,-0.73815364,8.1932941,4.022139875,crawl
16/03/2021, 14:39:09,-0.3879932,-8.629255,-0.23710695,3.8685172,-0.8168925,-0.73815364,8.641227075,4.022139875,crawl
16/03/2021, 14:39:09,-0.3879932,-8.629255,-0.23710695,4.1165285,-1.0404692,-0.4889207,8.641227075,4.274041005,crawl
16/03/2021, 14:39:10,-10.9069195,7.92033,3.5206788,-1.5669596,3.3907456,1.4731777,13.93153615,4.015317035,crawl
16/03/2021, 14:39:10,-11.498489,6.6485744,1.1855347,-1.5669596,3.3907456,1.4731777,13.33507748,4.015317035,crawl
16/03/2021, 14:39:10,-11.498489,6.6485744,1.1855347,-1.5547422,3.267351,1.4072043,13.33507748,3.882399928,crawl
16/03/2021, 14:39:10,-11.587105,4.5816727,-1.1256592,-1.5547422,3.267351,1.4072043,12.51078857,3.882399928,crawl
16/03/2021, 14:39:10,-11.587105,4.5816727,-1.1256592,-1.9322568,3.0743175,1.132315,12.51078857,3.803574842,crawl
16/03/2021, 14:39:10,-8.188572,1.3244458,0.6586304,-1.9322568,3.0743175,1.132315,8.321097344,3.803574842,crawl
16/03/2021, 14:39:10,-8.188572,1.3244458,0.6586304,-2.3280976,3.1378474,1.0174724,8.321097344,4.037496113,crawl
16/03/2021, 14:39:10,-8.468789,1.2094849,0.9699829,-2.3280976,3.1378474,1.0174724,8.609535964,4.037496113,crawl
16/03/2021, 14:39:10,-8.468789,1.2094849,0.9699829,-2.3452017,3.2368076,1.1787407,8.609535964,4.167292194,crawl
16/03/2021, 14:39:10,-9.968072,3.2308815,3.4847536,-2.3452017,3.2368076,1.1787407,11.04285112,4.167292194,crawl
16/03/2021, 14:39:10,-9.968072,3.2308815,3.4847536,-2.1191816,3.1683908,1.0516808,11.04285112,3.954195652,crawl
16/03/2021, 14:39:10,-11.59429,3.3410523,0.94603276,-2.1191816,3.1683908,1.0516808,12.10310555,3.954195652,crawl
16/03/2021, 14:39:10,-11.59429,3.3410523,0.94603276,-3.0513616,3.2062645,0.7829003,12.10310555,4.49487177,crawl
16/03/2021, 14:39:10,-11.56555,5.1564775,1.5783179,-3.0513616,3.2062645,0.7829003,12.76096745,4.49487177,crawl
16/03/2021, 14:39:10,-11.56555,5.1564775,1.5783179,-3.3384683,3.492149,0.31009075,12.76096745,4.841139576,crawl
16/03/2021, 14:39:10,-10.480606,3.530259,2.9985645,-3.3384683,3.492149,0.31009075,11.45849993,4.841139576,crawl
16/03/2021, 14:39:10,-10.480606,3.530259,2.9985645,-3.4007764,4.104236,0.11461395,11.45849993,5.331338534,crawl
16/03/2021, 14:39:10,-9.21364,1.2094849,0.040715333,-3.4007764,4.104236,0.11461395,9.292775555,5.331338534,crawl
16/03/2021, 14:39:10,-9.21364,1.2094849,0.040715333,-3.0709093,3.855003,0.24778251,9.292775555,4.934868682,crawl
16/03/2021, 14:39:10,-11.960728,-1.5208374,2.5291407,-3.0709093,3.855003,0.24778251,12.31943611,4.934868682,crawl
16/03/2021, 14:39:11,1.5328126,-13.4671955,1.1376343,4.955857,-1.2383895,-1.0606904,13.60180433,5.217201289,crawl
16/03/2021, 14:39:11,1.4130616,-12.291241,3.4296682,4.955857,-1.2383895,-1.0606904,12.83876804,5.217201289,crawl
16/03/2021, 14:39:11,1.4130616,-12.291241,3.4296682,5.159886,-1.209068,-0.9348522,12.83876804,5.381469708,crawl
16/03/2021, 14:39:11,0.5412744,-12.547508,2.3998096,5.159886,-1.209068,-0.9348522,12.78640009,5.381469708,crawl
16/03/2021, 14:39:11,0.5412744,-12.547508,2.3998096,5.255181,-1.1699725,-0.60498506,12.78640009,5.417727224,crawl
16/03/2021, 14:39:11,0.7831714,-11.979888,3.3937428,5.255181,-1.1699725,-0.60498506,12.47591933,5.417727224,crawl
16/03/2021, 14:39:11,0.7831714,-11.979888,3.3937428,5.266176,-1.1003339,-0.2128097,12.47591933,5.384109466,crawl
16/03/2021, 14:39:11,0.4766089,-11.543995,3.187771,5.266176,-1.1003339,-0.2128097,11.98552706,5.384109466,crawl
16/03/2021, 14:39:11,0.4766089,-11.543995,3.187771,5.389571,-0.8877529,0.11827914,11.98552706,5.463476252,crawl
16/03/2021, 14:39:11,1.1927198,-10.887759,3.1255007,5.389571,-0.8877529,0.11827914,11.39011131,5.463476252,crawl
16/03/2021, 14:39:11,1.1927198,-10.887759,3.1255007,5.4005666,-0.6446286,0.4029422,11.39011131,5.453808559,crawl
16/03/2021, 14:39:11,1.1280543,-9.283096,3.2380664,5.4005666,-0.6446286,0.4029422,9.896133478,5.453808559,crawl
16/03/2021, 14:39:11,1.1280543,-9.283096,3.2380664,5.7841897,-0.42593896,0.81466526,9.896133478,5.856787002,crawl
16/03/2021, 14:39:11,0.5221143,-8.236472,4.3565407,5.7841897,-0.42593896,0.81466526,9.33228392,5.856787002,crawl
16/03/2021, 14:39:11,0.5221143,-8.236472,4.3565407,6.016319,-0.29032692,1.1787407,9.33228392,6.137573733,crawl
16/03/2021, 14:39:11,0.33530274,-7.7790236,2.804568,6.016319,-0.29032692,1.1787407,8.275943378,6.137573733,crawl
16/03/2021, 14:39:11,0.33530274,-7.7790236,2.804568,5.3785753,-0.39050877,1.331457,8.275943378,5.554668975,crawl
16/03/2021, 14:39:11,0.6442603,-7.8484793,3.2404616,5.3785753,-0.39050877,1.331457,8.515532249,5.554668975,crawl
16/03/2021, 14:39:11,0.6442603,-7.8484793,3.2404616,4.6540895,-0.5920942,1.3888783,8.515532249,4.892862883,crawl
16/03/2021, 14:39:11,0.79993653,-7.6520877,5.0918117,4.6540895,-0.5920942,1.3888783,9.22609833,4.892862883,crawl
16/03/2021, 14:39:12,-8.851993,2.6225464,4.5553274,-1.428904,3.4420583,0.9026298,10.294976,3.834615086,crawl
16/03/2021, 14:39:12,-7.5299416,4.3014555,3.1231055,-1.428904,3.4420583,0.9026298,9.217175674,3.834615086,crawl
16/03/2021, 14:39:12,-7.5299416,4.3014555,3.1231055,-0.17418736,3.389524,0.70470953,9.217175674,3.466385667,crawl
16/03/2021, 14:39:12,-6.4593678,4.591253,2.0357666,-0.17418736,3.389524,0.70470953,8.182137845,3.466385667,crawl
16/03/2021, 14:39:12,-6.4593678,4.591253,2.0357666,0.002963488,2.8886147,0.37117723,8.182137845,2.912366038,crawl
16/03/2021, 14:39:12,-9.623189,3.7386258,2.1674929,0.002963488,2.8886147,0.37117723,10.54898639,2.912366038,crawl
16/03/2021, 14:39:12,-9.623189,3.7386258,2.1674929,-0.83269984,2.6076167,0.37606415,10.54898639,2.763055903,crawl
16/03/2021, 14:39:12,-10.43031,3.2069314,3.4296682,-0.83269984,2.6076167,0.37606415,11.43846163,2.763055903,crawl
16/03/2021, 14:39:12,-10.43031,3.2069314,3.4296682,-1.628046,2.8092022,1.0162507,11.43846163,3.402192882,crawl
16/03/2021, 14:39:12,-10.825489,5.4319043,5.8198977,-1.628046,2.8092022,1.0162507,13.43755953,3.402192882,crawl
16/03/2021, 14:39:12,-10.825489,5.4319043,5.8198977,-1.1185846,3.2539117,1.2532663,13.43755953,3.661946157,crawl
16/03/2021, 14:39:12,-7.3862405,5.858218,6.71324,-1.1185846,3.2539117,1.2532663,11.57336866,3.661946157,crawl
16/03/2021, 14:39:12,-7.3862405,5.858218,6.71324,-0.2658171,3.8525596,0.82321733,11.57336866,3.94848841,crawl
16/03/2021, 14:39:12,-5.951624,4.387676,5.6857767,-0.2658171,3.8525596,0.82321733,9.327463891,3.94848841,crawl
16/03/2021, 14:39:12,-5.951624,4.387676,5.6857767,0.7115669,4.046815,0.58375823,9.327463891,4.150158087,crawl
16/03/2021, 14:39:12,-7.8556643,3.5613942,4.1146436,0.7115669,4.046815,0.58375823,9.556426181,4.150158087,crawl
16/03/2021, 14:39:12,-7.8556643,3.5613942,4.1146436,1.1758243,3.7804775,0.6827184,9.556426181,4.017546199,crawl
16/03/2021, 14:39:12,-9.057964,2.2321582,2.7087672,1.1758243,3.7804775,0.6827184,9.714250742,4.017546199,crawl
16/03/2021, 14:39:12,-9.057964,2.2321582,2.7087672,0.5674028,3.818351,0.9343948,9.714250742,3.971755796,crawl
16/03/2021, 14:39:12,-8.224498,4.3086405,4.605623,0.5674028,3.818351,0.9343948,10.36429003,3.971755796,crawl
16/03/2021, 14:39:13,1.8010547,-13.620477,-1.4154567,4.271688,-1.1821898,-1.9623271,13.81175955,4.847227945,crawl
16/03/2021, 14:39:13,1.9782863,-14.956898,-0.46463382,4.271688,-1.1821898,-1.9623271,15.0943132,4.847227945,crawl
16/03/2021, 14:39:13,1.9782863,-14.956898,-0.46463382,4.5062604,-1.018478,-1.8523715,15.0943132,4.977445154,crawl
16/03/2021, 14:39:13,2.4788454,-14.875467,0.56522465,4.5062604,-1.018478,-1.8523715,15.0911789,4.977445154,crawl
16/03/2021, 14:39:13,2.4788454,-14.875467,0.56522465,5.005948,-0.7887927,-1.8474845,15.0911789,5.393969677,crawl
16/03/2021, 14:39:13,1.949546,-14.724581,1.1088941,5.005948,-0.7887927,-1.8474845,14.89441689,5.393969677,crawl
16/03/2021, 14:39:13,1.949546,-14.724581,1.1088941,5.488531,-0.72404104,-1.8328238,14.89441689,5.831590874,crawl
16/03/2021, 14:39:13,1.7268091,-14.68626,2.3471193,5.488531,-0.72404104,-1.8328238,14.97254415,5.831590874,crawl
16/03/2021, 14:39:13,1.7268091,-14.68626,2.3471193,5.896589,-0.7387018,-1.7766242,14.97254415,6.202566682,crawl
16/03/2021, 14:39:13,1.1376343,-14.077926,2.0405567,5.896589,-0.7387018,-1.7766242,14.27046162,6.202566682,crawl
16/03/2021, 14:39:13,1.1376343,-14.077926,2.0405567,6.1384916,-0.7790189,-1.727755,14.27046162,6.424413365,crawl
16/03/2021, 14:39:13,1.5280225,-13.898299,2.2273684,6.1384916,-0.7790189,-1.727755,14.15834538,6.424413365,crawl
16/03/2021, 14:39:13,1.5280225,-13.898299,2.2273684,6.1421566,-0.8034535,-1.6752206,14.15834538,6.417007818,crawl
16/03/2021, 14:39:13,1.7220191,-13.740228,0.87897223,6.1421566,-0.8034535,-1.6752206,13.87558284,6.417007818,crawl
16/03/2021, 14:39:13,1.7220191,-13.740228,0.87897223,6.1213875,-0.87553555,-1.6410121,13.87558284,6.397723644,crawl
16/03/2021, 14:39:13,2.0932472,-13.48396,1.463357,6.1213875,-0.87553555,-1.6410121,13.72371228,6.397723644,crawl
16/03/2021, 14:39:13,2.0932472,-13.48396,1.463357,6.3425207,-0.8706486,-1.5799257,13.72371228,6.594070299,crawl
16/03/2021, 14:39:13,2.3758595,-13.208533,1.7627344,6.3425207,-0.8706486,-1.5799257,13.53577824,6.594070299,crawl
16/03/2021, 14:39:13,2.3758595,-13.208533,1.7627344,6.3144207,-0.6776153,-1.4492005,13.53577824,6.513927646,crawl
16/03/2021, 14:39:13,3.2859669,-12.569063,2.6081765,6.3144207,-0.6776153,-1.4492005,13.25071742,6.513927646,crawl
16/03/2021, 14:39:14,-12.188255,4.2152348,1.5232325,-3.081905,3.5984397,0.7865654,12.9862238,4.802665003,crawl
16/03/2021, 14:39:14,-13.735437,2.5051906,0.35685793,-3.081905,3.5984397,0.7865654,13.96658756,4.802665003,crawl
16/03/2021, 14:39:14,-13.735437,2.5051906,0.35685793,-3.0208185,3.4420583,0.93072957,13.96658756,4.673260883,crawl
16/03/2021, 14:39:14,-11.920012,2.1219873,1.5950831,-3.0208185,3.4420583,0.93072957,12.21203578,4.673260883,crawl
16/03/2021, 14:39:14,-11.920012,2.1219873,1.5950831,-2.6823993,3.2978942,0.5116762,12.21203578,4.281726848,crawl
16/03/2021, 14:39:14,-9.034014,0.014370117,-1.0418335,-2.6823993,3.2978942,0.5116762,9.093900592,4.281726848,crawl
16/03/2021, 14:39:14,-9.034014,0.014370117,-1.0418335,-3.4129937,3.4762666,0.38339454,9.093900592,4.886711245,crawl
16/03/2021, 14:39:14,-8.401729,-1.4274317,1.5328126,-3.4129937,3.4762666,0.38339454,8.658875198,4.886711245,crawl
16/03/2021, 14:39:14,-8.401729,-1.4274317,1.5328126,-3.4850757,3.4603841,0.31375593,8.658875198,4.921224831,crawl
16/03/2021, 14:39:14,-10.099798,-1.0322535,3.6979103,-3.4850757,3.4603841,0.31375593,10.80490683,4.921224831,crawl
16/03/2021, 14:39:14,-10.099798,-1.0322535,3.6979103,-3.1600957,3.8122425,0.11461395,10.80490683,4.953032816,crawl
16/03/2021, 14:39:14,-9.812395,-3.8895118,4.4738965,-3.1600957,3.8122425,0.11461395,11.46416808,4.953032816,crawl
16/03/2021, 14:39:14,-9.812395,-3.8895118,4.4738965,-2.8094592,4.765192,-0.084528044,11.46416808,5.532382953,crawl
16/03/2021, 14:39:14,-9.759705,-1.7172291,4.0882983,-2.8094592,4.765192,-0.084528044,10.71983641,5.532382953,crawl
16/03/2021, 14:39:14,-9.759705,-1.7172291,4.0882983,-2.2242506,4.7896266,-0.3386479,10.71983641,5.291738456,crawl
16/03/2021, 14:39:14,-14.161751,-4.5409575,-0.25387207,-2.2242506,4.7896266,-0.3386479,14.87413632,5.291738456,crawl
16/03/2021, 14:39:14,-14.161751,-4.5409575,-0.25387207,-2.2462416,4.2789435,0.015653813,14.87413632,4.832722218,crawl
16/03/2021, 14:39:14,-16.626226,-2.3303542,3.3338673,-2.2462416,4.2789435,0.015653813,17.11656003,4.832722218,crawl
16/03/2021, 14:39:14,-16.626226,-2.3303542,3.3338673,-2.0177782,3.841564,0.011988623,17.11656003,4.339260989,crawl
16/03/2021, 14:39:14,-14.726975,-1.9064356,5.8893533,-2.0177782,3.841564,0.011988623,15.97506759,4.339260989,crawl
16/03/2021, 14:39:15,-1.104104,-9.683064,7.30481,3.6473842,-0.71182376,0.8219956,12.17953336,3.806019065,crawl
16/03/2021, 14:39:15,-0.16525635,-9.053174,6.253396,3.6473842,-0.71182376,0.8219956,11.00419154,3.806019065,crawl
16/03/2021, 14:39:15,-0.16525635,-9.053174,6.253396,3.3737166,-0.6482938,0.7303659,11.00419154,3.51221907,crawl
16/03/2021, 14:39:15,1.1520045,-8.159832,5.47741,3.3737166,-0.6482938,0.7303659,9.89504882,3.51221907,crawl
16/03/2021, 14:39:15,1.1520045,-8.159832,5.47741,2.9754326,-0.62141573,0.6839401,9.89504882,3.115626896,crawl
16/03/2021, 14:39:15,1.6525636,-6.8761015,6.2581863,2.9754326,-0.62141573,0.6839401,9.443338095,3.115626896,crawl
16/03/2021, 14:39:15,1.6525636,-6.8761015,6.2581863,2.9253416,-0.620194,0.68027496,9.443338095,3.066763466,crawl
16/03/2021, 14:39:15,2.7901978,-6.1623855,7.1203933,2.9253416,-0.620194,0.68027496,9.821415328,3.066763466,crawl
16/03/2021, 14:39:15,2.7901978,-6.1623855,7.1203933,3.208783,-0.57376826,0.7865654,9.821415328,3.3532347,crawl
16/03/2021, 14:39:15,3.0536501,-5.9564137,8.49274,3.208783,-0.57376826,0.7865654,10.81343013,3.3532347,crawl
16/03/2021, 14:39:15,3.0536501,-5.9564137,8.49274,3.3847122,-0.4405997,0.96127284,10.81343013,3.546047148,crawl
16/03/2021, 14:39:15,2.3998096,-7.1347637,9.594449,3.3847122,-0.4405997,0.96127284,12.19497404,3.546047148,crawl
16/03/2021, 14:39:15,2.3998096,-7.1347637,9.594449,3.7231314,-0.2976573,0.9930378,12.19497404,3.864767981,crawl
16/03/2021, 14:39:15,2.2177882,-7.479646,9.18011,3.7231314,-0.2976573,0.9930378,12.04732797,3.864767981,crawl
16/03/2021, 14:39:15,2.2177882,-7.479646,9.18011,4.077433,-0.20236234,0.8036697,12.04732797,4.16080476,crawl
16/03/2021, 14:39:15,1.4250367,-7.553892,8.368198,4.077433,-0.20236234,0.8036697,11.36304362,4.16080476,crawl
16/03/2021, 14:39:15,1.4250367,-7.553892,8.368198,4.1372976,-0.21946657,0.8549823,11.36304362,4.230412748,crawl
16/03/2021, 14:39:15,1.9136207,-6.595884,7.9826,4.1372976,-0.21946657,0.8549823,10.53040997,4.230412748,crawl
16/03/2021, 14:39:15,1.9136207,-6.595884,7.9826,4.3694267,-0.28299654,1.1347585,10.53040997,4.523234877,crawl
16/03/2021, 14:39:15,3.908672,-5.122947,8.3179035,4.3694267,-0.28299654,1.1347585,10.52187363,4.523234877,crawl
16/03/2021, 14:39:16,-12.846886,-5.0606766,6.70845,-2.548009,1.818379,-0.7870228,15.35109828,3.227732444,crawl
16/03/2021, 14:39:16,-9.836346,-3.5805542,7.2329593,-2.548009,1.818379,-0.7870228,12.72359087,3.227732444,crawl
16/03/2021, 14:39:16,-9.836346,-3.5805542,7.2329593,-2.7520378,1.5593723,-0.76014477,12.72359087,3.253179047,crawl
16/03/2021, 14:39:16,-9.101074,-3.0177248,7.5083866,-2.7520378,1.5593723,-0.76014477,12.17834488,3.253179047,crawl
16/03/2021, 14:39:16,-9.101074,-3.0177248,7.5083866,-2.1106296,1.4958423,-0.63308483,12.17834488,2.663287037,crawl
16/03/2021, 14:39:16,-7.7550735,-2.0166066,9.8866415,-2.1106296,1.4958423,-0.63308483,12.72609712,2.663287037,crawl
16/03/2021, 14:39:16,-7.7550735,-2.0166066,9.8866415,-0.7862741,1.6962061,-0.6489673,12.72609712,1.979015063,crawl
16/03/2021, 14:39:16,-7.053333,-3.2069314,8.514295,-0.7862741,1.6962061,-0.6489673,11.51204262,1.979015063,crawl
16/03/2021, 14:39:16,-7.053333,-3.2069314,8.514295,-0.27436924,1.8403702,-0.8383355,11.51204262,2.040844753,crawl
16/03/2021, 14:39:16,-8.863968,-4.521797,8.143066,-0.27436924,1.8403702,-0.8383355,12.85792001,2.040844753,crawl
16/03/2021, 14:39:16,-8.863968,-4.521797,8.143066,-0.32323843,1.8513658,-0.97639096,12.85792001,2.117871037,crawl
16/03/2021, 14:39:16,-10.054293,-4.8211746,9.201666,-0.32323843,1.8513658,-0.97639096,14.45694231,2.117871037,crawl
16/03/2021, 14:39:16,-10.054293,-4.8211746,9.201666,-0.4686243,1.9869778,-0.9727258,14.45694231,2.261390074,crawl
16/03/2021, 14:39:16,-9.83874,-3.6260598,8.3322735,-0.4686243,1.9869778,-0.9727258,13.39312893,2.261390074,crawl
16/03/2021, 14:39:16,-9.83874,-3.6260598,8.3322735,-0.41853338,2.234989,-1.0264819,13.39312893,2.49479673,crawl
16/03/2021, 14:39:16,-8.880733,-2.203418,8.025711,-0.41853338,2.234989,-1.0264819,12.17105169,2.49479673,crawl
16/03/2021, 14:39:16,-8.880733,-2.203418,8.025711,-0.06911859,2.4365745,-1.1181116,12.17105169,2.681761743,crawl
16/03/2021, 14:39:16,-7.8341093,-1.7028589,6.231841,-0.06911859,2.4365745,-1.1181116,10.15425233,2.681761743,crawl
16/03/2021, 14:39:16,-7.8341093,-1.7028589,6.231841,0.3291654,2.5257607,-1.2720497,10.15425233,2.847090985,crawl
16/03/2021, 14:39:16,-7.5083866,-1.8441651,5.213958,0.3291654,2.5257607,-1.2720497,9.325350941,2.847090985,crawl
16/03/2021, 14:39:17,-8.020921,6.600674,5.4486694,1.7512592,1.7731751,3.1274004,11.72996452,3.998961374,crawl
16/03/2021, 14:39:17,-7.9730206,7.0293827,5.934859,1.7512592,1.7731751,3.1274004,12.17389941,3.998961374,crawl
16/03/2021, 14:39:17,-7.9730206,7.0293827,5.934859,1.9064189,1.9918647,3.2996643,12.17389941,4.299970026,crawl
16/03/2021, 14:39:17,-8.193362,7.2640944,5.0510964,1.9064189,1.9918647,3.2996643,12.05868263,4.299970026,crawl
16/03/2021, 14:39:17,-8.193362,7.2640944,5.0510964,1.9992703,2.4549005,3.2043693,12.05868263,4.504619956,crawl
16/03/2021, 14:39:17,-8.643626,7.302415,5.1636624,1.9992703,2.4549005,3.2043693,12.43788355,4.504619956,crawl
16/03/2021, 14:39:17,-8.643626,7.302415,5.1636624,2.1886384,2.845854,2.9563582,12.43788355,4.65070718,crawl
16/03/2021, 14:39:17,-8.765772,7.510782,4.5888577,2.1886384,2.845854,2.9563582,12.42208572,4.65070718,crawl
16/03/2021, 14:39:17,-8.765772,7.510782,4.5888577,2.4073281,2.9875748,2.7914245,12.42208572,4.744774263,crawl
16/03/2021, 14:39:17,-8.018526,7.795789,4.3062453,2.4073281,2.9875748,2.7914245,11.98394058,4.744774263,crawl
16/03/2021, 14:39:17,-8.018526,7.795789,4.3062453,2.7933948,2.7884326,2.7413337,11.98394058,4.80555111,crawl
16/03/2021, 14:39:17,-7.565867,9.570498,4.3541455,2.7933948,2.7884326,2.7413337,12.9535851,4.80555111,crawl
16/03/2021, 14:39:17,-7.565867,9.570498,4.3541455,3.3040779,2.4573438,2.6411517,12.9535851,4.891947597,crawl
16/03/2021, 14:39:17,-7.117998,9.692644,5.1660576,3.3040779,2.4573438,2.6411517,13.08821601,4.891947597,crawl
16/03/2021, 14:39:17,-7.117998,9.692644,5.1660576,3.6938097,2.3229535,2.4664443,13.08821601,5.012353788,crawl
16/03/2021, 14:39:17,-7.8604546,7.206614,5.8917484,3.6938097,2.3229535,2.4664443,12.18337929,5.012353788,crawl
16/03/2021, 14:39:17,-7.8604546,7.206614,5.8917484,3.66571,2.402366,2.6301563,12.18337929,5.111410146,crawl
16/03/2021, 14:39:17,-10.008787,6.6533647,6.5384035,3.66571,2.402366,2.6301563,13.6818786,5.111410146,crawl
16/03/2021, 14:39:17,-10.008787,6.6533647,6.5384035,3.3333995,2.6357164,3.033327,13.6818786,5.221075264,crawl
16/03/2021, 14:39:17,-9.445957,9.137,6.023474,3.3333995,2.6357164,3.033327,14.45659432,5.221075264,crawl
16/03/2021, 14:39:18,-8.787327,1.1591895,-4.598438,-1.28474,1.4970641,-2.9226067,9.985312354,3.526100922,crawl
16/03/2021, 14:39:18,-8.720266,0.62031007,-5.295388,-1.28474,1.4970641,-2.9226067,10.22100612,3.526100922,crawl
16/03/2021, 14:39:18,-8.720266,0.62031007,-5.295388,-1.3140614,1.5935807,-3.129079,10.22100612,3.749318995,crawl
16/03/2021, 14:39:18,-9.192085,-0.17244141,-6.0833497,-1.3140614,1.5935807,-3.129079,11.02412406,3.749318995,crawl
16/03/2021, 14:39:18,-9.192085,-0.17244141,-6.0833497,-1.1967753,1.4152082,-3.2634695,11.02412406,3.753041216,crawl
16/03/2021, 14:39:18,-9.934542,-1.2549903,-6.8832865,-1.1967753,1.4152082,-3.2634695,12.15112144,3.753041216,crawl
16/03/2021, 14:39:18,-9.934542,-1.2549903,-6.8832865,-1.0636067,1.1281016,-3.1009793,12.15112144,3.466979273,crawl
16/03/2021, 14:39:18,-10.583591,-2.4045997,-6.9311867,-1.0636067,1.1281016,-3.1009793,12.87772715,3.466979273,crawl
16/03/2021, 14:39:18,-10.583591,-2.4045997,-6.9311867,-0.759396,0.7310394,-2.7527864,12.87772715,2.94769976,crawl
16/03/2021, 14:39:18,-10.583591,-2.4045997,-6.9311867,-0.15219623,0.49035856,-2.4632363,12.87772715,2.516177346,crawl
16/03/2021, 14:39:18,-10.243499,-3.1542408,-6.0450296,-0.15219623,0.49035856,-2.4632363,12.30531943,2.516177346,crawl
16/03/2021, 14:39:18,-9.601634,-3.2069314,-4.7301636,-0.15219623,0.49035856,-2.4632363,11.17364006,2.516177346,crawl
16/03/2021, 14:39:18,-9.601634,-3.2069314,-4.7301636,0.52952915,0.41216785,-2.27509,11.17364006,2.371986061,crawl
16/03/2021, 14:39:18,-9.462723,-2.44771,-5.2043777,0.52952915,0.41216785,-2.27509,11.07338943,2.371986061,crawl
16/03/2021, 14:39:18,-9.462723,-2.44771,-5.2043777,1.1465029,0.42805034,-2.242103,11.07338943,2.554353577,crawl
16/03/2021, 14:39:18,-8.123906,-0.6514453,-5.5396805,1.1465029,0.42805034,-2.242103,9.854455426,2.554353577,crawl
16/03/2021, 14:39:18,-8.123906,-0.6514453,-5.5396805,1.5960995,0.5392278,-2.4400234,9.854455426,2.965133134,crawl
16/03/2021, 14:39:18,-7.688013,-0.00239502,-5.8749833,1.5960995,0.5392278,-2.4400234,9.675793492,2.965133134,crawl
16/03/2021, 14:39:18,-7.688013,-0.00239502,-5.8749833,1.8221195,0.7017179,-2.5902963,9.675793492,3.243788243,crawl
16/03/2021, 14:39:18,-7.1132083,0.32093263,-6.485713,1.8221195,0.7017179,-2.5902963,9.631469419,3.243788243,crawl
16/03/2021, 14:39:19,-10.772799,2.7494826,8.6627865,6.7444696,2.139694,2.3699276,14.09456323,7.462085373,crawl
16/03/2021, 14:39:19,-10.360855,2.6321266,8.368198,6.7444696,2.139694,2.3699276,13.57579291,7.462085373,crawl
16/03/2021, 14:39:19,-10.360855,2.6321266,8.368198,7.1745186,2.2740843,2.2990673,13.57579291,7.869617953,crawl
16/03/2021, 14:39:19,-9.630374,2.8285182,7.6137676,7.1745186,2.2740843,2.2990673,12.59817744,7.869617953,crawl
16/03/2021, 14:39:19,-9.630374,2.8285182,7.6137676,6.8800817,2.5257607,2.000965,12.59817744,7.597292401,crawl
16/03/2021, 14:39:19,-9.366921,3.8727467,7.549102,6.8800817,2.5257607,2.000965,12.63828796,7.597292401,crawl
16/03/2021, 14:39:19,-9.366921,3.8727467,7.549102,6.0725183,2.8336368,1.7444018,12.63828796,6.924443232,crawl
16/03/2021, 14:39:19,-9.673484,5.113367,7.2114043,6.0725183,2.8336368,1.7444018,13.10447118,6.924443232,crawl
16/03/2021, 14:39:19,-9.673484,5.113367,7.2114043,5.1159034,2.9521446,1.74318,13.10447118,6.158433395,crawl
16/03/2021, 14:39:19,-9.802815,6.725215,6.871311,5.1159034,2.9521446,1.74318,13.73093676,6.158433395,crawl
16/03/2021, 14:39:19,-9.802815,6.725215,6.871311,3.9039474,2.7774372,1.8531357,13.73093676,5.137029719,crawl
16/03/2021, 14:39:19,-9.733359,7.7143583,6.6174393,3.9039474,2.7774372,1.8531357,14.07267249,5.137029719,crawl
16/03/2021, 14:39:19,-9.733359,7.7143583,6.6174393,2.4720798,2.316845,1.8726834,14.07267249,3.871161573,crawl
16/03/2021, 14:39:19,-9.350157,8.758587,6.686895,2.4720798,2.316845,1.8726834,14.45174174,3.871161573,crawl
16/03/2021, 14:39:19,-9.350157,8.758587,6.686895,1.4238355,1.9063436,1.7248541,14.45174174,2.938805051,crawl
16/03/2021, 14:39:19,-8.708291,8.58854,6.6533647,1.4238355,1.9063436,1.7248541,13.92352739,2.938805051,crawl
16/03/2021, 14:39:19,-8.708291,8.58854,6.6533647,0.8105271,1.5813634,1.6417764,13.92352739,2.419316923,crawl
16/03/2021, 14:39:19,-7.9538603,7.7335186,5.716912,0.8105271,1.5813634,1.6417764,12.4801556,2.419316923,crawl
16/03/2021, 14:39:19,-7.9538603,7.7335186,5.716912,0.24730949,1.374891,1.6307809,12.4801556,2.147308507,crawl
16/03/2021, 14:39:19,-6.6773148,6.5455885,4.754114,0.24730949,1.374891,1.6307809,10.48965502,2.147308507,crawl
16/03/2021, 14:39:20,-9.616004,4.181704,-2.1746778,0.24120083,2.3107362,-2.9177198,10.70903381,3.729714279,crawl
16/03/2021, 14:39:20,-9.7812605,5.633086,-3.2332766,0.24120083,2.3107362,-2.9177198,11.74132848,3.729714279,crawl
16/03/2021, 14:39:20,-9.7812605,5.633086,-3.2332766,0.9009351,2.2777495,-3.071658,11.74132848,3.928728709,crawl
16/03/2021, 14:39:20,-10.121353,5.1636624,-5.094207,0.9009351,2.2777495,-3.071658,12.45215412,3.928728709,crawl
16/03/2021, 14:39:20,-10.121353,5.1636624,-5.094207,1.2845583,2.0248516,-3.2683563,12.45215412,4.053673262,crawl
16/03/2021, 14:39:20,-11.045831,2.9003687,-7.335945,1.2845583,2.0248516,-3.2683563,13.57345225,4.053673262,crawl
16/03/2021, 14:39:20,-11.045831,2.9003687,-7.335945,1.1562767,1.6681063,-3.0924273,13.57345225,3.699008086,crawl
16/03/2021, 14:39:20,-11.852952,1.9327809,-7.3096,1.1562767,1.6681063,-3.0924273,14.05910251,3.699008086,crawl
16/03/2021, 14:39:20,-11.852952,1.9327809,-7.3096,0.964465,1.470186,-2.6159525,14.05910251,3.151959244,crawl
16/03/2021, 14:39:20,-11.644586,2.9770093,-6.952742,0.964465,1.470186,-2.6159525,13.88522888,3.151959244,crawl
16/03/2021, 14:39:20,-11.644586,2.9770093,-6.952742,1.1159595,1.5276073,-2.2054513,13.88522888,2.905678063,crawl
16/03/2021, 14:39:20,-9.788445,3.6092947,-7.965835,1.1159595,1.5276073,-2.2054513,13.12612667,2.905678063,crawl
16/03/2021, 14:39:20,-9.788445,3.6092947,-7.965835,1.1122944,1.791501,-2.4693449,13.12612667,3.247204785,crawl
16/03/2021, 14:39:20,-7.4844365,2.7638526,-7.446116,1.1122944,1.791501,-2.4693449,10.91330904,3.247204785,crawl
16/03/2021, 14:39:20,-7.4844365,2.7638526,-7.446116,0.7641013,2.2435412,-3.0154583,10.91330904,3.83540313,crawl
16/03/2021, 14:39:20,-6.864126,0.8262818,-7.3790555,0.7641013,2.2435412,-3.0154583,10.11184603,3.83540313,crawl
16/03/2021, 14:39:20,-6.864126,0.8262818,-7.3790555,0.42812553,2.7126853,-3.093649,10.11184603,4.136739881,crawl
16/03/2021, 14:39:20,-7.91075,-0.6562354,-6.7395854,0.42812553,2.7126853,-3.093649,10.4130985,4.136739881,crawl
16/03/2021, 14:39:20,-7.91075,-0.6562354,-6.7395854,0.27907446,2.9912398,-2.7662253,10.4130985,4.08379733,crawl
16/03/2021, 14:39:20,-8.346643,-0.48618898,-6.303692,0.27907446,2.9912398,-2.7662253,10.4708819,4.08379733,crawl
16/03/2021, 14:39:21,-5.613926,4.514612,5.2738333,2.7005434,1.6583325,2.3845885,8.928113188,3.966013548,crawl
16/03/2021, 14:39:21,-5.613926,4.514612,5.2738333,2.4513104,1.8745787,2.2501981,8.928113188,3.819209293,crawl
16/03/2021, 14:39:21,-7.1347637,3.412903,4.8594947,2.4513104,1.8745787,2.2501981,9.282642365,3.819209293,crawl
16/03/2021, 14:39:21,-7.1347637,3.412903,4.8594947,2.1263301,2.1739025,2.2575285,9.282642365,3.787290206,crawl
16/03/2021, 14:39:21,-8.605306,2.9770093,5.213958,2.1263301,2.1739025,2.2575285,10.49281782,3.787290206,crawl
16/03/2021, 14:39:21,-8.605306,2.9770093,5.213958,1.8978667,2.4903307,2.423684,10.49281782,3.959531367,crawl
16/03/2021, 14:39:21,-9.251961,3.8296363,5.0918117,1.8978667,2.4903307,2.423684,11.23349626,3.959531367,crawl
16/03/2021, 14:39:21,-9.251961,3.8296363,5.0918117,1.8306717,2.7481155,2.495766,11.23349626,4.139123739,crawl
16/03/2021, 14:39:21,-9.83874,4.6894484,5.005591,1.8306717,2.7481155,2.495766,11.99365157,4.139123739,crawl
16/03/2021, 14:39:21,-9.83874,4.6894484,5.005591,1.9528446,2.9778008,2.4505618,11.99365157,4.322748308,crawl
16/03/2021, 14:39:21,-9.642349,5.6354814,4.152964,1.9528446,2.9778008,2.4505618,11.91556377,4.322748308,crawl
16/03/2021, 14:39:21,-9.642349,5.6354814,4.152964,1.9931617,3.1073043,2.3247237,11.91556377,4.362610925,crawl
16/03/2021, 14:39:21,-9.642349,5.225933,3.4440382,1.9931617,3.1073043,2.3247237,11.4955067,4.362610925,crawl
16/03/2021, 14:39:21,-9.642349,5.225933,3.4440382,1.8453324,3.1781645,2.3662624,11.4955067,4.370947151,crawl
16/03/2021, 14:39:21,-8.923843,5.000801,3.0967603,1.8453324,3.1781645,2.3662624,10.68798,4.370947151,crawl
16/03/2021, 14:39:21,-8.923843,5.000801,3.0967603,1.5899909,3.1060824,2.3222802,10.68798,4.191515742,crawl
16/03/2021, 14:39:21,-8.55501,6.08814,2.2608986,1.5899909,3.1060824,2.3222802,10.74082421,4.191515742,crawl
16/03/2021, 14:39:21,-8.55501,6.08814,2.2608986,1.4995828,2.9802444,2.0168476,10.74082421,3.898497074,crawl
16/03/2021, 14:39:21,-7.94428,6.7707205,2.6177564,1.4995828,2.9802444,2.0168476,10.76136103,3.898497074,crawl
16/03/2021, 14:39:21,-7.94428,6.7707205,2.6177564,1.543565,2.8409672,1.6197853,10.76136103,3.616267685,crawl
16/03/2021, 14:39:22,-10.059082,1.9423609,-1.463357,0.4745513,1.8941263,-1.9977573,10.34887968,2.793554661,crawl
16/03/2021, 14:39:22,-10.059082,1.9423609,-1.463357,0.5368595,1.8037183,-1.9513315,10.34887968,2.710961555,crawl
16/03/2021, 14:39:22,-10.466236,2.1124072,-1.7220191,0.5368595,1.8037183,-1.9513315,10.81525369,2.710961555,crawl
16/03/2021, 14:39:22,-10.466236,2.1124072,-1.7220191,0.6003895,1.7572926,-1.8425976,10.81525369,2.616048707,crawl
16/03/2021, 14:39:22,-10.025552,2.6512868,-1.7986598,0.6003895,1.7572926,-1.8425976,10.52502674,2.616048707,crawl
16/03/2021, 14:39:22,-10.025552,2.6512868,-1.7986598,0.7091235,1.7670664,-1.8254933,10.52502674,2.63776526,crawl
16/03/2021, 14:39:22,-9.342972,3.4655933,-1.5304176,0.7091235,1.7670664,-1.8254933,10.08184691,2.63776526,crawl
16/03/2021, 14:39:22,-9.342972,3.4655933,-1.5304176,0.74944055,1.9051219,-1.895132,10.08184691,2.78974475,crawl
16/03/2021, 14:39:22,-8.8879175,4.040398,-2.2393434,0.74944055,1.9051219,-1.895132,10.01671372,2.78974475,crawl
16/03/2021, 14:39:22,-8.8879175,4.040398,-2.2393434,0.49287722,2.0529513,-2.002644,10.01671372,2.910003501,crawl
16/03/2021, 14:39:22,-9.223221,4.0882983,-2.9841945,0.49287722,2.0529513,-2.002644,10.52080807,2.910003501,crawl
16/03/2021, 14:39:22,-9.223221,4.0882983,-2.9841945,0.04328058,2.085938,-2.0405178,10.52080807,2.918342573,crawl
16/03/2021, 14:39:22,-9.201666,4.2224197,-3.422483,0.04328058,2.085938,-2.0405178,10.6870423,2.918342573,crawl
16/03/2021, 14:39:22,-9.201666,4.2224197,-3.422483,-0.43319413,2.0908248,-2.1468081,10.6870423,3.027869036,crawl
16/03/2021, 14:39:22,-9.259146,3.2284865,-3.65959,-0.43319413,2.0908248,-2.1468081,10.46649436,3.027869036,crawl
16/03/2021, 14:39:22,-9.259146,3.2284865,-3.65959,-0.9218861,2.15802,-2.2726464,10.46649436,3.26677917,crawl
16/03/2021, 14:39:22,-9.419612,2.4189699,-3.06323,-0.9218861,2.15802,-2.2726464,10.19626806,3.26677917,crawl
16/03/2021, 14:39:22,-9.419612,2.4189699,-3.06323,-1.152793,2.3107362,-2.2482119,10.19626806,3.423870628,crawl
16/03/2021, 14:39:22,-9.426797,2.3303542,-2.938689,-1.152793,2.3107362,-2.2482119,10.14548884,3.423870628,crawl
16/03/2021, 14:39:22,-9.426797,2.3303542,-2.938689,-0.98785955,2.4622307,-2.143143,10.14548884,3.410499681,crawl
16/03/2021, 14:39:23,-2.8476784,-2.059717,9.625584,7.6424413,1.3614521,2.5092049,10.24712481,8.158220976,crawl
16/03/2021, 14:39:23,-2.8476784,-2.059717,9.625584,7.3504477,1.4946206,2.4664443,10.24712481,7.895968503,crawl
16/03/2021, 14:39:23,-3.0704153,-0.20118165,8.861572,7.3504477,1.4946206,2.4664443,9.380585639,7.895968503,crawl
16/03/2021, 14:39:23,-3.0704153,-0.20118165,8.861572,6.927729,1.7206407,2.440788,9.380585639,7.543969869,crawl
16/03/2021, 14:39:23,-3.4799635,1.4418018,8.689131,6.927729,1.7206407,2.440788,9.470476884,7.543969869,crawl
16/03/2021, 14:39:23,-3.4799635,1.4418018,8.689131,6.221569,2.0199645,2.4896572,9.470476884,6.999040704,crawl
16/03/2021, 14:39:23,-4.567302,2.6201515,8.145462,6.221569,2.0199645,2.4896572,9.699174986,6.999040704,crawl
16/03/2021, 14:39:23,-4.567302,2.6201515,8.145462,5.5545044,2.1054857,2.517757,9.699174986,6.451719849,crawl
16/03/2021, 14:39:23,-6.464158,3.439248,8.270002,5.5545044,2.1054857,2.517757,11.04566458,6.451719849,crawl
16/03/2021, 14:39:23,-6.464158,3.439248,8.270002,4.8703356,1.9564346,2.5116484,11.04566458,5.818606602,crawl
16/03/2021, 14:39:23,-7.1275783,3.776946,8.090376,4.8703356,1.9564346,2.5116484,11.42461709,5.818606602,crawl
16/03/2021, 14:39:23,-7.1275783,3.776946,8.090376,4.0248985,1.9039001,2.3882537,11.42461709,5.052563668,crawl
16/03/2021, 14:39:23,-8.190968,3.5134938,9.101074,4.0248985,1.9039001,2.3882537,12.73837274,5.052563668,crawl
16/03/2021, 14:39:23,-8.190968,3.5134938,9.101074,3.3016346,1.8929046,2.3381627,12.73837274,4.466641166,crawl
16/03/2021, 14:39:23,-9.086704,3.6811452,9.053174,3.3016346,1.8929046,2.3381627,13.34462378,4.466641166,crawl
16/03/2021, 14:39:23,-9.086704,3.6811452,9.053174,2.8129425,1.9417738,2.3173933,13.34462378,4.129581412,crawl
16/03/2021, 14:39:23,-9.857901,4.129014,9.0076685,2.8129425,1.9417738,2.3173933,13.97730493,4.129581412,crawl
16/03/2021, 14:39:23,-9.857901,4.129014,9.0076685,2.3841152,2.0346253,2.3540452,13.97730493,3.919851277,crawl
16/03/2021, 14:39:23,-10.866204,5.017566,8.698711,2.3841152,2.0346253,2.3540452,14.79587597,3.919851277,crawl
16/03/2021, 14:39:23,-10.866204,5.017566,8.698711,1.8929799,2.1995587,2.4175751,14.79587597,3.777049225,crawl
16/03/2021, 14:39:24,-8.059241,-7.443721,-0.028740235,-1.5913942,1.8623613,-2.9507065,10.97092411,3.83504809,crawl
16/03/2021, 14:39:24,-8.059241,-7.443721,-0.028740235,-1.651259,1.8440354,-2.9238286,10.97092411,3.830913247,crawl
16/03/2021, 14:39:24,-7.8580594,-7.893985,0.15088624,-1.651259,1.8440354,-2.9238286,11.13942818,3.830913247,crawl
16/03/2021, 14:39:24,-7.8580594,-7.893985,0.15088624,-1.4411213,1.9417738,-2.8138728,11.13942818,3.710147748,crawl
16/03/2021, 14:39:24,-7.656878,-7.1874537,-0.10538086,-1.4411213,1.9417738,-2.8138728,10.50230342,3.710147748,crawl
16/03/2021, 14:39:24,-7.656878,-7.1874537,-0.10538086,-0.9047819,2.0590599,-2.695365,10.50230342,3.510462928,crawl
16/03/2021, 14:39:24,-8.087981,-6.337222,-0.07424561,-0.9047819,2.0590599,-2.695365,10.27527793,3.510462928,crawl
16/03/2021, 14:39:24,-8.087981,-6.337222,-0.07424561,-0.20595235,2.1335855,-2.5512009,10.27527793,3.332150824,crawl
16/03/2021, 14:39:24,-8.629255,-5.4486694,-1.2478052,-0.20595235,2.1335855,-2.5512009,10.2814913,3.332150824,crawl
16/03/2021, 14:39:24,-8.629255,-5.4486694,-1.2478052,0.5380813,2.0248516,-2.5206575,10.2814913,3.277692747,crawl
16/03/2021, 14:39:24,-8.739427,-3.887117,-1.5256275,0.5380813,2.0248516,-2.5206575,9.685803768,3.277692747,crawl
16/03/2021, 14:39:24,-8.739427,-3.887117,-1.5256275,1.4678178,1.8574744,-2.4974446,9.685803768,3.441210549,crawl
16/03/2021, 14:39:24,-8.473579,-3.427273,-3.1446607,1.4678178,1.8574744,-2.4974446,9.666262949,3.441210549,crawl
16/03/2021, 14:39:24,-8.473579,-3.427273,-3.1446607,1.9125276,1.7267493,-2.4815621,9.666262949,3.577369909,crawl
16/03/2021, 14:39:24,-8.562195,-4.0763235,-4.4283915,1.9125276,1.7267493,-2.4815621,10.466052,3.577369909,crawl
16/03/2021, 14:39:24,-8.562195,-4.0763235,-4.4283915,1.6571859,1.8281529,-2.4180324,10.466052,3.454748743,crawl
16/03/2021, 14:39:24,-7.9778104,-3.3602126,-4.0859036,1.6571859,1.8281529,-2.4180324,9.572413258,3.454748743,crawl
16/03/2021, 14:39:24,-7.9778104,-3.3602126,-4.0859036,1.3603055,2.1836762,-2.3887107,9.572413258,3.510671176,crawl
16/03/2021, 14:39:24,-7.4125857,-1.8824854,-3.803291,1.3603055,2.1836762,-2.3887107,8.541381714,3.510671176,crawl
16/03/2021, 14:39:24,-7.4125857,-1.8824854,-3.803291,1.1807113,2.501326,-2.5011098,8.541381714,3.729110042,crawl
16/03/2021, 14:39:25,-4.4355764,5.846243,1.8513502,0.056719612,1.4225385,1.3241266,7.568381066,1.944259296,crawl
16/03/2021, 14:39:25,-4.790039,4.4547367,1.9088306,0.056719612,1.4225385,1.3241266,6.814160828,1.944259296,crawl
16/03/2021, 14:39:25,-4.790039,4.4547367,1.9088306,-0.36477724,1.605798,1.4133129,6.814160828,2.170046787,crawl
16/03/2021, 14:39:25,-6.11688,4.993616,3.7146754,-0.36477724,1.605798,1.4133129,8.726467528,2.170046787,crawl
16/03/2021, 14:39:25,-6.11688,4.993616,3.7146754,-0.06789686,1.8635831,1.7810537,8.726467528,2.57870201,crawl
16/03/2021, 14:39:25,-6.871311,6.821016,4.1553593,-0.06789686,1.8635831,1.7810537,10.53604219,2.57870201,crawl
16/03/2021, 14:39:25,-6.871311,6.821016,4.1553593,0.9595781,2.0028603,2.0889297,10.53604219,3.048912369,crawl
16/03/2021, 14:39:25,-5.7887626,9.273516,3.6691701,0.9595781,2.0028603,2.0889297,11.53129113,3.048912369,crawl
16/03/2021, 14:39:25,-5.7887626,9.273516,3.6691701,2.1764212,1.7890576,1.9435438,11.53129113,3.42270342,crawl
16/03/2021, 14:39:25,-4.3469605,9.182506,2.193838,2.1764212,1.7890576,1.9435438,10.39362304,3.42270342,crawl
16/03/2021, 14:39:25,-4.3469605,9.182506,2.193838,2.5185056,1.5080596,1.5843551,10.39362304,3.335760075,crawl
16/03/2021, 14:39:25,-3.544629,7.683223,0.6394702,2.5185056,1.5080596,1.5843551,8.485589534,3.335760075,crawl
16/03/2021, 14:39:25,-3.544629,7.683223,0.6394702,1.6694033,1.3773345,1.467069,8.485589534,2.614622195,crawl
16/03/2021, 14:39:25,-3.5709743,7.1156034,0.6586304,1.6694033,1.3773345,1.467069,7.988583366,2.614622195,crawl
16/03/2021, 14:39:25,-3.5709743,7.1156034,0.6586304,0.6590325,1.533716,1.5513685,7.988583366,2.27889286,crawl
16/03/2021, 14:39:25,-4.397256,7.089258,3.0033545,0.6590325,1.533716,1.5513685,8.866429931,2.27889286,crawl
16/03/2021, 14:39:25,-4.397256,7.089258,3.0033545,0.25219643,2.0077472,1.7810537,8.866429931,2.695701003,crawl
16/03/2021, 14:39:25,-5.225933,7.4940166,3.8176613,0.25219643,2.0077472,1.7810537,9.901777603,2.695701003,crawl
16/03/2021, 14:39:25,-5.225933,7.4940166,3.8176613,0.85206586,2.6271644,1.9007832,9.901777603,3.352757899,crawl
16/03/2021, 14:39:25,-5.3145485,7.7287283,2.4261549,0.85206586,2.6271644,1.9007832,9.688338046,3.352757899,crawl
16/03/2021, 14:39:26,-7.189849,-5.728887,-7.3096,1.6510773,1.3186915,-2.9812498,11.74497019,3.654155693,crawl
16/03/2021, 14:39:26,-6.919212,-5.237908,-5.5947657,1.6510773,1.3186915,-2.9812498,10.32533654,3.654155693,crawl
16/03/2021, 14:39:26,-6.919212,-5.237908,-5.5947657,1.7378201,1.1085539,-2.958037,10.32533654,3.605397743,crawl
16/03/2021, 14:39:26,-5.613926,-5.5947657,-6.241421,1.7378201,1.1085539,-2.958037,10.08825585,3.605397743,crawl
16/03/2021, 14:39:26,-5.613926,-5.5947657,-6.241421,1.4898089,0.7090483,-3.197496,10.08825585,3.598091206,crawl
16/03/2021, 14:39:26,-4.30385,-5.6977515,-4.6822634,1.4898089,0.7090483,-3.197496,8.538799039,3.598091206,crawl
16/03/2021, 14:39:26,-4.30385,-5.6977515,-4.6822634,1.2772279,0.06519653,-3.609219,8.538799039,3.82910224,crawl
16/03/2021, 14:39:26,-4.543352,-6.2773466,-1.585503,1.2772279,0.06519653,-3.609219,7.909547947,3.82910224,crawl
16/03/2021, 14:39:26,-4.543352,-6.2773466,-1.585503,1.7317115,-0.683724,-3.672749,7.909547947,4.117692164,crawl
16/03/2021, 14:39:26,-5.9300685,-8.274793,2.4956105,1.7317115,-0.683724,-3.672749,10.48169727,4.117692164,crawl
16/03/2021, 14:39:26,-5.9300685,-8.274793,2.4956105,2.629683,-0.9427307,-3.107088,10.48169727,4.178273613,crawl
16/03/2021, 14:39:26,-4.9481106,-9.536968,1.951941,2.629683,-0.9427307,-3.107088,10.92005655,4.178273613,crawl
16/03/2021, 14:39:26,-4.9481106,-9.536968,1.951941,2.9216764,-0.7631364,-2.79066,10.92005655,4.111733554,crawl
16/03/2021, 14:39:26,-2.5363257,-8.087981,-0.9963282,2.9216764,-0.7631364,-2.79066,8.534697308,4.111733554,crawl
16/03/2021, 14:39:26,-2.5363257,-8.087981,-0.9963282,2.5673747,-0.47480816,-3.265913,8.534697308,4.181272947,crawl
16/03/2021, 14:39:26,-0.6442603,-6.8114357,-2.8596535,2.5673747,-0.47480816,-3.265913,7.415412705,4.181272947,crawl
16/03/2021, 14:39:26,-0.6442603,-6.8114357,-2.8596535,2.1153345,-0.18281466,-4.01239,7.415412705,4.539530361,crawl
16/03/2021, 14:39:26,-1.4705421,-6.864126,-3.791316,2.1153345,-0.18281466,-4.01239,7.978270477,4.539530361,crawl
16/03/2021, 14:39:26,-1.4705421,-6.864126,-3.791316,1.684064,-7.77E-04,-4.2323017,7.978270477,4.555046657,crawl
16/03/2021, 14:39:26,-3.051255,-7.9227247,-3.7529957,1.684064,-7.77E-04,-4.2323017,9.28249433,4.555046657,crawl
16/03/2021, 14:39:27,-5.5444703,8.4304695,1.3148658,2.3340242,3.0645437,-0.16149704,10.1756002,3.855538672,crawl
16/03/2021, 14:39:27,-5.336104,9.036409,1.2549903,2.3340242,3.0645437,-0.16149704,10.56909174,3.855538672,crawl
16/03/2021, 14:39:27,-5.336104,9.036409,1.2549903,2.9082375,3.0889783,0.32230803,10.56909174,4.254822494,crawl
16/03/2021, 14:39:27,-5.6570363,11.134446,0.16046631,2.9082375,3.0889783,0.32230803,12.49014412,4.254822494,crawl
16/03/2021, 14:39:27,-5.6570363,11.134446,0.16046631,3.2747564,3.0034573,0.73891795,12.49014412,4.504529411,crawl
16/03/2021, 14:39:27,-6.1599903,15.450272,-0.5388794,3.2747564,3.0034573,0.73891795,16.64171759,4.504529411,crawl
16/03/2021, 14:39:27,-6.1599903,15.450272,-0.5388794,3.3932643,2.8067586,0.9429469,16.64171759,4.503474827,crawl
16/03/2021, 14:39:27,-5.8342676,17.469273,-2.7806177,3.3932643,2.8067586,0.9429469,18.62648649,4.503474827,crawl
16/03/2021, 14:39:27,-5.8342676,17.469273,-2.7806177,2.7811775,2.6503773,0.7438049,18.62648649,3.913143721,crawl
16/03/2021, 14:39:27,-5.278623,17.972227,-3.4608033,2.7811775,2.6503773,0.7438049,19.04841117,3.913143721,crawl
16/03/2021, 14:39:27,-5.278623,17.972227,-3.4608033,1.8636583,2.6186123,0.40416396,19.04841117,3.239398265,crawl
16/03/2021, 14:39:27,-5.6594315,17.6489,-3.3985329,1.8636583,2.6186123,0.40416396,18.84311091,3.239398265,crawl
16/03/2021, 14:39:27,-5.6594315,17.6489,-3.3985329,1.2442412,2.5917342,0.2465608,18.84311091,2.885483408,crawl
16/03/2021, 14:39:27,-5.50136,15.112574,-2.9746144,1.2442412,2.5917342,0.2465608,16.35552425,2.885483408,crawl
16/03/2021, 14:39:27,-5.50136,15.112574,-2.9746144,0.78609246,2.606395,0.25877807,16.35552425,2.734630207,crawl
16/03/2021, 14:39:27,-5.470225,9.362132,-3.1542408,0.78609246,2.606395,0.25877807,11.2925689,2.734630207,crawl
16/03/2021, 14:39:27,-5.470225,9.362132,-3.1542408,0.20943587,2.8250847,0.5336673,11.2925689,2.882666766,crawl
16/03/2021, 14:39:27,-4.864285,8.365804,-0.73527104,0.20943587,2.8250847,0.5336673,9.70507928,2.882666766,crawl
16/03/2021, 14:39:27,-4.864285,8.365804,-0.73527104,0.56495935,3.325994,0.72425723,9.70507928,3.450501962,crawl
16/03/2021, 14:39:27,-3.6021094,8.157437,1.1328443,0.56495935,3.325994,0.72425723,8.989010643,3.450501962,crawl
16/03/2021, 14:39:28,-8.358619,-5.031936,-2.6536818,4.4011917,2.556304,-1.9916487,10.1108316,5.465513969,crawl
16/03/2021, 14:39:28,-8.974138,-5.9540186,-3.647615,4.4011917,2.556304,-1.9916487,11.370602,5.465513969,crawl
16/03/2021, 14:39:28,-8.974138,-5.9540186,-3.647615,4.6186595,2.0700555,-1.903684,11.370602,5.407509418,crawl
16/03/2021, 14:39:28,-7.6257424,-5.352869,-6.8497562,4.6186595,2.0700555,-1.903684,11.563923,5.407509418,crawl
16/03/2021, 14:39:28,-7.6257424,-5.352869,-6.8497562,4.118972,1.5520419,-2.2983027,11.563923,4.965577307,crawl
16/03/2021, 14:39:28,-7.192244,-4.6199927,-8.940608,4.118972,1.5520419,-2.2983027,12.36960708,4.965577307,crawl
16/03/2021, 14:39:28,-7.192244,-4.6199927,-8.940608,3.339508,0.99615484,-2.785773,12.36960708,4.461521037,crawl
16/03/2021, 14:39:28,-6.974297,-5.149292,-8.866363,3.339508,0.99615484,-2.785773,12.40033921,4.461521037,crawl
16/03/2021, 14:39:28,-6.974297,-5.149292,-8.866363,2.6871042,0.51357144,-2.993467,12.40033921,4.055259545,crawl
16/03/2021, 14:39:28,-7.719148,-5.985154,-6.720425,2.6871042,0.51357144,-2.993467,11.8562824,4.055259545,crawl
16/03/2021, 14:39:28,-7.719148,-5.985154,-6.720425,2.0970087,0.3009904,-2.6978085,11.8562824,3.430191169,crawl
16/03/2021, 14:39:28,-7.7143583,-6.248606,-4.021238,2.0970087,0.3009904,-2.6978085,10.71105773,3.430191169,crawl
16/03/2021, 14:39:28,-7.7143583,-6.248606,-4.021238,1.8856494,0.17637396,-2.337398,10.71105773,3.008356902,crawl
16/03/2021, 14:39:28,-6.72761,-5.992339,-1.101709,1.8856494,0.17637396,-2.337398,9.076487693,3.008356902,crawl
16/03/2021, 14:39:28,-6.72761,-5.992339,-1.101709,2.2827115,-0.025211494,-2.288529,9.076487693,3.23245604,crawl
16/03/2021, 14:39:28,-5.2283278,-5.4606447,-0.5604346,2.2827115,-0.025211494,-2.288529,7.580774286,3.23245604,crawl
16/03/2021, 14:39:28,-5.2283278,-5.4606447,-0.5604346,2.742082,-0.33186573,-2.578079,7.580774286,3.778311854,crawl
16/03/2021, 14:39:28,-3.899092,-6.1791506,-0.728086,2.742082,-0.33186573,-2.578079,7.342678614,3.778311854,crawl
16/03/2021, 14:39:28,-3.899092,-6.1791506,-0.728086,2.9790978,-0.28055307,-2.7747774,7.342678614,4.080823896,crawl
16/03/2021, 14:39:28,-3.7410207,-7.6041875,-1.5735279,2.9790978,-0.28055307,-2.7747774,8.619448546,4.080823896,crawl
16/03/2021, 14:39:29,-5.9564137,5.4534597,2.5387208,-1.9505827,1.8513658,-0.34842175,8.465470535,2.711775451,crawl
16/03/2021, 14:39:29,-5.3408937,4.7780643,2.2920337,-1.9505827,1.8513658,-0.34842175,7.523859538,2.711775451,crawl
16/03/2021, 14:39:29,-5.3408937,4.7780643,2.2920337,-2.2645676,1.8513658,-0.5707766,7.523859538,2.980202632,crawl
16/03/2021, 14:39:29,-5.2115626,3.0919704,2.9722195,-2.2645676,1.8513658,-0.5707766,6.749426262,2.980202632,crawl
16/03/2021, 14:39:29,-5.2115626,3.0919704,2.9722195,-2.4771485,1.9161174,-0.76381,6.749426262,3.22353479,crawl
16/03/2021, 14:39:29,-5.633086,1.0873389,3.8200562,-2.4771485,1.9161174,-0.76381,6.892517355,3.22353479,crawl
16/03/2021, 14:39:29,-5.633086,1.0873389,3.8200562,-2.497918,2.0602815,-0.85299623,6.892517355,3.34842594,crawl
16/03/2021, 14:39:29,-6.320457,-0.100590825,5.0750465,-2.497918,2.0602815,-0.85299623,8.106441411,3.34842594,crawl
16/03/2021, 14:39:29,-6.320457,-0.100590825,5.0750465,-2.1863768,2.234989,-0.80534875,8.106441411,3.228622876,crawl
16/03/2021, 14:39:29,-7.4054008,-0.3424878,5.4534597,-2.1863768,2.234989,-0.80534875,9.203123456,3.228622876,crawl
16/03/2021, 14:39:29,-7.4054008,-0.3424878,5.4534597,-1.8430705,2.2582018,-0.6489673,9.203123456,2.986225548,crawl
16/03/2021, 14:39:29,-9.060359,0.76401126,5.7696023,-1.8430705,2.2582018,-0.6489673,10.76857136,2.986225548,crawl
16/03/2021, 14:39:29,-9.060359,0.76401126,5.7696023,-1.5229772,2.099377,-0.4314994,10.76857136,2.629265072,crawl
16/03/2021, 14:39:29,-9.328602,2.3638844,5.6809864,-1.5229772,2.099377,-0.4314994,11.17516749,2.629265072,crawl
16/03/2021, 14:39:29,-9.328602,2.3638844,5.6809864,-1.4398997,1.9307783,-0.39606923,11.17516749,2.44091922,crawl
16/03/2021, 14:39:29,-8.495134,3.652405,5.7624173,-1.4398997,1.9307783,-0.39606923,10.89554145,2.44091922,crawl
16/03/2021, 14:39:29,-8.495134,3.652405,5.7624173,-1.4899906,1.8916829,-0.5622245,10.89554145,2.472778279,crawl
16/03/2021, 14:39:29,-7.2736745,3.7170706,6.344407,-1.4899906,1.8916829,-0.5622245,10.34284562,2.472778279,crawl
16/03/2021, 14:39:29,-7.2736745,3.7170706,6.344407,-1.5364163,2.0285165,-0.78824455,10.34284562,2.663978942,crawl
16/03/2021, 14:39:29,-6.957532,2.066902,5.997129,-1.5364163,2.0285165,-0.78824455,9.415141523,2.663978942,crawl
16/03/2021, 14:39:30,-4.0930886,-0.3520679,-4.148174,2.5685964,1.0340284,-1.7570765,5.838207966,3.279362722,crawl
16/03/2021, 14:39:30,-4.140989,-0.5388794,-4.734954,2.5685964,1.0340284,-1.7570765,6.313316697,3.279362722,crawl
16/03/2021, 14:39:30,-4.140989,-0.5388794,-4.734954,2.7261996,1.22584,-1.980653,6.313316697,3.585782277,crawl
16/03/2021, 14:39:30,-4.3062453,-1.341211,-5.151687,2.7261996,1.22584,-1.980653,6.847077924,3.585782277,crawl
16/03/2021, 14:39:30,-4.3062453,-1.341211,-5.151687,2.6052485,1.4665208,-2.143143,6.847077924,3.67845951,crawl
16/03/2021, 14:39:30,-5.0630717,-1.7172291,-5.216353,2.6052485,1.4665208,-2.143143,7.46953206,3.67845951,crawl
16/03/2021, 14:39:30,-5.0630717,-1.7172291,-5.216353,2.4097714,1.7035365,-2.1321476,7.46953206,3.640753799,crawl
16/03/2021, 14:39:30,-5.7480474,-1.3986914,-6.1575956,2.4097714,1.7035365,-2.1321476,8.538874049,3.640753799,crawl
16/03/2021, 14:39:30,-5.7480474,-1.3986914,-6.1575956,2.1825297,1.8379267,-2.0906086,8.538874049,3.53723831,crawl
16/03/2021, 14:39:30,-6.0282645,-0.7664063,-7.0437527,2.1825297,1.8379267,-2.0906086,9.302784715,3.53723831,crawl
16/03/2021, 14:39:30,-6.0282645,-0.7664063,-7.0437527,1.9076406,1.8440354,-2.152917,9.302784715,3.416812885,crawl
16/03/2021, 14:39:30,-6.0330544,-0.49576905,-7.6257424,1.9076406,1.8440354,-2.152917,9.73629701,3.416812885,crawl
16/03/2021, 14:39:30,-6.0330544,-0.49576905,-7.6257424,1.6975031,1.7243059,-2.283642,9.73629701,3.327126162,crawl
16/03/2021, 14:39:30,-6.502478,-0.55803955,-7.4748564,1.6975031,1.7243059,-2.283642,9.923059393,3.327126162,crawl
16/03/2021, 14:39:30,-6.502478,-0.55803955,-7.4748564,1.7170508,1.4689643,-2.2934158,9.923059393,3.21960799,crawl
16/03/2021, 14:39:30,-7.204219,-0.6777906,-7.9730206,1.7170508,1.4689643,-2.2934158,10.76704352,3.21960799,crawl
16/03/2021, 14:39:30,-7.204219,-0.6777906,-7.9730206,1.7915763,1.1403189,-2.174908,10.76704352,3.039785702,crawl
16/03/2021, 14:39:30,-7.434141,-0.86939216,-8.289163,1.7915763,1.1403189,-2.174908,11.16837117,3.039785702,crawl
16/03/2021, 14:39:30,-7.434141,-0.86939216,-8.289163,1.8416672,0.9460639,-2.0417395,11.16837117,2.907829926,crawl
16/03/2021, 14:39:30,-7.32876,-0.7664063,-8.044871,1.8416672,0.9460639,-2.0417395,10.9095398,2.907829926,crawl
16/03/2021, 14:39:31,-5.965994,6.974297,7.1563187,3.9076126,1.5202769,2.345493,11.63816133,4.80437463,crawl
16/03/2021, 14:39:31,-6.342012,7.436536,6.5144534,3.9076126,1.5202769,2.345493,11.74569214,4.80437463,crawl
16/03/2021, 14:39:31,-6.342012,7.436536,6.5144534,3.506885,1.6167936,2.4615574,11.74569214,4.579468222,crawl
16/03/2021, 14:39:31,-6.6365995,7.7502837,5.8127127,3.506885,1.6167936,2.4615574,11.74303963,4.579468222,crawl
16/03/2021, 14:39:31,-6.6365995,7.7502837,5.8127127,3.2161133,1.624124,2.554409,11.74303963,4.41657892,crawl
16/03/2021, 14:39:31,-7.2114043,7.7143583,5.695357,3.2161133,1.624124,2.554409,11.99803177,4.41657892,crawl
16/03/2021, 14:39:31,-7.2114043,7.7143583,5.695357,2.9216764,1.5410464,2.5519655,11.99803177,4.174151974,crawl
16/03/2021, 14:39:31,-7.8412943,7.8700347,5.5396805,2.9216764,1.5410464,2.5519655,12.41416135,4.174151974,crawl
16/03/2021, 14:39:31,-7.8412943,7.8700347,5.5396805,2.4500887,1.4848468,2.4346793,12.41416135,3.759703191,crawl
16/03/2021, 14:39:31,-8.372989,7.951465,5.295388,2.4500887,1.4848468,2.4346793,12.70330169,3.759703191,crawl
16/03/2021, 14:39:31,-8.372989,7.951465,5.295388,1.7060552,1.3834432,2.2404244,12.70330169,3.137521455,crawl
16/03/2021, 14:39:31,-8.58854,7.8868,5.455855,1.7060552,1.3834432,2.2404244,12.87365467,3.137521455,crawl
16/03/2021, 14:39:31,-8.58854,7.8868,5.455855,0.80319667,1.1830795,2.0718255,12.87365467,2.517392077,crawl
16/03/2021, 14:39:31,-8.341853,7.7526784,6.2917166,0.80319667,1.1830795,2.0718255,13.01062003,2.517392077,crawl
16/03/2021, 14:39:31,-8.341853,7.7526784,6.2917166,-0.038575333,0.92773795,1.9655349,13.01062003,2.17382458,crawl
16/03/2021, 14:39:31,-7.556287,7.8915896,6.912027,-0.038575333,0.92773795,1.9655349,12.92868025,2.17382458,crawl
16/03/2021, 14:39:31,-7.556287,7.8915896,6.912027,-0.7264093,0.787239,1.9313265,12.92868025,2.208492211,crawl
16/03/2021, 14:39:31,-6.325247,7.807764,7.072493,-0.7264093,0.787239,1.9313265,12.28780229,2.208492211,crawl
16/03/2021, 14:39:31,-6.325247,7.807764,7.072493,-1.1503496,0.787239,1.9142222,12.28780229,2.367973035,crawl
16/03/2021, 14:39:31,-5.49657,8.224498,6.71324,-1.1503496,0.787239,1.9142222,11.955009,2.367973035,crawl
16/03/2021, 14:39:32,-9.216036,-5.9875493,1.1903248,-2.3855188,2.3938138,-2.2909725,11.0545437,4.082842086,crawl
16/03/2021, 14:39:32,-8.868757,-5.860613,0.5292993,-2.3855188,2.3938138,-2.2909725,10.64339213,4.082842086,crawl
16/03/2021, 14:39:32,-8.868757,-5.860613,0.5292993,-2.1888204,2.3315058,-2.2506552,10.64339213,3.910537364,crawl
16/03/2021, 14:39:32,-8.760982,-5.7073317,0.21076173,-2.1888204,2.3315058,-2.2506552,10.45814769,3.910537364,crawl
16/03/2021, 14:39:32,-8.760982,-5.7073317,0.21076173,-2.0202215,2.181233,-2.138256,10.45814769,3.662132018,crawl
16/03/2021, 14:39:32,-8.368198,-5.1612673,-0.96040285,-2.0202215,2.181233,-2.138256,9.87865365,3.662132018,crawl
16/03/2021, 14:39:32,-8.368198,-5.1612673,-0.96040285,-2.0470996,1.958878,-2.0967174,9.87865365,3.524775679,crawl
16/03/2021, 14:39:32,-7.688013,-4.5074267,-0.95561284,-2.0470996,1.958878,-2.0967174,8.963014938,3.524775679,crawl
16/03/2021, 14:39:32,-7.688013,-4.5074267,-0.95561284,-1.759993,1.7438536,-2.0600655,8.963014938,3.2221841,crawl
16/03/2021, 14:39:32,-7.2904396,-4.404441,-0.102985844,-1.759993,1.7438536,-2.0600655,8.518228407,3.2221841,crawl
16/03/2021, 14:39:32,-7.2904396,-4.404441,-0.102985844,-1.2004405,1.64245,-1.9195665,8.518228407,2.797040395,crawl
16/03/2021, 14:39:32,-7.781419,-5.6642213,-0.13651612,-1.2004405,1.64245,-1.9195665,9.625617798,2.797040395,crawl
16/03/2021, 14:39:32,-7.781419,-5.6642213,-0.13651612,-0.74717873,1.6314543,-1.7106507,9.625617798,2.479162179,crawl
16/03/2021, 14:39:32,-8.135881,-6.100115,-0.07424561,-0.74717873,1.6314543,-1.7106507,10.16904518,2.479162179,crawl
16/03/2021, 14:39:32,-8.135881,-6.100115,-0.07424561,-0.26826057,1.5850286,-1.5542693,10.16904518,2.236075278,crawl
16/03/2021, 14:39:32,-8.368198,-5.8175025,0.2203418,-0.26826057,1.5850286,-1.5542693,10.19404876,2.236075278,crawl
16/03/2021, 14:39:32,-8.368198,-5.8175025,0.2203418,0.24608776,1.5569289,-1.4821872,10.19404876,2.163669442,crawl
16/03/2021, 14:39:32,-8.253238,-5.1971927,-0.11496094,0.24608776,1.5569289,-1.4821872,9.753971529,2.163669442,crawl
16/03/2021, 14:39:32,-8.253238,-5.1971927,-0.11496094,0.57962006,1.5984677,-1.4797437,9.753971529,2.254040795,crawl
16/03/2021, 14:39:32,-8.274793,-3.8464015,-0.7759864,0.57962006,1.5984677,-1.4797437,9.158010305,2.254040795,crawl
16/03/2021, 14:39:33,-8.784932,6.9072366,8.624466,0.5600724,1.1757491,1.5843551,14.11617379,2.05091397,crawl
16/03/2021, 14:39:33,-9.359736,6.825806,8.562195,0.5600724,1.1757491,1.5843551,14.40511978,2.05091397,crawl
16/03/2021, 14:39:33,-9.359736,6.825806,8.562195,0.5698463,1.2698222,1.5489249,14.40511978,2.082388463,crawl
16/03/2021, 14:39:33,-9.934542,6.5144534,8.583751,0.5698463,1.2698222,1.5489249,14.65653433,2.082388463,crawl
16/03/2021, 14:39:33,-9.934542,6.5144534,8.583751,0.552742,1.3064742,1.5794683,14.65653433,2.122997535,crawl
16/03/2021, 14:39:33,-10.245894,6.2917166,8.950189,0.552742,1.3064742,1.5794683,14.98899352,2.122997535,crawl
16/03/2021, 14:39:33,-10.245894,6.2917166,8.950189,0.54907686,1.239279,1.639333,14.98899352,2.127136721,crawl
16/03/2021, 14:39:33,-9.908196,6.1552005,8.674761,0.54907686,1.239279,1.639333,14.53651695,2.127136721,crawl
16/03/2021, 14:39:33,-9.908196,6.1552005,8.674761,0.5038728,1.1904099,1.6930891,14.53651695,2.130144204,crawl
16/03/2021, 14:39:33,-9.287886,6.4090724,7.7239385,0.5038728,1.1904099,1.6930891,13.67480364,2.130144204,crawl
16/03/2021, 14:39:33,-9.287886,6.4090724,7.7239385,0.5502986,1.1843011,1.7920493,13.67480364,2.217394497,crawl
16/03/2021, 14:39:33,-8.248447,7.3622904,7.3886356,0.5502986,1.1843011,1.7920493,13.29782467,2.217394497,crawl
16/03/2021, 14:39:33,-8.248447,7.3622904,7.3886356,0.78609246,1.1244364,1.9496524,13.29782467,2.383997302,crawl
16/03/2021, 14:39:33,-7.340735,8.1143265,7.414981,0.78609246,1.1244364,1.9496524,13.2178147,2.383997302,crawl
16/03/2021, 14:39:33,-7.340735,8.1143265,7.414981,1.032882,1.1232147,2.074269,13.2178147,2.575082252,crawl
16/03/2021, 14:39:33,-6.75156,8.0305,7.589817,1.032882,1.1232147,2.074269,12.94904726,2.575082252,crawl
16/03/2021, 14:39:33,-6.75156,8.0305,7.589817,1.3517535,1.1378754,2.1549032,12.94904726,2.78668363,crawl
16/03/2021, 14:39:33,-6.950347,8.200547,8.126302,1.3517535,1.1378754,2.1549032,13.47564758,2.78668363,crawl
16/03/2021, 14:39:33,-6.950347,8.200547,8.126302,1.7060552,1.212401,2.0254,13.47564758,2.912522161,crawl
16/03/2021, 14:39:33,-7.7383084,7.1706886,8.011341,1.7060552,1.212401,2.0254,13.24695357,2.912522161,crawl
16/03/2021, 14:39:34,-8.150251,0.9436377,1.4082716,-0.56269747,2.3315058,-1.6630032,8.32467889,2.918583096,crawl
16/03/2021, 14:39:34,-9.235196,0.85023195,0.42152345,-0.56269747,2.3315058,-1.6630032,9.283825916,2.918583096,crawl
16/03/2021, 14:39:34,-9.235196,0.85023195,0.42152345,-0.5883538,2.166572,-1.6654468,9.283825916,2.795336787,crawl
16/03/2021, 14:39:34,-9.958491,0.40954837,0.23950197,-0.5883538,2.166572,-1.6654468,9.969786384,2.795336787,crawl
16/03/2021, 14:39:34,-9.958491,0.40954837,0.23950197,-0.6408882,1.9710953,-1.664225,9.969786384,2.658119499,crawl
16/03/2021, 14:39:34,-10.514136,-0.081430666,-0.033530276,-0.6408882,1.9710953,-1.664225,10.51450511,2.658119499,crawl
16/03/2021, 14:39:34,-10.514136,-0.081430666,-0.033530276,-0.592019,1.8024966,-1.645899,10.51450511,2.511665593,crawl
16/03/2021, 14:39:34,-10.523716,-0.2921924,0.62510014,-0.592019,1.8024966,-1.645899,10.54631331,2.511665593,crawl
16/03/2021, 14:39:34,-10.523716,-0.2921924,0.62510014,-0.34034264,1.7634013,-1.6349034,10.54631331,2.428647027,crawl
16/03/2021, 14:39:34,-9.915381,0.36164796,1.1759547,-0.34034264,1.7634013,-1.6349034,9.9914187,2.428647027,crawl
16/03/2021, 14:39:34,-9.915381,0.36164796,1.1759547,0.2106576,1.7084234,-1.7607417,9.9914187,2.462376581,crawl
16/03/2021, 14:39:34,-9.400452,2.1076174,0.90771246,0.2106576,1.7084234,-1.7607417,9.676491324,2.462376581,crawl
16/03/2021, 14:39:34,-9.400452,2.1076174,0.90771246,0.7298929,1.5642592,-2.0454047,9.676491324,2.676439928,crawl
16/03/2021, 14:39:34,-9.378897,2.083667,0.15567628,0.7298929,1.5642592,-2.0454047,9.608829637,2.676439928,crawl
16/03/2021, 14:39:34,-9.378897,2.083667,0.15567628,0.7885359,1.5605941,-2.21156,9.608829637,2.81926239,crawl
16/03/2021, 14:39:34,-8.789722,1.5352076,0,0.7885359,1.5605941,-2.21156,8.922784492,2.81926239,crawl
16/03/2021, 14:39:34,-8.789722,1.5352076,0,0.6077199,1.7719533,-2.2873073,8.922784492,2.956504125,crawl
16/03/2021, 14:39:34,-8.5119,1.8130299,-0.26345217,0.6077199,1.7719533,-2.2873073,8.706832095,2.956504125,crawl
16/03/2021, 14:39:34,-8.5119,1.8130299,-0.26345217,0.3572652,2.0847163,-2.3349547,8.706832095,3.150506974,crawl
16/03/2021, 14:39:34,-8.902288,2.6321266,-0.20118165,0.3572652,2.0847163,-2.3349547,9.285435033,3.150506974,crawl
16/03/2021, 14:39:35,-6.4282327,-2.059717,7.2257743,2.5588226,0.18614781,2.1231382,9.888196155,3.330156158,crawl
16/03/2021, 14:39:35,-6.1408305,-1.6597486,6.871311,2.5588226,0.18614781,2.1231382,9.363732276,3.330156158,crawl
16/03/2021, 14:39:35,-6.1408305,-1.6597486,6.871311,2.3975542,0.12994823,1.9447656,9.363732276,3.089864981,crawl
16/03/2021, 14:39:35,-5.977969,-1.6789087,6.9862723,2.3975542,0.12994823,1.9447656,9.346809668,3.089864981,crawl
16/03/2021, 14:39:35,-5.977969,-1.6789087,6.9862723,2.3792284,0.17515224,1.9056702,9.346809668,3.053356292,crawl
16/03/2021, 14:39:35,-5.582791,-1.3268409,7.7143583,2.3792284,0.17515224,1.9056702,9.614540283,3.053356292,crawl
16/03/2021, 14:39:35,-5.582791,-1.3268409,7.7143583,2.624796,0.31442943,1.9484307,9.614540283,3.28402215,crawl
16/03/2021, 14:39:35,-6.047425,-1.3771362,8.454419,2.624796,0.31442943,1.9484307,10.4854687,3.28402215,crawl
16/03/2021, 14:39:35,-6.047425,-1.3771362,8.454419,2.9595501,0.51723665,2.224542,10.4854687,3.738322816,crawl
16/03/2021, 14:39:35,-6.6365995,-1.4513819,8.655601,2.9595501,0.51723665,2.224542,11.0031988,3.738322816,crawl
16/03/2021, 14:39:35,-6.6365995,-1.4513819,8.655601,3.2564304,0.7676913,2.5910609,11.0031988,4.231700047,crawl
16/03/2021, 14:39:35,-6.816226,-0.44547364,8.449629,3.2564304,0.7676913,2.5910609,10.8653399,4.231700047,crawl
16/03/2021, 14:39:35,-6.816226,-0.44547364,8.449629,3.5447588,0.9668333,2.7718768,10.8653399,4.602540886,crawl
16/03/2021, 14:39:35,-6.969507,0.79754156,8.775352,3.5447588,0.9668333,2.7718768,11.2346294,4.602540886,crawl
16/03/2021, 14:39:35,-6.969507,0.79754156,8.775352,3.809874,1.0609064,2.7730985,11.2346294,4.830190251,crawl
16/03/2021, 14:39:35,-6.8856816,1.6932789,8.595725,3.809874,1.0609064,2.7730985,11.14299306,4.830190251,crawl
16/03/2021, 14:39:35,-6.8856816,1.6932789,8.595725,4.017568,1.0059286,2.6790254,11.14299306,4.932537187,crawl
16/03/2021, 14:39:35,-7.1060233,2.0166066,8.940608,4.017568,1.0059286,2.6790254,11.59727301,4.932537187,crawl
16/03/2021, 14:39:35,-7.1060233,2.0166066,8.940608,4.049333,0.94850737,2.7230077,11.59727301,4.971069861,crawl
16/03/2021, 14:39:35,-7.4269557,1.951941,9.445957,4.049333,0.94850737,2.7230077,12.17357186,4.971069861,crawl
16/03/2021, 14:39:36,-9.204061,2.9913795,3.7098854,-0.21083927,1.7707316,-2.0099745,10.36466745,2.68699477,crawl
16/03/2021, 14:39:36,-8.672366,2.6417067,2.430945,-0.21083927,1.7707316,-2.0099745,9.386055722,2.68699477,crawl
16/03/2021, 14:39:36,-8.672366,2.6417067,2.430945,-0.3672207,1.8196008,-1.9733226,9.386055722,2.709206598,crawl
16/03/2021, 14:39:36,-8.059241,2.8979738,2.2944288,-0.3672207,1.8196008,-1.9733226,8.866455091,2.709206598,crawl
16/03/2021, 14:39:36,-8.059241,2.8979738,2.2944288,-0.14364412,1.9710953,-1.9305621,8.866455091,2.762774073,crawl
16/03/2021, 14:39:36,-8.217313,3.319497,2.9770093,-0.14364412,1.9710953,-1.9305621,9.349110935,2.762774073,crawl
16/03/2021, 14:39:36,-8.217313,3.319497,2.9770093,0.5063163,2.0932684,-1.9366708,9.349110935,2.896346402,crawl
16/03/2021, 14:39:36,-7.8724294,3.412903,1.9279908,0.5063163,2.0932684,-1.9366708,8.794327721,2.896346402,crawl
16/03/2021, 14:39:36,-7.8724294,3.412903,1.9279908,1.073199,2.0700555,-2.121152,8.794327721,3.15216931,crawl
16/03/2021, 14:39:36,-7.927515,2.7422974,1.1448194,1.073199,2.0700555,-2.121152,8.466185744,3.15216931,crawl
16/03/2021, 14:39:36,-7.927515,2.7422974,1.1448194,1.3089929,1.9710953,-2.206673,8.466185744,3.235441918,crawl
16/03/2021, 14:39:36,-8.854387,2.6249416,0.17723145,1.3089929,1.9710953,-2.206673,9.236985628,3.235441918,crawl
16/03/2021, 14:39:36,-8.854387,2.6249416,0.17723145,1.2711192,1.850144,-2.066174,9.236985628,3.050877278,crawl
16/03/2021, 14:39:36,-8.851993,3.4703834,0.20118165,1.2711192,1.850144,-2.066174,9.510089808,3.050877278,crawl
16/03/2021, 14:39:36,-8.851993,3.4703834,0.20118165,1.240576,1.7658447,-1.9794313,9.510089808,2.928375754,crawl
16/03/2021, 14:39:36,-8.828042,4.718189,-0.24189699,1.240576,1.7658447,-1.9794313,10.01269921,2.928375754,crawl
16/03/2021, 14:39:36,-8.828042,4.718189,-0.24189699,1.1770461,1.6949843,-2.0356307,10.01269921,2.89865514,crawl
16/03/2021, 14:39:36,-8.962164,5.489385,-0.083825685,1.1770461,1.6949843,-2.0356307,10.51003131,2.89865514,crawl
16/03/2021, 14:39:36,-8.962164,5.489385,-0.083825685,1.104964,1.6302327,-2.1443648,10.51003131,2.911512434,crawl
16/03/2021, 14:39:36,-8.966953,5.829478,-0.72569096,1.104964,1.6302327,-2.1443648,10.71987359,2.911512434,crawl
16/03/2021, 14:39:37,0.7807764,-11.548784,7.664063,4.5331383,-0.29643556,-0.063758634,13.88243101,4.543267748,crawl
16/03/2021, 14:39:37,0.44547364,-11.670931,6.222261,4.5331383,-0.29643556,-0.063758634,13.23350314,4.543267748,crawl
16/03/2021, 14:39:37,0.44547364,-11.670931,6.222261,4.744498,-0.3636307,0.049862254,13.23350314,4.758673417,crawl
16/03/2021, 14:39:37,0.45026368,-10.564431,5.6450615,4.744498,-0.3636307,0.049862254,11.98652005,4.758673417,crawl
16/03/2021, 14:39:37,0.45026368,-10.564431,5.6450615,4.9130964,-0.36851764,0.29542997,11.98652005,4.935747221,crawl
16/03/2021, 14:39:37,0.94603276,-8.51669,5.376819,4.9130964,-0.36851764,0.29542997,10.11628266,4.935747221,crawl
16/03/2021, 14:39:37,0.94603276,-8.51669,5.376819,5.0120564,-0.18647985,0.75480044,10.11628266,5.072002297,crawl
16/03/2021, 14:39:37,2.0429518,-6.758745,5.1780324,5.0120564,-0.18647985,0.75480044,8.755929891,5.072002297,crawl
16/03/2021, 14:39:37,2.0429518,-6.758745,5.1780324,5.086582,-0.038650524,1.0675633,8.755929891,5.197547842,crawl
16/03/2021, 14:39:37,3.283572,-5.3313136,4.5313773,5.086582,-0.038650524,1.0675633,7.729044572,5.197547842,crawl
16/03/2021, 14:39:37,3.283572,-5.3313136,4.5313773,5.0743647,0.002888297,1.1628582,7.729044572,5.205902839,crawl
16/03/2021, 14:39:37,3.1997461,-4.605623,4.7876444,5.0743647,0.002888297,1.1628582,7.373715153,5.205902839,crawl
16/03/2021, 14:39:37,3.1997461,-4.605623,4.7876444,4.946083,-0.016659385,1.3351222,7.373715153,5.123140309,crawl
16/03/2021, 14:39:37,3.1278956,-3.8320315,5.3049684,4.946083,-0.016659385,1.3351222,7.253336159,5.123140309,crawl
16/03/2021, 14:39:37,3.1278956,-3.8320315,5.3049684,4.7579365,-0.003220353,1.5147165,7.253336159,4.993229014,crawl
16/03/2021, 14:39:37,3.2548318,-3.2452517,5.767207,4.7579365,-0.003220353,1.5147165,7.374704506,4.993229014,crawl
16/03/2021, 14:39:37,3.2548318,-3.2452517,5.767207,4.5868945,-0.041093983,1.6991978,7.374704506,4.891683048,crawl
16/03/2021, 14:39:37,3.032095,-2.44771,5.774392,4.5868945,-0.041093983,1.6991978,6.966239207,4.891683048,crawl
16/03/2021, 14:39:37,3.032095,-2.44771,5.774392,4.386531,-0.004442084,1.9056702,6.966239207,4.782598838,crawl
16/03/2021, 14:39:37,2.8500733,-1.5304176,5.7719975,4.386531,-0.004442084,1.9056702,6.61672506,4.782598838,crawl
16/03/2021, 14:39:38,-6.0043144,6.71324,2.6584718,-1.5645161,2.795763,-1.0692425,9.39078577,3.377466631,crawl
16/03/2021, 14:39:38,-5.494175,6.217471,3.2572267,-1.5645161,2.795763,-1.0692425,8.913609338,3.377466631,crawl
16/03/2021, 14:39:38,-5.494175,6.217471,3.2572267,-1.5474119,2.9875748,-1.0900118,8.913609338,3.53669517,crawl
16/03/2021, 14:39:38,-5.860613,5.7935524,2.9003687,-1.5474119,2.9875748,-1.0900118,8.736370593,3.53669517,crawl
16/03/2021, 14:39:38,-5.860613,5.7935524,2.9003687,-1.4252388,2.941149,-1.1486549,8.736370593,3.464256249,crawl
16/03/2021, 14:39:38,-7.1251836,5.7863674,2.804568,-1.4252388,2.941149,-1.1486549,9.597702377,3.464256249,crawl
16/03/2021, 14:39:38,-7.1251836,5.7863674,2.804568,-1.5009861,2.845854,-1.188972,9.597702377,3.430087305,crawl
16/03/2021, 14:39:38,-7.053333,6.1743608,2.7015822,-1.5009861,2.845854,-1.188972,9.755551277,3.430087305,crawl
16/03/2021, 14:39:38,-7.053333,6.1743608,2.7015822,-1.7502191,2.8751755,-1.193859,9.755551277,3.571442315,crawl
16/03/2021, 14:39:38,-6.6294146,6.444998,3.302732,-1.7502191,2.8751755,-1.193859,9.818104322,3.571442315,crawl
16/03/2021, 14:39:38,-6.6294146,6.444998,3.302732,-1.8662834,2.89961,-1.0973423,9.818104322,3.618689295,crawl
16/03/2021, 14:39:38,-6.607859,6.5216384,2.8141482,-1.8662834,2.89961,-1.0973423,9.701288559,3.618689295,crawl
16/03/2021, 14:39:38,-6.607859,6.5216384,2.8141482,-1.6622545,2.683364,-1.0423644,9.701288559,3.324162334,crawl
16/03/2021, 14:39:38,-6.744375,6.08814,3.5709743,-1.6622545,2.683364,-1.0423644,9.762371834,3.324162334,crawl
16/03/2021, 14:39:38,-6.744375,6.08814,3.5709743,-1.5681813,2.515987,-0.9360739,9.762371834,3.108957549,crawl
16/03/2021, 14:39:38,-6.593489,5.333709,4.038003,-1.5681813,2.515987,-0.9360739,9.392976981,3.108957549,crawl
16/03/2021, 14:39:38,-6.593489,5.333709,4.038003,-1.5632944,2.533091,-0.8591049,9.392976981,3.09814476,crawl
16/03/2021, 14:39:38,-6.5479836,4.7636943,3.3793726,-1.5632944,2.533091,-0.8591049,8.774339419,3.09814476,crawl
16/03/2021, 14:39:38,-6.5479836,4.7636943,3.3793726,-1.4960992,2.41214,-0.80901396,8.774339419,2.9514802,crawl
16/03/2021, 14:39:38,-8.150251,3.4895437,1.9998415,-1.4960992,2.41214,-0.80901396,9.088612578,2.9514802,crawl
16/03/2021, 14:39:39,-4.766089,-4.608018,-8.614885,3.2124481,-0.58720726,-2.6636,10.87040397,4.214190323,crawl
16/03/2021, 14:39:39,-4.766089,-4.608018,-8.614885,2.8703637,-0.5847638,-2.7307951,10.87040397,4.004769493,crawl
16/03/2021, 14:39:39,-4.0427933,-4.89542,-7.4652762,2.8703637,-0.5847638,-2.7307951,9.799982884,4.004769493,crawl
16/03/2021, 14:39:39,-4.0427933,-4.89542,-7.4652762,2.611357,-0.33308747,-2.8150945,9.799982884,3.854204119,crawl
16/03/2021, 14:39:39,-3.2308815,-4.742139,-6.3156667,2.611357,-0.33308747,-2.8150945,8.533119096,3.854204119,crawl
16/03/2021, 14:39:39,-3.2308815,-4.742139,-6.3156667,2.5685964,-0.012994194,-2.9543717,8.533119096,3.914865031,crawl
16/03/2021, 14:39:39,-2.5914114,-5.264253,-5.647456,2.5685964,-0.012994194,-2.9543717,8.143803478,3.914865031,crawl
16/03/2021, 14:39:39,-2.5914114,-5.264253,-5.647456,2.5771487,0.31198597,-3.0582187,8.143803478,4.011450145,crawl
16/03/2021, 14:39:39,-2.7710378,-6.615044,-5.5061502,2.5771487,0.31198597,-3.0582187,9.041855439,4.011450145,crawl
16/03/2021, 14:39:39,-2.7710378,-6.615044,-5.5061502,2.4965143,0.49768895,-3.035006,9.041855439,3.961254819,crawl
16/03/2021, 14:39:39,-3.1063404,-7.8915896,-5.6570363,2.4965143,0.49768895,-3.035006,10.19453763,3.961254819,crawl
16/03/2021, 14:39:39,-3.1063404,-7.8915896,-5.6570363,2.3413546,0.556332,-2.9384892,10.19453763,3.798179229,crawl
16/03/2021, 14:39:39,-3.6116896,-8.849598,-5.597161,2.3413546,0.556332,-2.9384892,11.07645676,3.798179229,crawl
16/03/2021, 14:39:39,-3.6116896,-8.849598,-5.597161,2.285155,0.5648841,-2.903059,11.07645676,3.737483017,crawl
16/03/2021, 14:39:39,-3.7314405,-9.328602,-5.3217335,2.285155,0.5648841,-2.903059,11.36957818,3.737483017,crawl
16/03/2021, 14:39:39,-3.7314405,-9.328602,-5.3217335,2.470858,0.52945393,-3.0374494,11.36957818,3.951146646,crawl
16/03/2021, 14:39:39,-3.9182522,-9.093889,-5.1564775,2.470858,0.52945393,-3.0374494,11.1642636,3.951146646,crawl
16/03/2021, 14:39:39,-3.9182522,-9.093889,-5.1564775,2.820273,0.4915803,-3.2060483,11.1642636,4.298178212,crawl
16/03/2021, 14:39:39,-4.653523,-9.347761,-6.253396,2.820273,0.4915803,-3.2060483,12.17131367,4.298178212,crawl
16/03/2021, 14:39:39,-4.653523,-9.347761,-6.253396,2.9974236,0.5612189,-3.2060483,12.17131367,4.424732827,crawl
16/03/2021, 14:39:40,-4.2152348,7.656878,4.1218286,-0.6384447,0.92651623,1.883679,9.663615023,2.194149196,crawl
16/03/2021, 14:39:40,-4.1074586,5.973179,2.5123756,-0.6384447,0.92651623,1.883679,7.672164814,2.194149196,crawl
16/03/2021, 14:39:40,-4.1074586,5.973179,2.5123756,-1.1918885,0.92407274,1.5098296,7.672164814,2.134032347,crawl
16/03/2021, 14:39:40,-4.054768,3.283572,1.3124708,-1.1918885,0.92407274,1.5098296,5.380108607,2.134032347,crawl
16/03/2021, 14:39:40,-4.054768,3.283572,1.3124708,-1.9444741,0.8361082,1.4915037,5.380108607,2.589331921,crawl
16/03/2021, 14:39:40,-4.2128396,2.7159522,1.8058448,-1.9444741,0.8361082,1.4915037,5.327803396,2.589331921,crawl
16/03/2021, 14:39:40,-4.2128396,2.7159522,1.8058448,-2.190042,0.7615827,1.7688364,5.327803396,2.916346061,crawl
16/03/2021, 14:39:40,-3.9924977,4.1314087,3.1063404,-2.190042,0.7615827,1.7688364,6.531303565,2.916346061,crawl
16/03/2021, 14:39:40,-3.9924977,4.1314087,3.1063404,-1.6427069,0.79212594,2.0534997,6.531303565,2.746417736,crawl
16/03/2021, 14:39:40,-3.7098854,5.096602,3.8104763,-1.6427069,0.79212594,2.0534997,7.366025428,2.746417736,crawl
16/03/2021, 14:39:40,-3.7098854,5.096602,3.8104763,-0.7765002,0.9692768,2.1622336,7.366025428,2.493532472,crawl
16/03/2021, 14:39:40,-2.8261232,5.5301003,3.6979103,-0.7765002,0.9692768,2.1622336,7.227968113,2.493532472,crawl
16/03/2021, 14:39:40,-2.8261232,5.5301003,3.6979103,-0.27192578,1.2563833,1.9557611,7.227968113,2.340393985,crawl
16/03/2021, 14:39:40,-2.4165747,5.470225,2.5387208,-0.27192578,1.2563833,1.9557611,6.496791276,2.340393985,crawl
16/03/2021, 14:39:40,-2.4165747,5.470225,2.5387208,-0.5761365,1.4921771,1.4817299,6.496791276,2.180378242,crawl
16/03/2021, 14:39:40,-3.542234,3.791316,1.3603711,-0.5761365,1.4921771,1.4817299,5.363963845,2.180378242,crawl
16/03/2021, 14:39:40,-3.542234,3.791316,1.3603711,-1.2957355,1.565481,1.2386055,5.363963845,2.379874915,crawl
16/03/2021, 14:39:40,-5.0774417,3.3051271,1.590293,-1.2957355,1.565481,1.2386055,6.263650019,2.379874915,crawl
16/03/2021, 14:39:40,-5.0774417,3.3051271,1.590293,-1.51076,1.538603,1.394987,6.263650019,2.568206252,crawl
16/03/2021, 14:39:40,-6.08814,4.888235,2.9219239,-1.51076,1.538603,1.394987,8.336541864,2.568206252,crawl
16/03/2021, 14:39:41,-6.6916847,4.5720925,-0.1460962,-1.0587199,0.20569548,-1.3991096,8.105801543,1.766552031,crawl
16/03/2021, 14:39:41,-6.605464,4.4595265,-0.28261232,-1.0587199,0.20569548,-1.3991096,7.974923265,1.766552031,crawl
16/03/2021, 14:39:41,-6.605464,4.4595265,-0.28261232,-0.9817509,0.09207459,-1.4455353,7.974923265,1.749824243,crawl
16/03/2021, 14:39:41,-6.6198344,4.7133985,0.098195806,-0.9817509,0.09207459,-1.4455353,8.126990539,1.749824243,crawl
16/03/2021, 14:39:41,-6.6198344,4.7133985,0.098195806,-0.8620213,0.026101166,-1.419879,8.126990539,1.661270086,crawl
16/03/2021, 14:39:41,-6.368357,5.0343313,0.48379397,-0.8620213,0.026101166,-1.419879,8.132313426,1.661270086,crawl
16/03/2021, 14:39:41,-6.368357,5.0343313,0.48379397,-0.66165763,0.028544627,-1.3954444,8.132313426,1.544626386,crawl
16/03/2021, 14:39:41,-6.0426345,5.2929935,0.70174074,-0.66165763,0.028544627,-1.3954444,8.063600454,1.544626386,crawl
16/03/2021, 14:39:41,-6.0426345,5.2929935,0.70174074,-0.40631607,0.07863556,-1.4369832,8.063600454,1.495391955,crawl
16/03/2021, 14:39:41,-5.831873,5.1971927,0.7807764,-0.40631607,0.07863556,-1.4369832,7.850551916,1.495391955,crawl
16/03/2021, 14:39:41,-5.831873,5.1971927,0.7807764,-0.25482154,0.17148705,-1.4736351,7.850551916,1.505304675,crawl
16/03/2021, 14:39:41,-6.0354495,4.9529004,0.7113208,-0.25482154,0.17148705,-1.4736351,7.839888424,1.505304675,crawl
16/03/2021, 14:39:41,-6.0354495,4.9529004,0.7113208,-0.22305657,0.28877312,-1.4308746,7.839888424,1.476667271,crawl
16/03/2021, 14:39:41,-6.1240654,5.1468973,0.8765772,-0.22305657,0.28877312,-1.4308746,8.047553453,1.476667271,crawl
16/03/2021, 14:39:41,-6.1240654,5.1468973,0.8765772,-0.061788205,0.40728092,-1.3893358,8.047553453,1.449120203,crawl
16/03/2021, 14:39:41,-6.100115,5.712122,1.1472144,-0.061788205,0.40728092,-1.3893358,8.435392053,1.449120203,crawl
16/03/2021, 14:39:41,-6.100115,5.712122,1.1472144,0.276631,0.47691953,-1.3991096,8.435392053,1.503823336,crawl
16/03/2021, 14:39:41,-6.2605815,5.7145166,0.9412427,0.276631,0.47691953,-1.3991096,8.52857074,1.503823336,crawl
16/03/2021, 14:39:41,-6.2605815,5.7145166,0.9412427,0.6358197,0.5270105,-1.4052182,8.52857074,1.629921789,crawl
16/03/2021, 14:39:41,-6.437813,5.278623,0.4981641,0.6358197,0.5270105,-1.4052182,8.340111693,1.629921789,crawl
16/03/2021, 14:39:42,3.5829494,-1.9136207,12.688814,3.3150735,-0.010550734,0.037644953,13.32311808,3.315304014,crawl
16/03/2021, 14:39:42,2.4644752,-4.4738965,13.845609,3.3150735,-0.010550734,0.037644953,14.75771894,3.315304014,crawl
16/03/2021, 14:39:42,2.4644752,-4.4738965,13.845609,3.571637,0.023657707,0.3333036,14.75771894,3.587233089,crawl
16/03/2021, 14:39:42,2.1531227,-7.28565,12.621754,3.571637,0.023657707,0.3333036,14.73177844,3.587233089,crawl
16/03/2021, 14:39:42,2.1531227,-7.28565,12.621754,4.0383377,-0.31109634,0.7486918,14.73177844,4.118918763,crawl
