DATE,TIME,ax,ay,az,gx,gy,gz,ma,mg,label
10/07/2020, 17:19:58,-3.818945,-1.9310079,9.111869,-0.11234222,0.11600556,0.07204556,10.06674157,0.176829375,crawl
10/07/2020, 17:19:58,-3.8691943,-2.07697,9.064013,-0.11234222,0.11600556,0.07204556,10.07178198,0.176829375,crawl
10/07/2020, 17:19:58,-3.8691943,-2.07697,9.064013,-0.07570889,0.12943779,0.07326667,10.07178198,0.166895123,crawl
10/07/2020, 17:19:58,-3.952943,-2.1918256,9.049655,-0.07570889,0.12943779,0.07326667,10.11563708,0.166895123,crawl
10/07/2020, 17:19:58,-3.952943,-2.1918256,9.049655,-0.007326667,0.15386,0.04396,10.11563708,0.160184463,crawl
10/07/2020, 17:19:58,-3.9840498,-2.210968,9.056833,-0.007326667,0.15386,0.04396,10.13840526,0.160184463,crawl
10/07/2020, 17:19:58,-3.9840498,-2.210968,9.056833,0.08425667,0.21003112,0.06716111,10.13840526,0.23605693,crawl
10/07/2020, 17:19:58,-3.979264,-2.2755744,9.107083,0.08425667,0.21003112,0.06716111,10.19567299,0.23605693,crawl
10/07/2020, 17:19:58,-3.979264,-2.2755744,9.107083,0.20392556,0.2735289,0.24055889,10.19567299,0.417459313,crawl
10/07/2020, 17:19:58,-4.421936,-2.0147567,9.109476,0.20392556,0.2735289,0.24055889,10.32450083,0.417459313,crawl
10/07/2020, 17:19:58,-4.421936,-2.0147567,9.109476,0.1856089,0.26009667,0.42372558,10.32450083,0.530701707,crawl
10/07/2020, 17:19:58,-4.8215375,-2.103291,9.32483,0.1856089,0.26009667,0.42372558,10.70623709,0.530701707,crawl
10/07/2020, 17:19:58,-4.8215375,-2.103291,9.32483,0.039075557,0.23689556,0.46768558,10.70623709,0.525714949,crawl
10/07/2020, 17:19:58,-5.178068,-2.3569303,9.559326,0.039075557,0.23689556,0.46768558,11.12421804,0.525714949,crawl
10/07/2020, 17:19:58,-5.178068,-2.3569303,9.559326,-0.10379445,0.20026223,0.41029334,11.12421804,0.468208154,crawl
10/07/2020, 17:19:58,-5.532206,-2.6392834,9.707682,-0.10379445,0.20026223,0.41029334,11.48086251,0.468208154,crawl
10/07/2020, 17:19:58,-5.532206,-2.6392834,9.707682,-0.22712667,0.17339778,0.40296668,11.48086251,0.493999453,crawl
10/07/2020, 17:19:58,-5.6350975,-2.8666015,9.84168,-0.22712667,0.17339778,0.40296668,11.69745206,0.493999453,crawl
10/07/2020, 17:19:58,-5.6350975,-2.8666015,9.84168,-0.34679556,0.15386,0.46524334,11.69745206,0.600326099,crawl
10/07/2020, 17:19:58,-5.6877394,-3.17049,9.877572,-0.34679556,0.15386,0.46524334,11.83084173,0.600326099,crawl
10/07/2020, 17:19:59,-9.961321,-6.218946,2.3688943,1.3236845,0.6655056,2.0954268,11.97976891,2.566291427,crawl
10/07/2020, 17:19:59,-9.834501,-6.309873,2.4239295,1.3236845,0.6655056,2.0954268,11.93345498,2.566291427,crawl
10/07/2020, 17:19:59,-9.834501,-6.309873,2.4239295,1.5312734,0.63742,2.0355923,11.93345498,2.625783399,crawl
10/07/2020, 17:19:59,-9.678967,-6.381658,2.4765713,1.5312734,0.63742,2.0355923,11.85501483,2.625783399,crawl
10/07/2020, 17:19:59,-9.678967,-6.381658,2.4765713,1.73642,0.60811335,1.9525567,11.85501483,2.682803415,crawl
10/07/2020, 17:19:59,-9.501899,-6.4055862,2.5220351,1.73642,0.60811335,1.9525567,11.73363867,2.682803415,crawl
10/07/2020, 17:19:59,-9.501899,-6.4055862,2.5220351,1.9501145,0.58979666,1.8548678,11.73363867,2.755238871,crawl
10/07/2020, 17:19:59,-9.257831,-6.391229,2.565106,1.9501145,0.58979666,1.8548678,11.53841437,2.755238871,crawl
10/07/2020, 17:19:59,-9.257831,-6.391229,2.565106,2.1662512,0.5775856,1.7339778,11.53841437,2.834242099,crawl
10/07/2020, 17:19:59,-8.992228,-6.398408,2.6799614,2.1662512,0.5775856,1.7339778,11.35702311,2.834242099,crawl
10/07/2020, 17:19:59,-8.992228,-6.398408,2.6799614,2.3750613,0.5641534,1.5935501,11.35702311,2.915233603,crawl
10/07/2020, 17:19:59,-8.736196,-6.309873,2.845066,2.3750613,0.5641534,1.5935501,11.14585181,2.915233603,crawl
10/07/2020, 17:19:59,-8.736196,-6.309873,2.845066,2.5606701,0.56171113,1.4335845,11.14585181,2.987928267,crawl
10/07/2020, 17:19:59,-8.489735,-6.209375,2.9742785,2.5606701,0.56171113,1.4335845,10.9306113,2.987928267,crawl
10/07/2020, 17:19:59,-8.489735,-6.209375,2.9742785,2.6827812,0.56659555,1.2699556,10.9306113,3.021776449,crawl
10/07/2020, 17:19:59,-8.281559,-5.9748783,3.0843484,2.6827812,0.56659555,1.2699556,10.66754871,3.021776449,crawl
10/07/2020, 17:19:59,-8.281559,-5.9748783,3.0843484,2.7120879,0.55438447,1.1124322,10.66754871,2.983331736,crawl
10/07/2020, 17:19:59,-8.13799,-5.65424,3.2087753,2.7120879,0.55438447,1.1124322,10.41602378,2.983331736,crawl
10/07/2020, 17:19:59,-8.13799,-5.65424,3.2087753,2.6437056,0.52752,0.9329289,10.41602378,2.852685236,crawl
10/07/2020, 17:19:59,-8.1020975,-5.288138,3.2733815,2.6437056,0.52752,0.9329289,10.21388334,2.852685236,crawl
10/07/2020, 17:20:00,-9.923036,-3.318845,2.2851455,1.5092934,1.0745778,2.5069413,10.70996071,3.117280693,crawl
10/07/2020, 17:20:00,-9.923036,-3.318845,2.2851455,1.4995245,1.1283067,2.2932467,10.70996071,2.963212851,crawl
10/07/2020, 17:20:00,-10.3681,-3.1872396,2.2660031,1.4995245,1.1283067,2.2932467,11.08109958,2.963212851,crawl
10/07/2020, 17:20:00,-10.3681,-3.1872396,2.2660031,1.4665545,1.1710457,2.09909,11.08109958,2.815725369,crawl
10/07/2020, 17:20:00,-10.77488,-3.0412776,2.254039,1.4665545,1.1710457,2.09909,11.42051267,2.815725369,crawl
10/07/2020, 17:20:00,-10.77488,-3.0412776,2.254039,1.3786345,1.1930256,1.9293556,11.42051267,2.654497339,crawl
10/07/2020, 17:20:00,-11.047662,-2.9503503,2.2444677,1.3786345,1.1930256,1.9293556,11.65302678,2.654497339,crawl
10/07/2020, 17:20:00,-11.047662,-2.9503503,2.2444677,1.2516389,1.1918045,1.7864857,11.65302678,2.4856647,crawl
10/07/2020, 17:20:00,-11.16491,-2.955136,2.3306093,1.2516389,1.1918045,1.7864857,11.78218109,2.4856647,crawl
10/07/2020, 17:20:00,-11.16491,-2.955136,2.3306093,1.0977789,1.1820356,1.6301835,11.78218109,2.293430778,crawl
10/07/2020, 17:20:00,-11.162518,-3.0460632,2.4454648,1.0977789,1.1820356,1.6301835,11.82626726,2.293430778,crawl
10/07/2020, 17:20:00,-11.162518,-3.0460632,2.4454648,0.92560226,1.17593,1.4824289,11.82626726,2.106453519,crawl
10/07/2020, 17:20:00,-11.090733,-3.2446675,2.5387847,0.92560226,1.17593,1.4824289,11.83121483,2.106453519,crawl
10/07/2020, 17:20:00,-11.090733,-3.2446675,2.5387847,0.7766267,1.1710457,1.3578756,11.83121483,1.95405299,crawl
10/07/2020, 17:20:00,-11.085947,-3.4983068,2.6105695,0.7766267,1.1710457,1.3578756,11.91433778,1.95405299,crawl
10/07/2020, 17:20:00,-11.085947,-3.4983068,2.6105695,0.6520734,1.1539501,1.2577446,11.91433778,1.827216975,crawl
10/07/2020, 17:20:00,-11.150554,-3.751946,2.6536403,0.6520734,1.1539501,1.2577446,12.06042094,1.827216975,crawl
10/07/2020, 17:20:00,-11.150554,-3.751946,2.6536403,0.54950005,1.130749,1.1771512,12.06042094,1.722274232,crawl
10/07/2020, 17:20:00,-11.145768,-3.991228,2.6823542,0.54950005,1.130749,1.1771512,12.13890744,1.722274232,crawl
10/07/2020, 17:20:00,-11.145768,-3.991228,2.6823542,0.46158,1.0941156,1.1124322,12.13890744,1.627160279,crawl
10/07/2020, 17:20:01,-8.963513,-2.7972097,2.333002,-0.6557367,-0.037854444,2.405589,9.67532186,2.49364843,crawl
10/07/2020, 17:20:01,-9.075976,-2.9312077,2.333002,-0.6557367,-0.037854444,2.405589,9.818768975,2.49364843,crawl
10/07/2020, 17:20:01,-9.075976,-2.9312077,2.333002,-0.5507211,-0.06349778,2.6058512,9.818768975,2.664167045,crawl
10/07/2020, 17:20:01,-9.107083,-3.0197423,2.3018954,-0.5507211,-0.06349778,2.6058512,9.866941381,2.664167045,crawl
10/07/2020, 17:20:01,-9.107083,-3.0197423,2.3018954,-0.4713489,-0.081814446,2.7804701,9.866941381,2.821325497,crawl
10/07/2020, 17:20:01,-9.066405,-3.1058838,2.2444677,-0.4713489,-0.081814446,2.7804701,9.842959658,2.821325497,crawl
10/07/2020, 17:20:01,-9.066405,-3.1058838,2.2444677,-0.42128336,-0.09524667,2.9355512,9.842959658,2.967155583,crawl
10/07/2020, 17:20:01,-9.044869,-3.211168,2.2325034,-0.42128336,-0.09524667,2.9355512,9.854203906,2.967155583,crawl
10/07/2020, 17:20:01,-9.044869,-3.211168,2.2325034,-0.36633334,-0.098910004,3.0894113,9.854203906,3.112626741,crawl
10/07/2020, 17:20:01,-9.030513,-3.3140593,2.2205393,-0.36633334,-0.098910004,3.0894113,9.872382959,3.112626741,crawl
10/07/2020, 17:20:01,-9.030513,-3.3140593,2.2205393,-0.30894113,-0.08792,3.23106,9.872382959,3.246986826,crawl
10/07/2020, 17:20:01,-9.12144,-3.4504502,2.2636101,-0.30894113,-0.08792,3.23106,10.01150357,3.246986826,crawl
10/07/2020, 17:20:01,-9.12144,-3.4504502,2.2636101,-0.24300112,-0.07326667,3.3653824,10.01150357,3.374939476,crawl
10/07/2020, 17:20:01,-9.281759,-3.574877,2.3401806,-0.24300112,-0.07326667,3.3653824,10.2179864,3.374939476,crawl
10/07/2020, 17:20:01,-9.281759,-3.574877,2.3401806,-0.16362889,-0.051286668,3.49482,10.2179864,3.499024492,crawl
10/07/2020, 17:20:01,-9.45165,-3.6993039,2.3952155,-0.16362889,-0.051286668,3.49482,10.42859472,3.499024492,crawl
10/07/2020, 17:20:01,-9.45165,-3.6993039,2.3952155,-0.081814446,-0.037854444,3.6181524,10.42859472,3.619275232,crawl
10/07/2020, 17:20:01,-9.640682,-3.8333018,2.495714,-0.081814446,-0.037854444,3.6181524,10.67077993,3.619275232,crawl
10/07/2020, 17:20:01,-9.640682,-3.8333018,2.495714,0.002442222,-0.023201112,3.7256103,10.67077993,3.725683298,crawl
10/07/2020, 17:20:01,-9.803394,-3.9050865,2.5962126,0.002442222,-0.023201112,3.7256103,10.86722416,3.725683298,crawl
10/07/2020, 17:20:02,-11.365908,-4.792824,-0.1698904,1.1771512,0.13188,-1.3847401,12.33628306,1.822246546,crawl
10/07/2020, 17:20:02,-11.375479,-4.17069,-0.4881358,1.1771512,0.13188,-1.3847401,12.12577621,1.822246546,crawl
10/07/2020, 17:20:02,-11.375479,-4.17069,-0.4881358,1.0281756,0.051286668,-1.4189311,12.12577621,1.753037625,crawl
10/07/2020, 17:20:02,-11.066805,-3.603591,-0.5910272,1.0281756,0.051286668,-1.4189311,11.65372693,1.753037625,crawl
10/07/2020, 17:20:02,-11.066805,-3.603591,-0.5910272,0.82913446,-0.007326667,-1.4409112,11.65372693,1.662450796,crawl
10/07/2020, 17:20:02,-10.540383,-3.1609187,-0.5288138,0.82913446,-0.007326667,-1.4409112,11.01683857,1.662450796,crawl
10/07/2020, 17:20:02,-10.540383,-3.1609187,-0.5288138,0.59468114,-0.017095556,-1.4799867,11.01683857,1.595085721,crawl
10/07/2020, 17:20:02,-10.0163555,-2.9072795,-0.32303107,0.59468114,-0.017095556,-1.4799867,10.43474968,1.595085721,crawl
10/07/2020, 17:20:02,-10.0163555,-2.9072795,-0.32303107,0.34557447,0.024422223,-1.5080723,10.43474968,1.547352607,crawl
10/07/2020, 17:20:02,-9.578469,-2.8761728,-0.078963146,0.34557447,0.024422223,-1.5080723,10.00128385,1.547352607,crawl
10/07/2020, 17:20:02,-9.578469,-2.8761728,-0.078963146,0.11356334,0.078151114,-1.5019667,10.00128385,1.508279895,crawl
10/07/2020, 17:20:02,-9.322437,-2.9599216,0.15314065,0.11356334,0.078151114,-1.5019667,9.782250502,1.508279895,crawl
10/07/2020, 17:20:02,-9.322437,-2.9599216,0.15314065,-0.089141116,0.117226675,-1.4751023,9.782250502,1.482435511,crawl
10/07/2020, 17:20:02,-9.253045,-3.117848,0.3182454,-0.089141116,0.117226675,-1.4751023,9.769396045,1.482435511,crawl
10/07/2020, 17:20:02,-9.253045,-3.117848,0.3182454,-0.2515489,0.123332225,-1.4323634,9.769396045,1.459504218,crawl
10/07/2020, 17:20:02,-9.281759,-3.3403804,0.40438703,-0.2515489,0.123332225,-1.4323634,9.872827624,1.459504218,crawl
10/07/2020, 17:20:02,-9.281759,-3.3403804,0.40438703,-0.3834289,0.10135223,-1.3835189,9.872827624,1.439240994,crawl
10/07/2020, 17:20:02,-9.2793665,-3.6275191,0.50488555,-0.3834289,0.10135223,-1.3835189,9.975993534,1.439240994,crawl
10/07/2020, 17:20:02,-9.2793665,-3.6275191,0.50488555,-0.5018767,0.078151114,-1.3310112,9.975993534,1.424632788,crawl
10/07/2020, 17:20:02,-9.183653,-3.8787656,0.59342,-0.5018767,0.078151114,-1.3310112,9.986813804,1.424632788,crawl
10/07/2020, 17:20:03,-10.530812,-6.0107703,1.3040884,-0.46524334,-0.47501224,-3.4813879,12.19540951,3.544312258,crawl
10/07/2020, 17:20:03,-10.042677,-5.759524,1.3998013,-0.46524334,-0.47501224,-3.4813879,11.66134291,3.544312258,crawl
10/07/2020, 17:20:03,-10.042677,-5.759524,1.3998013,-0.42128336,-0.46646446,-3.405679,11.66134291,3.463194787,crawl
10/07/2020, 17:20:03,-9.516255,-5.5513487,1.3950156,-0.42128336,-0.46646446,-3.405679,11.10507349,3.463194787,crawl
10/07/2020, 17:20:03,-9.516255,-5.5513487,1.3950156,-0.40174556,-0.49455002,-3.3519502,11.10507349,3.411971446,crawl
10/07/2020, 17:20:03,-9.114262,-5.493921,1.3304094,-0.40174556,-0.49455002,-3.3519502,10.72487389,3.411971446,crawl
10/07/2020, 17:20:03,-9.114262,-5.493921,1.3304094,-0.3284789,-0.5250778,-3.283568,10.72487389,3.34147023,crawl
10/07/2020, 17:20:03,-8.810373,-5.4723854,1.3375878,-0.3284789,-0.5250778,-3.283568,10.4574768,3.34147023,crawl
10/07/2020, 17:20:03,-8.810373,-5.4723854,1.3375878,-0.23567446,-0.5128667,-3.1565723,10.4574768,3.206637433,crawl
10/07/2020, 17:20:03,-8.544769,-5.4125648,1.4093726,-0.23567446,-0.5128667,-3.1565723,10.21250559,3.206637433,crawl
10/07/2020, 17:20:03,-8.544769,-5.4125648,1.4093726,-0.16362889,-0.5092034,-3.0137024,10.21250559,3.060794766,crawl
10/07/2020, 17:20:03,-8.185846,-5.319245,1.457229,-0.16362889,-0.5092034,-3.0137024,9.870459079,3.060794766,crawl
10/07/2020, 17:20:03,-8.185846,-5.319245,1.457229,-0.106236674,-0.5690378,-2.9025812,9.870459079,2.959741197,crawl
10/07/2020, 17:20:03,-7.726424,-5.2426744,1.4931214,-0.106236674,-0.5690378,-2.9025812,9.455827674,2.959741197,crawl
10/07/2020, 17:20:03,-7.726424,-5.2426744,1.4931214,0.001221111,-0.62643003,-2.7975657,9.455827674,2.866843197,crawl
10/07/2020, 17:20:03,-7.1473613,-5.2498527,1.5409778,0.001221111,-0.62643003,-2.7975657,9.001129866,2.866843197,crawl
10/07/2020, 17:20:03,-7.1473613,-5.2498527,1.5409778,0.19049335,-0.63619894,-2.6412635,9.001129866,2.723473811,crawl
10/07/2020, 17:20:03,-6.5539412,-5.204389,1.5146568,0.19049335,-0.63619894,-2.6412635,8.504939561,2.723473811,crawl
10/07/2020, 17:20:03,-6.5539412,-5.204389,1.5146568,0.42372558,-0.6007867,-2.449549,8.504939561,2.557494499,crawl
10/07/2020, 17:20:03,-6.0011992,-4.9698925,1.3974084,0.42372558,-0.6007867,-2.449549,7.91624747,2.557494499,crawl
10/07/2020, 17:20:04,-8.4705925,-4.792824,3.6466618,0.40785113,-0.42983112,-2.658359,10.39327856,2.723595083,crawl
10/07/2020, 17:20:04,-8.4705925,-4.792824,3.6466618,0.3724389,-0.3724389,-2.6217256,10.39327856,2.674110392,crawl
10/07/2020, 17:20:04,-8.319844,-4.6492543,3.2063823,0.3724389,-0.3724389,-2.6217256,10.05565817,2.674110392,crawl
10/07/2020, 17:20:04,-8.319844,-4.6492543,3.2063823,0.22468445,-0.3370267,-2.5521224,10.05565817,2.584066292,crawl
10/07/2020, 17:20:04,-8.037491,-4.685147,2.629712,0.22468445,-0.3370267,-2.5521224,9.667845957,2.584066292,crawl
10/07/2020, 17:20:04,-8.037491,-4.685147,2.629712,0.035412222,-0.2845189,-2.49473,9.667845957,2.511151684,crawl
10/07/2020, 17:20:04,-7.769495,-4.962714,1.9214365,0.035412222,-0.2845189,-2.49473,9.41729809,2.511151684,crawl
10/07/2020, 17:20:04,-7.769495,-4.962714,1.9214365,-0.12943779,-0.20881,-2.4959512,9.41729809,2.508012765,crawl
10/07/2020, 17:20:04,-7.5326056,-5.4412785,1.1724831,-0.12943779,-0.20881,-2.4959512,9.366022405,2.508012765,crawl
10/07/2020, 17:20:04,-7.5326056,-5.4412785,1.1724831,-0.13432223,-0.13188,-2.5215945,9.366022405,2.52861103,crawl
10/07/2020, 17:20:04,-7.223932,-5.814559,0.9619147,-0.13432223,-0.13188,-2.5215945,9.323066373,2.52861103,crawl
10/07/2020, 17:20:04,-7.223932,-5.814559,0.9619147,0.07937223,-0.03052778,-2.4874034,9.323066373,2.488856672,crawl
10/07/2020, 17:20:04,-6.7836523,-6.013163,0.89730847,0.07937223,-0.03052778,-2.4874034,9.109403462,2.488856672,crawl
10/07/2020, 17:20:04,-6.7836523,-6.013163,0.89730847,0.3382478,0.098910004,-2.405589,9.109403462,2.431265864,crawl
10/07/2020, 17:20:04,-6.3074803,-6.5108705,0.14356937,0.3382478,0.098910004,-2.405589,9.066220516,2.431265864,crawl
10/07/2020, 17:20:04,-6.3074803,-6.5108705,0.14356937,0.5092034,0.25277,-2.4104733,9.066220516,2.476603018,crawl
10/07/2020, 17:20:04,-5.977271,-6.95115,-0.7465607,0.5092034,0.25277,-2.4104733,9.198021957,2.476603018,crawl
10/07/2020, 17:20:04,-5.977271,-6.95115,-0.7465607,0.65451556,0.44448447,-2.4971724,9.198021957,2.619508894,crawl
10/07/2020, 17:20:04,-5.6781683,-7.1569324,-1.6127625,0.65451556,0.44448447,-2.4971724,9.277083521,2.619508894,crawl
10/07/2020, 17:20:04,-5.6781683,-7.1569324,-1.6127625,0.55438447,0.6386411,-2.5215945,9.277083521,2.659632224,crawl
10/07/2020, 17:20:05,-3.0364919,-4.371687,1.9357935,3.3849201,1.3175789,3.0344613,5.663852584,4.733038511,crawl
10/07/2020, 17:20:05,-3.0364919,-4.371687,1.9357935,3.58274,1.4433534,3.1968691,5.663852584,5.013907433,crawl
10/07/2020, 17:20:05,-3.199204,-4.17069,1.2897314,3.58274,1.4433534,3.1968691,5.412297908,5.013907433,crawl
10/07/2020, 17:20:05,-3.199204,-4.17069,1.2897314,3.5986147,1.4751023,3.2591457,5.412297908,5.074247279,crawl
10/07/2020, 17:20:05,-3.5892339,-4.6803613,0.92602235,3.5986147,1.4751023,3.2591457,5.970418648,5.074247279,crawl
10/07/2020, 17:20:05,-3.5892339,-4.6803613,0.92602235,3.3910258,1.4726601,3.2591457,5.970418648,4.928469788,crawl
10/07/2020, 17:20:05,-4.091727,-6.0753765,1.0073783,3.3910258,1.4726601,3.2591457,7.393729702,4.928469788,crawl
10/07/2020, 17:20:05,-4.091727,-6.0753765,1.0073783,2.9086869,1.5776756,3.229839,7.393729702,4.624000444,crawl
10/07/2020, 17:20:05,-4.615755,-7.207182,1.4069797,2.9086869,1.5776756,3.229839,8.673422518,4.624000444,crawl
10/07/2020, 17:20:05,-4.615755,-7.207182,1.4069797,2.262719,1.6729223,3.3263068,8.673422518,4.356935026,crawl
10/07/2020, 17:20:05,-5.45085,-7.7407813,3.4217365,2.262719,1.6729223,3.3263068,10.06676421,4.356935026,crawl
10/07/2020, 17:20:05,-5.45085,-7.7407813,3.4217365,1.8585312,1.7498523,3.2676935,10.06676421,4.146557894,crawl
10/07/2020, 17:20:05,-5.285745,-7.7623167,3.1106694,1.8585312,1.7498523,3.2676935,9.8928725,4.146557894,crawl
10/07/2020, 17:20:05,-5.285745,-7.7623167,3.1106694,1.2369856,1.8976067,3.3324122,9.8928725,4.029393992,crawl
10/07/2020, 17:20:05,-4.938786,-7.568498,3.1274192,1.2369856,1.8976067,3.3324122,9.563185794,4.029393992,crawl
10/07/2020, 17:20:05,-4.938786,-7.568498,3.1274192,0.42983112,1.9342401,3.4301012,9.563185794,3.961266654,crawl
10/07/2020, 17:20:05,-4.6564326,-6.893722,2.9168508,0.42983112,1.9342401,3.4301012,8.815542368,3.961266654,crawl
10/07/2020, 17:20:05,-4.6564326,-6.893722,2.9168508,-0.38953447,1.8719634,3.5094736,8.815542368,3.996547096,crawl
10/07/2020, 17:20:05,-4.551149,-6.448657,3.0269206,-0.38953447,1.8719634,3.5094736,8.453424268,3.996547096,crawl
10/07/2020, 17:20:05,-4.551149,-6.448657,3.0269206,-1.1734878,1.7571789,3.6157103,8.453424268,4.187852904,crawl
10/07/2020, 17:20:06,-9.755538,-5.1900325,2.2372892,0.48600224,-0.047623336,2.843968,11.27441446,2.885588269,crawl
10/07/2020, 17:20:06,-9.755538,-5.1900325,2.2372892,0.5336256,-0.05617111,2.7768068,11.27441446,2.828173908,crawl
10/07/2020, 17:20:06,-9.710074,-5.2139606,2.4143581,0.5336256,-0.05617111,2.7768068,11.28273266,2.828173908,crawl
10/07/2020, 17:20:06,-9.710074,-5.2139606,2.4143581,0.6032289,-0.04396,2.680339,11.28273266,2.747732756,crawl
10/07/2020, 17:20:06,-9.726824,-5.2498527,2.6009982,0.6032289,-0.04396,2.680339,11.35505375,2.747732756,crawl
10/07/2020, 17:20:06,-9.726824,-5.2498527,2.6009982,0.68138003,-0.03052778,2.5570068,11.35505375,2.646411656,crawl
10/07/2020, 17:20:06,-9.848858,-5.276174,2.778067,0.68138003,-0.03052778,2.5570068,11.51328238,2.646411656,crawl
10/07/2020, 17:20:06,-9.848858,-5.276174,2.778067,0.7546467,-0.02198,2.4129157,11.51328238,2.528267588,crawl
10/07/2020, 17:20:06,-10.076176,-5.2546387,2.885744,0.7546467,-0.02198,2.4129157,11.72467753,2.528267588,crawl
10/07/2020, 17:20:06,-10.076176,-5.2546387,2.885744,0.81326,-0.008547778,2.2456234,11.72467753,2.388365373,crawl
10/07/2020, 17:20:06,-10.427921,-5.194818,2.8953154,0.81326,-0.008547778,2.2456234,12.00460445,2.388365373,crawl
10/07/2020, 17:20:06,-10.427921,-5.194818,2.8953154,0.8584412,0.003663334,2.0783312,12.00460445,2.248643008,crawl
10/07/2020, 17:20:06,-10.724631,-5.089534,2.8115666,0.8584412,0.003663334,2.0783312,12.19942531,2.248643008,crawl
10/07/2020, 17:20:06,-10.724631,-5.089534,2.8115666,0.8669889,0.008547778,1.9256923,12.19942531,2.111879192,crawl
10/07/2020, 17:20:06,-10.827522,-4.9459643,2.696711,0.8669889,0.008547778,1.9256923,12.20532885,2.111879192,crawl
10/07/2020, 17:20:06,-10.827522,-4.9459643,2.696711,0.8071545,0.006105556,1.7840434,12.20532885,1.958148766,crawl
10/07/2020, 17:20:06,-10.6408825,-4.6971107,2.6081767,0.8071545,0.006105556,1.7840434,11.920311,1.958148766,crawl
10/07/2020, 17:20:06,-10.6408825,-4.6971107,2.6081767,0.6691689,0.012211111,1.62652,11.920311,1.75883585,crawl
10/07/2020, 17:20:06,-10.296316,-4.4051867,2.5962126,0.6691689,0.012211111,1.62652,11.49609132,1.75883585,crawl
10/07/2020, 17:20:06,-10.296316,-4.4051867,2.5962126,0.48356003,0.008547778,1.45068,11.49609132,1.5291749,crawl
10/07/2020, 17:20:07,-11.150554,-4.26401,2.009971,0.96223557,0.10501556,2.6510324,12.10605682,2.822215194,crawl
10/07/2020, 17:20:07,-11.222338,-4.3094735,2.0171494,0.96223557,0.10501556,2.6510324,12.18939366,2.822215194,crawl
10/07/2020, 17:20:07,-11.222338,-4.3094735,2.0171494,1.0611455,0.13676445,2.5521224,12.18939366,2.767320526,crawl
10/07/2020, 17:20:07,-11.241481,-4.3405805,2.0410776,1.0611455,0.13676445,2.5521224,12.22200997,2.767320526,crawl
10/07/2020, 17:20:07,-11.241481,-4.3405805,2.0410776,1.1368545,0.15874445,2.4471068,12.22200997,2.702955771,crawl
10/07/2020, 17:20:07,-11.167303,-4.302295,2.0673988,1.1368545,0.15874445,2.4471068,12.14465067,2.702955771,crawl
10/07/2020, 17:20:07,-11.167303,-4.302295,2.0673988,1.1771512,0.16729222,2.3469756,12.14465067,2.630962931,crawl
10/07/2020, 17:20:07,-10.978271,-4.26401,2.07697,1.1771512,0.16729222,2.3469756,11.95901374,2.630962931,crawl
10/07/2020, 17:20:07,-10.978271,-4.26401,2.07697,1.1893623,0.17584,2.2285278,11.95901374,2.532160825,crawl
10/07/2020, 17:20:07,-10.719846,-4.2185464,2.1463618,1.1893623,0.17584,2.2285278,11.71828042,2.532160825,crawl
10/07/2020, 17:20:07,-10.719846,-4.2185464,2.1463618,1.1783723,0.19293556,2.1113012,11.71828042,2.425567564,crawl
10/07/2020, 17:20:07,-10.442278,-4.1515474,2.1631117,1.1783723,0.19293556,2.1113012,11.44358188,2.425567564,crawl
10/07/2020, 17:20:07,-10.442278,-4.1515474,2.1631117,1.1588345,0.21980001,1.9794211,11.44358188,2.304195606,crawl
10/07/2020, 17:20:07,-10.229317,-4.1036906,2.1343977,1.1588345,0.21980001,1.9794211,11.22652443,2.304195606,crawl
10/07/2020, 17:20:07,-10.229317,-4.1036906,2.1343977,1.1405178,0.24178001,1.85731,11.22652443,2.192906552,crawl
10/07/2020, 17:20:07,-10.083355,-4.0534415,2.1008983,1.1405178,0.24178001,1.85731,11.06879437,2.192906552,crawl
10/07/2020, 17:20:07,-10.083355,-4.0534415,2.1008983,1.1063267,0.25277,1.7376412,11.06879437,2.075391152,crawl
10/07/2020, 17:20:07,-9.923036,-3.9649072,2.024328,1.1063267,0.25277,1.7376412,10.87589208,2.075391152,crawl
10/07/2020, 17:20:07,-9.923036,-3.9649072,2.024328,1.0440501,0.26009667,1.6240778,10.87589208,1.948157995,crawl
10/07/2020, 17:20:07,-9.767502,-3.8691943,1.9980069,1.0440501,0.26009667,1.6240778,10.69424088,1.948157995,crawl
10/07/2020, 17:20:08,-9.035298,-4.1587257,1.4069797,0.5030978,0.15141778,3.3861413,10.04545707,3.426658375,crawl
10/07/2020, 17:20:08,-9.217153,-4.1850467,1.4715859,0.5030978,0.15141778,3.3861413,10.229178,3.426658375,crawl
10/07/2020, 17:20:08,-9.217153,-4.1850467,1.4715859,0.48844448,0.15019667,3.515579,10.229178,3.552524827,crawl
10/07/2020, 17:20:08,-9.339187,-4.2759743,1.5361922,0.48844448,0.15019667,3.515579,10.38577152,3.552524827,crawl
10/07/2020, 17:20:08,-9.339187,-4.2759743,1.5361922,0.49455002,0.17217667,3.625479,10.38577152,3.663102836,crawl
10/07/2020, 17:20:08,-9.554541,-4.3788652,1.6247265,0.49455002,0.17217667,3.625479,10.63501029,3.663102836,crawl
10/07/2020, 17:20:08,-9.554541,-4.3788652,1.6247265,0.5324045,0.20026223,3.7170625,10.63501029,3.760334151,crawl
10/07/2020, 17:20:08,-9.889536,-4.534399,1.753939,0.5324045,0.20026223,3.7170625,11.01998172,3.760334151,crawl
10/07/2020, 17:20:08,-9.889536,-4.534399,1.753939,0.6032289,0.23445335,3.7817812,11.01998172,3.836759379,crawl
10/07/2020, 17:20:08,-10.3441725,-4.6875396,1.8305093,0.6032289,0.23445335,3.7817812,11.50329065,3.836759379,crawl
10/07/2020, 17:20:08,-10.3441725,-4.6875396,1.8305093,0.70458114,0.25399113,3.8269625,11.50329065,3.899562518,crawl
10/07/2020, 17:20:08,-10.827522,-4.843073,1.8975084,0.70458114,0.25399113,3.8269625,12.01212437,3.899562518,crawl
10/07/2020, 17:20:08,-10.827522,-4.843073,1.8975084,0.81936556,0.24544334,3.8587112,12.01212437,3.952373314,crawl
10/07/2020, 17:20:08,-11.274981,-4.979464,1.9573289,0.81936556,0.24544334,3.8587112,12.48003946,3.952373314,crawl
10/07/2020, 17:20:08,-11.274981,-4.979464,1.9573289,0.9317078,0.23811668,3.8904603,12.48003946,4.007550368,crawl
10/07/2020, 17:20:08,-11.502298,-5.103891,2.0171494,0.9317078,0.23811668,3.8904603,12.74446788,4.007550368,crawl
10/07/2020, 17:20:08,-11.502298,-5.103891,2.0171494,1.0269545,0.2515489,3.9038923,12.74446788,4.044537968,crawl
10/07/2020, 17:20:08,-11.547762,-5.151747,2.0961127,1.0269545,0.2515489,3.9038923,12.81737077,4.044537968,crawl
10/07/2020, 17:20:08,-11.547762,-5.151747,2.0961127,1.0880101,0.29062447,3.888018,12.81737077,4.047828015,crawl
10/07/2020, 17:20:08,-11.519048,-5.1756754,2.2229323,1.0880101,0.29062447,3.888018,12.82253893,4.047828015,crawl
10/07/2020, 17:20:09,-6.2117677,-3.7088752,1.6749759,0.042738892,0.064718895,1.1515079,7.426126642,1.154116756,crawl
10/07/2020, 17:20:09,-6.2117677,-3.7088752,1.6749759,0.05372889,0.06960334,1.3358957,7.426126642,1.338786251,crawl
10/07/2020, 17:20:09,-6.3888364,-3.7136607,1.6175481,0.05372889,0.06960334,1.3358957,7.564718643,1.338786251,crawl
10/07/2020, 17:20:09,-6.3888364,-3.7136607,1.6175481,0.054950003,0.07448778,1.515399,7.564718643,1.518223303,crawl
10/07/2020, 17:20:09,-6.5108705,-3.6921253,1.5409778,0.054950003,0.07448778,1.515399,7.641847694,1.518223303,crawl
10/07/2020, 17:20:09,-6.5108705,-3.6921253,1.5409778,0.036633335,0.070824444,1.6924601,7.641847694,1.69433738,crawl
10/07/2020, 17:20:09,-6.5778694,-3.656233,1.4691931,0.036633335,0.070824444,1.6924601,7.667785514,1.69433738,crawl
10/07/2020, 17:20:09,-6.5778694,-3.656233,1.4691931,0,0.07448778,1.8695211,7.667785514,1.87100447,crawl
10/07/2020, 17:20:09,-6.6161547,-3.6394832,1.4189439,0,0.07448778,1.8695211,7.683276803,1.87100447,crawl
10/07/2020, 17:20:09,-6.6161547,-3.6394832,1.4189439,-0.03174889,0.09280445,2.0368135,7.683276803,2.039173823,crawl
10/07/2020, 17:20:09,-6.719046,-3.67059,1.4356936,-0.03174889,0.09280445,2.0368135,7.789738588,2.039173823,crawl
10/07/2020, 17:20:09,-6.719046,-3.67059,1.4356936,-0.04151778,0.11844778,2.207769,7.789738588,2.211333804,crawl
10/07/2020, 17:20:09,-6.9009004,-3.76391,1.4213367,-0.04151778,0.11844778,2.207769,7.988093803,2.211333804,crawl
10/07/2020, 17:20:09,-6.9009004,-3.76391,1.4213367,-0.024422223,0.13920668,2.372619,7.988093803,2.376824658,crawl
10/07/2020, 17:20:09,-7.1066833,-3.9314077,1.4715859,-0.024422223,0.13920668,2.372619,8.25387656,2.376824658,crawl
10/07/2020, 17:20:09,-7.1066833,-3.9314077,1.4715859,0.009768889,0.16607112,2.5399113,8.25387656,2.545353474,crawl
10/07/2020, 17:20:09,-7.32443,-4.06062,1.5625132,0.009768889,0.16607112,2.5399113,8.519234454,2.545353474,crawl
10/07/2020, 17:20:09,-7.32443,-4.06062,1.5625132,0.06594,0.19537778,2.7047613,8.519234454,2.712610195,crawl
10/07/2020, 17:20:09,-7.5661054,-4.2041893,1.6414764,0.06594,0.19537778,2.7047613,8.809971784,2.712610195,crawl
10/07/2020, 17:20:09,-7.5661054,-4.2041893,1.6414764,0.13432223,0.2283478,2.8586211,8.809971784,2.870870928,crawl
10/07/2020, 17:20:10,-6.879365,-3.7208393,0.4426722,-0.6838223,0.1746189,-0.47501224,7.833662352,0.850729859,crawl
10/07/2020, 17:20:10,-6.728617,-3.7543387,0.5766702,-0.6838223,0.1746189,-0.47501224,7.726700282,0.850729859,crawl
10/07/2020, 17:20:10,-6.728617,-3.7543387,0.5766702,-0.4151778,0.29062447,-0.25887558,7.726700282,0.569079737,crawl
10/07/2020, 17:20:10,-6.687939,-3.8356948,0.7082755,-0.4151778,0.29062447,-0.25887558,7.742269629,0.569079737,crawl
10/07/2020, 17:20:10,-6.687939,-3.8356948,0.7082755,-0.16485001,0.39686114,-0.04396,7.742269629,0.431980057,crawl
10/07/2020, 17:20:10,-6.7405815,-3.885944,0.7704889,-0.16485001,0.39686114,-0.04396,7.818545403,0.431980057,crawl
10/07/2020, 17:20:10,-6.7405815,-3.885944,0.7704889,0.05250778,0.47501224,0.17095557,7.818545403,0.507562316,crawl
10/07/2020, 17:20:10,-6.8410797,-3.8907297,0.79920274,0.05250778,0.47501224,0.17095557,7.910554593,0.507562316,crawl
10/07/2020, 17:20:10,-6.8410797,-3.8907297,0.79920274,0.23933779,0.52019334,0.3931978,7.910554593,0.694613705,crawl
10/07/2020, 17:20:10,-6.838687,-3.8739798,0.78723866,0.23933779,0.52019334,0.3931978,7.899057118,0.694613705,crawl
10/07/2020, 17:20:10,-6.838687,-3.8739798,0.78723866,0.39930335,0.5507211,0.6239878,7.899057118,0.923091366,crawl
10/07/2020, 17:20:10,-6.7573314,-3.8117664,0.7848458,0.39930335,0.5507211,0.6239878,7.797889023,0.923091366,crawl
10/07/2020, 17:20:10,-6.7573314,-3.8117664,0.7848458,0.53484666,0.5885756,0.85599893,7.797889023,1.168424737,crawl
10/07/2020, 17:20:10,-6.5371914,-3.7663028,0.70588267,0.53484666,0.5885756,0.85599893,7.577478379,1.168424737,crawl
10/07/2020, 17:20:10,-6.5371914,-3.7663028,0.70588267,0.6581789,0.6435256,1.0916734,7.577478379,1.427961993,crawl
10/07/2020, 17:20:10,-6.3338017,-3.682554,0.66759753,0.6581789,0.6435256,1.0916734,7.356897107,1.427961993,crawl
10/07/2020, 17:20:10,-6.3338017,-3.682554,0.66759753,0.7656367,0.70336,1.3322322,7.356897107,1.68989869,crawl
10/07/2020, 17:20:10,-6.1806607,-3.6179478,0.6221339,0.7656367,0.70336,1.3322322,7.188683051,1.68989869,crawl
10/07/2020, 17:20:10,-6.1806607,-3.6179478,0.6221339,0.8498934,0.7631945,1.5654645,7.188683051,1.937901884,crawl
10/07/2020, 17:20:10,-6.1064835,-3.5509489,0.5814559,0.8498934,0.7631945,1.5654645,7.087768971,1.937901884,crawl
10/07/2020, 17:20:11,-6.192625,-4.3405805,4.316652,-1.1637189,0.57636446,-0.8877478,8.707624628,1.573065147,crawl
10/07/2020, 17:20:11,-4.469793,-4.8263235,5.302495,-1.1637189,0.57636446,-0.8877478,8.449195224,1.573065147,crawl
10/07/2020, 17:20:11,-4.469793,-4.8263235,5.302495,-0.90118,0.82547116,-0.61666113,8.449195224,1.368867793,crawl
10/07/2020, 17:20:11,-2.9838498,-5.3886366,6.0323057,-0.90118,0.82547116,-0.61666113,8.6214544,1.368867793,crawl
10/07/2020, 17:20:11,-2.9838498,-5.3886366,6.0323057,-0.59834445,1.0379444,-0.3712178,8.6214544,1.254251718,crawl
10/07/2020, 17:20:11,-1.8927227,-5.9964137,6.687939,-0.59834445,1.0379444,-0.3712178,9.179755278,1.254251718,crawl
10/07/2020, 17:20:11,-1.8927227,-5.9964137,6.687939,-0.23689556,1.1979101,-0.16240779,9.179755278,1.23186214,crawl
10/07/2020, 17:20:11,-1.1676974,-6.6257257,7.166504,-0.23689556,1.1979101,-0.16240779,9.829676352,1.23186214,crawl
10/07/2020, 17:20:11,-1.1676974,-6.6257257,7.166504,0.23811668,1.3188001,-0.003663334,9.829676352,1.340129343,crawl
10/07/2020, 17:20:11,-0.77766734,-7.058827,7.422536,0.23811668,1.3188001,-0.003663334,10.27257724,1.340129343,crawl
10/07/2020, 17:20:11,-0.77766734,-7.058827,7.422536,0.83890337,1.4116045,0.12821667,10.27257724,1.647065787,crawl
10/07/2020, 17:20:11,-0.61734825,-7.353144,7.348358,0.83890337,1.4116045,0.12821667,10.4138473,1.647065787,crawl
10/07/2020, 17:20:11,-0.61734825,-7.353144,7.348358,1.4665545,1.4934189,0.2503278,10.4138473,2.108019516,crawl
10/07/2020, 17:20:11,-0.6867401,-7.5517483,7.0899334,1.4665545,1.4934189,0.2503278,10.38112082,2.108019516,crawl
10/07/2020, 17:20:11,-0.6867401,-7.5517483,7.0899334,2.02216,1.5544745,0.3492378,10.38112082,2.574391037,crawl
10/07/2020, 17:20:11,-0.89730847,-7.652247,6.6735826,2.02216,1.5544745,0.3492378,10.19307363,2.574391037,crawl
10/07/2020, 17:20:11,-0.89730847,-7.652247,6.6735826,2.4544334,1.5776756,0.37976557,10.19307363,2.942367354,crawl
10/07/2020, 17:20:11,-1.268196,-7.7240314,6.096912,2.4544334,1.5776756,0.37976557,9.921759808,2.942367354,crawl
10/07/2020, 17:20:11,-1.268196,-7.7240314,6.096912,2.7841334,1.5618012,0.32970002,9.921759808,3.209255998,crawl
10/07/2020, 17:20:11,-1.8687944,-7.8484583,5.5657053,2.7841334,1.5618012,0.32970002,9.801416514,3.209255998,crawl
10/07/2020, 17:20:12,-9.329616,-7.1688967,2.254039,-1.6179723,0.3834289,1.6106457,11.97979544,2.314958176,crawl
10/07/2020, 17:20:12,-9.329616,-7.1688967,2.254039,-1.7522945,0.36389112,1.5129567,11.97979544,2.343499733,crawl
10/07/2020, 17:20:12,-9.104691,-7.367501,2.4095724,-1.7522945,0.36389112,1.5129567,11.95748706,2.343499733,crawl
10/07/2020, 17:20:12,-9.104691,-7.367501,2.4095724,-1.8683001,0.35168,1.3652023,11.95748706,2.340513055,crawl
10/07/2020, 17:20:12,-8.882157,-7.4943204,2.6608188,-1.8683001,0.35168,1.3652023,11.92214384,2.340513055,crawl
10/07/2020, 17:20:12,-8.882157,-7.4943204,2.6608188,-1.8731846,0.3394689,1.1979101,11.92214384,2.249232774,crawl
10/07/2020, 17:20:12,-8.63809,-7.3579297,2.8977082,-1.8731846,0.3394689,1.1979101,11.71121016,2.249232774,crawl
10/07/2020, 17:20:12,-8.63809,-7.3579297,2.8977082,-1.746189,0.3309211,1.0525978,11.71121016,2.065586321,crawl
10/07/2020, 17:20:12,-8.525627,-7.1162543,3.2614172,-1.746189,0.3309211,1.0525978,11.57429201,2.065586321,crawl
10/07/2020, 17:20:12,-8.525627,-7.1162543,3.2614172,-1.4921979,0.34435335,0.93415004,11.57429201,1.793842249,crawl
10/07/2020, 17:20:12,-8.425129,-6.8985076,3.5988052,-1.4921979,0.34435335,0.93415004,11.46837405,1.793842249,crawl
10/07/2020, 17:20:12,-8.425129,-6.8985076,3.5988052,-1.1466234,0.37854445,0.80104893,11.46837405,1.449041219,crawl
10/07/2020, 17:20:12,-8.305488,-6.8458657,3.7256248,-1.1466234,0.37854445,0.80104893,11.38978852,1.449041219,crawl
10/07/2020, 17:20:12,-8.305488,-6.8458657,3.7256248,-0.7863956,0.40785113,0.6801589,11.38978852,1.116860218,crawl
10/07/2020, 17:20:12,-8.114061,-6.826723,3.8141594,-0.7863956,0.40785113,0.6801589,11.26898185,1.116860218,crawl
10/07/2020, 17:20:12,-8.114061,-6.826723,3.8141594,-0.49699223,0.4261678,0.58124894,11.26898185,0.87548306,crawl
10/07/2020, 17:20:12,-7.891529,-6.558727,3.952943,-0.49699223,0.4261678,0.58124894,10.99631245,0.87548306,crawl
10/07/2020, 17:20:12,-7.891529,-6.558727,3.952943,-0.31016225,0.44082114,0.5043189,10.99631245,0.738147304,crawl
10/07/2020, 17:20:12,-7.6594253,-6.046663,4.089334,-0.31016225,0.44082114,0.5043189,10.58071732,0.738147304,crawl
10/07/2020, 17:20:12,-7.6594253,-6.046663,4.089334,-0.25643334,0.46646446,0.4493689,10.58071732,0.696620092,crawl
10/07/2020, 17:20:13,-8.082955,-4.57747,1.9142581,-0.8303556,0.34801668,3.3360758,9.484291303,3.455431613,crawl
10/07/2020, 17:20:13,-8.082955,-4.57747,1.9142581,-0.7351089,0.23201112,3.6303635,9.484291303,3.711300737,crawl
10/07/2020, 17:20:13,-8.62134,-4.9340005,2.1487548,-0.7351089,0.23201112,3.6303635,10.16312,3.711300737,crawl
10/07/2020, 17:20:13,-8.62134,-4.9340005,2.1487548,-0.6020078,0.106236674,3.8843546,10.16312,3.932163555,crawl
10/07/2020, 17:20:13,-9.19801,-5.2977095,2.4023938,-0.6020078,0.106236674,3.8843546,10.88304267,3.932163555,crawl
10/07/2020, 17:20:13,-9.19801,-5.2977095,2.4023938,-0.40907225,-0.02075889,4.0711846,10.88304267,4.091737451,crawl
10/07/2020, 17:20:13,-9.68136,-5.6279187,2.6009982,-0.40907225,-0.02075889,4.0711846,11.49640799,4.091737451,crawl
10/07/2020, 17:20:13,-9.68136,-5.6279187,2.6009982,-0.17950334,-0.13188,4.182306,11.49640799,4.188233004,crawl
10/07/2020, 17:20:13,-10.018748,-5.828916,2.8091738,-0.17950334,-0.13188,4.182306,11.92656855,4.188233004,crawl
10/07/2020, 17:20:13,-10.018748,-5.828916,2.8091738,0.03297,-0.22102112,4.2470245,11.92656855,4.252899571,crawl
10/07/2020, 17:20:13,-10.24846,-5.814559,2.9479575,0.03297,-0.22102112,4.2470245,12.14621251,4.252899571,crawl
10/07/2020, 17:20:13,-10.24846,-5.814559,2.9479575,0.18194556,-0.3052778,4.2470245,12.14621251,4.261867681,crawl
10/07/2020, 17:20:13,-10.470992,-5.6949177,3.0556345,0.18194556,-0.3052778,4.2470245,12.3049041,4.261867681,crawl
10/07/2020, 17:20:13,-10.470992,-5.6949177,3.0556345,0.22712667,-0.3931978,4.1786423,12.3049041,4.203241878,crawl
10/07/2020, 17:20:13,-10.650454,-5.453243,3.0412776,0.22712667,-0.3931978,4.1786423,12.34582471,4.203241878,crawl
10/07/2020, 17:20:13,-10.650454,-5.453243,3.0412776,0.19293556,-0.48111778,4.0699635,12.34582471,4.102840599,crawl
10/07/2020, 17:20:13,-10.786844,-5.1182475,2.9838498,0.19293556,-0.48111778,4.0699635,12.30673905,4.102840599,crawl
10/07/2020, 17:20:13,-10.786844,-5.1182475,2.9838498,0.11844778,-0.5580478,3.9502945,12.30673905,3.991274707,crawl
10/07/2020, 17:20:13,-10.858629,-4.802395,2.9336007,0.11844778,-0.5580478,3.9502945,12.23024276,3.991274707,crawl
10/07/2020, 17:20:13,-10.858629,-4.802395,2.9336007,0.025643334,-0.6020078,3.8086457,12.23024276,3.856015202,crawl
10/07/2020, 17:20:14,-7.9393854,-3.802195,1.3950156,-0.5043189,-0.6191034,1.1588345,8.912721057,1.407310851,crawl
10/07/2020, 17:20:14,-8.094919,-3.7830527,1.4620147,-0.5043189,-0.6191034,1.1588345,9.054098047,1.407310851,crawl
10/07/2020, 17:20:14,-8.094919,-3.7830527,1.4620147,-0.50554,-0.57636446,1.3285689,9.054098047,1.533904205,crawl
10/07/2020, 17:20:14,-8.34138,-3.7950168,1.4404793,-0.50554,-0.57636446,1.3285689,9.276624122,1.533904205,crawl
10/07/2020, 17:20:14,-8.34138,-3.7950168,1.4404793,-0.53118336,-0.5421733,1.5178412,9.276624122,1.69704144,crawl
10/07/2020, 17:20:14,-8.712267,-3.859623,1.4548361,-0.53118336,-0.5421733,1.5178412,9.63933776,1.69704144,crawl
10/07/2020, 17:20:14,-8.712267,-3.859623,1.4548361,-0.57148004,-0.5238567,1.7193245,9.63933776,1.886025425,crawl
10/07/2020, 17:20:14,-9.202796,-3.9361932,1.4380864,-0.57148004,-0.5238567,1.7193245,10.11203063,1.886025425,crawl
10/07/2020, 17:20:14,-9.202796,-3.9361932,1.4380864,-0.6007867,-0.50798225,1.9342401,10.11203063,2.088127244,crawl
10/07/2020, 17:20:14,-9.767502,-4.072584,1.430908,-0.6007867,-0.50798225,1.9342401,10.67883567,2.088127244,crawl
10/07/2020, 17:20:14,-9.767502,-4.072584,1.430908,-0.59956557,-0.49943447,2.1491556,10.67883567,2.286434675,crawl
10/07/2020, 17:20:14,-10.279566,-4.249653,1.4835501,-0.59956557,-0.49943447,2.1491556,11.22185116,2.286434675,crawl
10/07/2020, 17:20:14,-10.279566,-4.249653,1.4835501,-0.56293225,-0.49821335,2.3506389,11.22185116,2.4679166,crawl
10/07/2020, 17:20:14,-10.674382,-4.4482574,1.5601203,-0.56293225,-0.49821335,2.3506389,11.66890763,2.4679166,crawl
10/07/2020, 17:20:14,-10.674382,-4.4482574,1.5601203,-0.49699223,-0.49577114,2.5423534,11.66890763,2.637489539,crawl
10/07/2020, 17:20:14,-10.846665,-4.6205406,1.6773686,-0.49699223,-0.49577114,2.5423534,11.90853102,2.637489539,crawl
10/07/2020, 17:20:14,-10.846665,-4.6205406,1.6773686,-0.42861003,-0.4908867,2.702319,11.90853102,2.779784842,crawl
10/07/2020, 17:20:14,-10.738988,-4.699504,1.7467605,-0.42861003,-0.4908867,2.702319,11.85168219,2.779784842,crawl
10/07/2020, 17:20:14,-10.738988,-4.699504,1.7467605,-0.3712178,-0.4798967,2.8354201,11.85168219,2.899605285,crawl
10/07/2020, 17:20:14,-10.411171,-4.7449675,1.8161523,-0.3712178,-0.4798967,2.8354201,11.58471434,2.899605285,crawl
10/07/2020, 17:20:15,-7.34118,-3.9290147,-0.36370903,0.24178001,-0.14897557,-0.42006224,8.334408329,0.507053826,crawl
10/07/2020, 17:20:15,-7.34118,-3.9290147,-0.36370903,0.4359367,0.008547778,-0.30649891,8.334408329,0.532968523,crawl
10/07/2020, 17:20:15,-7.0803623,-4.223332,-0.059820566,0.4359367,0.008547778,-0.30649891,8.244491595,0.532968523,crawl
10/07/2020, 17:20:15,-7.0803623,-4.223332,-0.059820566,0.6777167,0.18805112,-0.22102112,8.244491595,0.737233644,crawl
10/07/2020, 17:20:15,-7.056434,-4.517649,0.2632105,0.6777167,0.18805112,-0.22102112,8.38282153,0.737233644,crawl
10/07/2020, 17:20:15,-7.056434,-4.517649,0.2632105,0.9378134,0.36389112,-0.15996556,8.38282153,1.018577295,crawl
10/07/2020, 17:20:15,-7.2670026,-4.7401814,0.5910272,0.9378134,0.36389112,-0.15996556,8.696433742,1.018577295,crawl
10/07/2020, 17:20:15,-7.2670026,-4.7401814,0.5910272,1.2162267,0.49943447,-0.09524667,8.696433742,1.318223842,crawl
10/07/2020, 17:20:15,-7.6307116,-4.9316072,0.80877405,1.2162267,0.49943447,-0.09524667,9.121547256,1.318223842,crawl
10/07/2020, 17:20:15,-7.6307116,-4.9316072,0.80877405,1.4824289,0.5653745,-0.018316668,9.121547256,1.58668815,crawl
10/07/2020, 17:20:15,-7.9800634,-5.046463,0.9810573,1.4824289,0.5653745,-0.018316668,9.492664263,1.58668815,crawl
10/07/2020, 17:20:15,-7.9800634,-5.046463,0.9810573,1.6863545,0.59590226,0.06105556,9.492664263,1.789586223,crawl
10/07/2020, 17:20:15,-8.123632,-5.0656056,1.1509477,1.6863545,0.59590226,0.06105556,9.64253312,1.789586223,crawl
10/07/2020, 17:20:15,-8.123632,-5.0656056,1.1509477,1.8182346,0.6239878,0.13188,9.64253312,1.926844578,crawl
10/07/2020, 17:20:15,-8.0614195,-4.989035,1.282553,1.8182346,0.6239878,0.13188,9.566707781,1.926844578,crawl
10/07/2020, 17:20:15,-8.0614195,-4.989035,1.282553,1.8658578,0.6679478,0.16851334,9.566707781,1.988963681,crawl
10/07/2020, 17:20:15,-7.920243,-4.87418,1.3423735,1.8658578,0.6679478,0.16851334,9.396267424,1.988963681,crawl
10/07/2020, 17:20:15,-7.920243,-4.87418,1.3423735,1.856089,0.71801335,0.18438779,9.396267424,1.998651641,crawl
10/07/2020, 17:20:15,-7.877172,-4.800002,1.3256238,1.856089,0.71801335,0.18438779,9.319181138,1.998651641,crawl
10/07/2020, 17:20:15,-7.877172,-4.800002,1.3256238,1.8231189,0.74609894,0.18072446,9.319181138,1.978152564,crawl
10/07/2020, 17:20:16,-9.817751,-3.199204,2.7637103,0.56659555,0.2955089,0.6838223,10.68930464,0.935932118,crawl
10/07/2020, 17:20:16,-9.817751,-3.199204,2.7637103,0.29795113,0.12455334,0.68626446,10.68930464,0.758450601,crawl
10/07/2020, 17:20:16,-9.726824,-3.306881,2.6775684,0.29795113,0.12455334,0.68626446,10.61677615,0.758450601,crawl
10/07/2020, 17:20:16,-9.726824,-3.306881,2.6775684,0.12943779,-0.003663334,0.7131289,10.61677615,0.724789917,crawl
10/07/2020, 17:20:16,-9.343972,-3.6753755,2.7349963,0.12943779,-0.003663334,0.7131289,10.40665202,0.724789917,crawl
10/07/2020, 17:20:16,-9.343972,-3.6753755,2.7349963,0.05617111,-0.02198,0.7326667,10.40665202,0.735145404,crawl
10/07/2020, 17:20:16,-8.695518,-4.046263,2.751746,0.05617111,-0.02198,0.7326667,9.977794197,0.735145404,crawl
10/07/2020, 17:20:16,-8.695518,-4.046263,2.751746,0.029306669,-0.006105556,0.7265611,9.977794197,0.72717758,crawl
10/07/2020, 17:20:16,-8.063812,-4.2927237,2.6919255,0.029306669,-0.006105556,0.7265611,9.523602654,0.72717758,crawl
10/07/2020, 17:20:16,-8.063812,-4.2927237,2.6919255,0,-0.03052778,0.6777167,9.523602654,0.678403887,crawl
10/07/2020, 17:20:16,-7.5732837,-4.5008993,2.684747,0,-0.03052778,0.6777167,9.209809258,0.678403887,crawl
10/07/2020, 17:20:16,-7.5732837,-4.5008993,2.684747,-0.051286668,-0.07693,0.60445005,9.209809258,0.611480504,crawl
10/07/2020, 17:20:16,-7.2550383,-4.6468616,2.672783,-0.051286668,-0.07693,0.60445005,9.020680179,0.611480504,crawl
10/07/2020, 17:20:16,-7.2550383,-4.6468616,2.672783,-0.106236674,-0.11844778,0.5324045,9.020680179,0.555671342,crawl
10/07/2020, 17:20:16,-7.1162543,-4.7138605,2.713461,-0.106236674,-0.11844778,0.5324045,8.956808962,0.555671342,crawl
10/07/2020, 17:20:16,-7.1162543,-4.7138605,2.713461,-0.14409111,-0.16362889,0.46768558,8.956808962,0.516010141,crawl
10/07/2020, 17:20:16,-7.1066833,-4.706682,2.7326035,-0.14409111,-0.16362889,0.46768558,8.951252785,0.516010141,crawl
10/07/2020, 17:20:16,-7.1066833,-4.706682,2.7326035,-0.17095557,-0.21125223,0.39686114,8.951252785,0.480990718,crawl
10/07/2020, 17:20:16,-7.2550383,-4.752146,2.6656044,-0.17095557,-0.21125223,0.39686114,9.073252787,0.480990718,crawl
10/07/2020, 17:20:16,-7.2550383,-4.752146,2.6656044,-0.19415668,-0.2625389,0.32115224,9.073252787,0.457998096,crawl
10/07/2020, 17:20:17,-7.393822,-3.897908,4.8502517,1.2394278,0.04396,0.16118668,9.663707078,1.250637802,crawl
10/07/2020, 17:20:17,-7.393822,-3.897908,4.8502517,1.3004833,0.05617111,0.07937223,9.663707078,1.304113522,crawl
10/07/2020, 17:20:17,-7.1952176,-3.897908,4.855037,1.3004833,0.05617111,0.07937223,9.515052777,1.304113522,crawl
10/07/2020, 17:20:17,-7.1952176,-3.897908,4.855037,1.3578756,0.06594,-0.006105556,9.515052777,1.359489414,crawl
10/07/2020, 17:20:17,-7.066005,-3.8955152,4.867001,1.3578756,0.06594,-0.006105556,9.422906552,1.359489414,crawl
10/07/2020, 17:20:17,-7.066005,-3.8955152,4.867001,1.4250367,0.06227667,-0.08669889,9.422906552,1.429029247,crawl
10/07/2020, 17:20:17,-7.068398,-3.9338005,4.95075,1.4250367,0.06227667,-0.08669889,9.484037149,1.429029247,crawl
10/07/2020, 17:20:17,-7.068398,-3.9338005,4.95075,1.50563,0.06227667,-0.17095557,9.484037149,1.51658364,crawl
10/07/2020, 17:20:17,-7.1425757,-4.0007997,5.0416775,1.50563,0.06227667,-0.17095557,9.614639768,1.51658364,crawl
10/07/2020, 17:20:17,-7.1425757,-4.0007997,5.0416775,1.5935501,0.06716111,-0.24788557,9.614639768,1.614112681,crawl
10/07/2020, 17:20:17,-7.2693954,-4.0797625,5.1254263,1.5935501,0.06716111,-0.24788557,9.785630546,1.614112681,crawl
10/07/2020, 17:20:17,-7.2693954,-4.0797625,5.1254263,1.6668167,0.06227667,-0.31260446,9.785630546,1.697020294,crawl
10/07/2020, 17:20:17,-7.3459654,-4.1084766,5.204389,1.6668167,0.06227667,-0.31260446,9.895880637,1.697020294,crawl
10/07/2020, 17:20:17,-7.3459654,-4.1084766,5.204389,1.7119979,0.034191113,-0.3809867,9.895880637,1.754211101,crawl
10/07/2020, 17:20:17,-7.3340015,-4.0438704,5.2570314,1.7119979,0.034191113,-0.3809867,9.888217553,1.754211101,crawl
10/07/2020, 17:20:17,-7.3340015,-4.0438704,5.2570314,1.7278723,0.008547778,-0.46646446,9.888217553,1.789749892,crawl
10/07/2020, 17:20:17,-7.2909307,-3.9361932,5.235496,1.7278723,0.008547778,-0.46646446,9.801107444,1.789749892,crawl
10/07/2020, 17:20:17,-7.2909307,-3.9361932,5.235496,1.7278723,-0.012211111,-0.5482789,9.801107444,1.81281588,crawl
10/07/2020, 17:20:17,-7.216753,-3.830909,5.099105,1.7278723,-0.012211111,-0.5482789,9.631108888,1.81281588,crawl
10/07/2020, 17:20:17,-7.216753,-3.830909,5.099105,1.7413045,-0.035412222,-0.6325356,9.631108888,1.852969698,crawl
10/07/2020, 17:20:18,-8.126026,-6.5682983,-0.24885355,1.9794211,1.9904112,-2.0233812,10.45163969,3.460334703,crawl
10/07/2020, 17:20:18,-7.8723865,-6.285945,-0.17467605,1.9794211,1.9904112,-2.0233812,10.07561829,3.460334703,crawl
10/07/2020, 17:20:18,-7.8723865,-6.285945,-0.17467605,1.9342401,1.9281346,-1.9488934,10.07561829,3.355171121,crawl
10/07/2020, 17:20:18,-7.6163545,-6.046663,-0.02632105,1.9342401,1.9281346,-1.9488934,9.724797131,3.355171121,crawl
10/07/2020, 17:20:18,-7.6163545,-6.046663,-0.02632105,1.8524256,1.85731,-1.8866167,9.724797131,3.231161364,crawl
10/07/2020, 17:20:18,-7.34118,-5.8504515,0.1794617,1.8524256,1.85731,-1.8866167,9.388978137,3.231161364,crawl
10/07/2020, 17:20:18,-7.34118,-5.8504515,0.1794617,1.7498523,1.7974756,-1.8231189,9.388978137,3.101074674,crawl
10/07/2020, 17:20:18,-7.164111,-5.716453,0.3493521,1.7498523,1.7974756,-1.8231189,9.171933877,3.101074674,crawl
10/07/2020, 17:20:18,-7.164111,-5.716453,0.3493521,1.6314045,1.7388623,-1.7437468,9.171933877,2.953942361,crawl
10/07/2020, 17:20:18,-7.075577,-5.615955,0.40438703,1.6314045,1.7388623,-1.7437468,9.042470063,2.953942361,crawl
10/07/2020, 17:20:18,-7.075577,-5.615955,0.40438703,1.5068512,1.669259,-1.6350678,9.042470063,2.780372773,crawl
10/07/2020, 17:20:18,-7.068398,-5.5130634,0.40917268,1.5068512,1.669259,-1.6350678,8.973491012,2.780372773,crawl
10/07/2020, 17:20:18,-7.068398,-5.5130634,0.40917268,1.3749712,1.581339,-1.4970822,8.973491012,2.575351222,crawl
10/07/2020, 17:20:18,-7.094719,-5.491528,0.39481574,1.3749712,1.581339,-1.4970822,8.980411815,2.575351222,crawl
10/07/2020, 17:20:18,-7.094719,-5.491528,0.39481574,1.2577446,1.4946401,-1.3285689,8.980411815,2.362406789,crawl
10/07/2020, 17:20:18,-7.149754,-5.5465627,0.4235296,1.2577446,1.4946401,-1.3285689,9.058847483,2.362406789,crawl
10/07/2020, 17:20:18,-7.149754,-5.5465627,0.4235296,1.1539501,1.4250367,-1.1710457,9.058847483,2.175701788,crawl
10/07/2020, 17:20:18,-7.2358956,-5.611169,0.4642076,1.1539501,1.4250367,-1.1710457,9.168363556,2.175701788,crawl
10/07/2020, 17:20:18,-7.2358956,-5.611169,0.4642076,1.0819045,1.3627601,-1.0293967,9.168363556,2.021704697,crawl
10/07/2020, 17:20:18,-7.3363943,-5.682954,0.5407779,1.0819045,1.3627601,-1.0293967,9.295756371,2.021704697,crawl
10/07/2020, 17:20:19,-2.8977082,-10.509277,0.33738798,0.11600556,0.6618422,-0.19782001,10.90667014,0.700446414,crawl
10/07/2020, 17:20:19,-3.6011982,-9.822537,0.49052864,0.11600556,0.6618422,-0.19782001,10.47337043,0.700446414,crawl
10/07/2020, 17:20:19,-3.6011982,-9.822537,0.49052864,-0.106236674,0.57148004,-0.15141778,10.47337043,0.600668798,crawl
10/07/2020, 17:20:19,-4.1611185,-9.616755,0.6939186,-0.106236674,0.57148004,-0.15141778,10.5013522,0.600668798,crawl
10/07/2020, 17:20:19,-4.1611185,-9.616755,0.6939186,-0.54461557,0.43471557,-0.17950334,10.5013522,0.719586818,crawl
10/07/2020, 17:20:19,-4.453043,-10.018748,0.9810573,-0.54461557,0.43471557,-0.17950334,11.00760566,0.719586818,crawl
10/07/2020, 17:20:19,-4.453043,-10.018748,0.9810573,-1.0135223,0.26498112,-0.32481557,11.00760566,1.09678965,crawl
10/07/2020, 17:20:19,-4.4195433,-10.849058,1.5864414,-1.0135223,0.26498112,-0.32481557,11.82164209,1.09678965,crawl
10/07/2020, 17:20:19,-4.4195433,-10.849058,1.5864414,-1.2626289,0.12943779,-0.5421733,11.82164209,1.380194852,crawl
10/07/2020, 17:20:19,-4.113262,-11.760723,2.1128623,-1.2626289,0.12943779,-0.5421733,12.63715637,1.380194852,crawl
10/07/2020, 17:20:19,-4.113262,-11.760723,2.1128623,-1.1527289,0.09524667,-0.7717422,12.63715637,1.390482629,crawl
10/07/2020, 17:20:19,-3.7040894,-12.416357,2.3138595,-1.1527289,0.09524667,-0.7717422,13.16207226,1.390482629,crawl
10/07/2020, 17:20:19,-3.7040894,-12.416357,2.3138595,-0.6887067,0.15508112,-0.93415004,13.16207226,1.170898529,crawl
10/07/2020, 17:20:19,-3.2614172,-12.457035,2.1798615,-0.6887067,0.15508112,-0.93415004,13.0601057,1.170898529,crawl
10/07/2020, 17:20:19,-3.2614172,-12.457035,2.1798615,-0.13676445,0.2295689,-1.00009,13.0601057,1.035174579,crawl
10/07/2020, 17:20:19,-3.0580273,-11.988042,1.8999012,-0.13676445,0.2295689,-1.00009,12.51696062,1.035174579,crawl
10/07/2020, 17:20:19,-3.0580273,-11.988042,1.8999012,0.26009667,0.24544334,-1.0147433,12.51696062,1.075916695,crawl
10/07/2020, 17:20:19,-2.9766715,-11.069198,1.7994026,0.26009667,0.24544334,-1.0147433,11.60282549,1.075916695,crawl
10/07/2020, 17:20:19,-2.9766715,-11.069198,1.7994026,0.43471557,0.2283478,-1.0074167,11.60282549,1.120717984,crawl
10/07/2020, 17:20:19,-2.9336007,-9.812965,1.8711873,0.43471557,0.2283478,-1.0074167,10.41161105,1.120717984,crawl
10/07/2020, 17:20:20,-8.310273,-0.40677986,4.249653,0.3614489,0.09280445,-0.75831,9.342679459,0.845158014,crawl
10/07/2020, 17:20:20,-8.310273,-0.40677986,4.249653,0.40540892,0.091583334,-0.7668578,9.342679459,0.872246977,crawl
10/07/2020, 17:20:20,-8.413164,-0.38285163,4.2281175,0.40540892,0.091583334,-0.7668578,9.423634304,0.872246977,crawl
10/07/2020, 17:20:20,-8.413164,-0.38285163,4.2281175,0.42006224,0.10379445,-0.7766267,9.423634304,0.889030155,crawl
10/07/2020, 17:20:20,-8.539984,-0.37567315,4.113262,0.42006224,0.10379445,-0.7766267,9.486378576,0.889030155,crawl
10/07/2020, 17:20:20,-8.539984,-0.37567315,4.113262,0.3944189,0.11112112,-0.79250115,9.486378576,0.892172765,crawl
10/07/2020, 17:20:20,-8.724232,-0.36610186,3.9457645,0.3944189,0.11112112,-0.79250115,9.582030447,0.892172765,crawl
10/07/2020, 17:20:20,-8.724232,-0.36610186,3.9457645,0.3492378,0.109900005,-0.80227005,9.582030447,0.881862967,crawl
10/07/2020, 17:20:20,-8.941978,-0.26081768,3.7758741,0.3492378,0.109900005,-0.80227005,9.710006697,0.881862967,crawl
10/07/2020, 17:20:20,-8.941978,-0.26081768,3.7758741,0.30039334,0.10867889,-0.8095967,9.710006697,0.870341374,crawl
10/07/2020, 17:20:20,-9.164511,-0.1363909,3.6490545,0.30039334,0.10867889,-0.8095967,9.865214558,0.870341374,crawl
10/07/2020, 17:20:20,-9.164511,-0.1363909,3.6490545,0.24788557,0.09280445,-0.8095967,9.865214558,0.851766849,crawl
10/07/2020, 17:20:20,-9.322437,-0.004785645,3.5653057,0.24788557,0.09280445,-0.8095967,9.980945079,0.851766849,crawl
10/07/2020, 17:20:20,-9.322437,-0.004785645,3.5653057,0.18805112,0.06227667,-0.82547116,9.980945079,0.848907679,crawl
10/07/2020, 17:20:20,-9.432507,0,3.4576287,0.18805112,0.06227667,-0.82547116,10.04626181,0.848907679,crawl
10/07/2020, 17:20:20,-9.432507,0,3.4576287,0.13310112,0.034191113,-0.84623003,10.04626181,0.857315697,crawl
10/07/2020, 17:20:20,-9.49472,-0.11246266,3.4313076,0.13310112,0.034191113,-0.84623003,10.09634766,0.857315697,crawl
10/07/2020, 17:20:20,-9.49472,-0.11246266,3.4313076,0.10379445,0.028085556,-0.8718734,10.09634766,0.878478955,crawl
10/07/2020, 17:20:20,-9.466006,-0.23928227,3.3547373,0.10379445,0.028085556,-0.8718734,10.04573507,0.878478955,crawl
10/07/2020, 17:20:20,-9.466006,-0.23928227,3.3547373,0.08303556,0.029306669,-0.8987378,10.04573507,0.903041193,crawl
10/07/2020, 17:20:21,-7.3435726,-4.883751,3.6011982,1.064809,0.3052778,-1.3688656,9.526159259,1.76091048,crawl
10/07/2020, 17:20:21,-7.3435726,-4.883751,3.6011982,1.1454023,0.3712178,-1.3932878,9.526159259,1.841466789,crawl
10/07/2020, 17:20:21,-7.3028946,-4.962714,3.4983068,1.1454023,0.3712178,-1.3932878,9.497312869,1.841466789,crawl
10/07/2020, 17:20:21,-7.3028946,-4.962714,3.4983068,1.23088,0.43105224,-1.4287001,9.497312869,1.934439352,crawl
10/07/2020, 17:20:21,-7.281359,-5.0656056,3.4504502,1.23088,0.43105224,-1.4287001,9.51757105,1.934439352,crawl
10/07/2020, 17:20:21,-7.281359,-5.0656056,3.4504502,1.3102523,0.5128667,-1.4531223,9.51757105,2.022710468,crawl
10/07/2020, 17:20:21,-7.3052874,-5.235496,3.4624143,1.3102523,0.5128667,-1.4531223,9.631508438,2.022710468,crawl
10/07/2020, 17:20:21,-7.3052874,-5.235496,3.4624143,1.3774134,0.5873545,-1.4799867,9.631508438,2.105377276,crawl
10/07/2020, 17:20:21,-7.3627152,-5.3982077,3.4648073,1.3774134,0.5873545,-1.4799867,9.764994173,2.105377276,crawl
10/07/2020, 17:20:21,-7.3627152,-5.3982077,3.4648073,1.4006145,0.6459678,-1.5068512,9.764994173,2.15629216,crawl
10/07/2020, 17:20:21,-7.4153576,-5.4987063,3.4648073,1.4006145,0.6459678,-1.5068512,9.86043554,2.15629216,crawl
10/07/2020, 17:20:21,-7.4153576,-5.4987063,3.4648073,1.3920667,0.6691689,-1.5300523,9.86043554,2.174096778,crawl
10/07/2020, 17:20:21,-7.446464,-5.56092,3.5676985,1.3920667,0.6691689,-1.5300523,9.955005176,2.174096778,crawl
10/07/2020, 17:20:21,-7.446464,-5.56092,3.5676985,1.3920667,0.6777167,-1.5544745,9.955005176,2.193978241,crawl
10/07/2020, 17:20:21,-7.391429,-5.663811,3.6251264,1.3920667,0.6777167,-1.5544745,9.992673337,2.193978241,crawl
10/07/2020, 17:20:21,-7.391429,-5.663811,3.6251264,1.4384689,0.68626446,-1.5837811,9.992673337,2.246889944,crawl
10/07/2020, 17:20:21,-7.2693954,-5.855237,3.6610186,1.4384689,0.68626446,-1.5837811,10.02651317,2.246889944,crawl
10/07/2020, 17:20:21,-7.2693954,-5.855237,3.6610186,1.5544745,0.72534,-1.6204145,10.02651317,2.359714422,crawl
10/07/2020, 17:20:21,-7.015756,-6.0370917,3.7040894,1.5544745,0.72534,-1.6204145,9.969332423,2.359714422,crawl
10/07/2020, 17:20:21,-7.015756,-6.0370917,3.7040894,1.7046711,0.81936556,-1.6485001,9.969332423,2.508947222,crawl
10/07/2020, 17:20:22,-5.127819,-6.6711893,1.4883357,1.29682,-0.84745115,1.0086378,8.544848644,1.848584827,crawl
10/07/2020, 17:20:22,-3.926622,-8.518449,-0.3804588,1.29682,-0.84745115,1.0086378,9.387602411,1.848584827,crawl
10/07/2020, 17:20:22,-3.926622,-8.518449,-0.3804588,1.0464922,-0.14409111,0.59956557,9.387602411,1.214655128,crawl
10/07/2020, 17:20:22,-3.8811584,-10.80838,-1.0576276,1.0464922,-0.14409111,0.59956557,11.53269471,1.214655128,crawl
10/07/2020, 17:20:22,-3.8811584,-10.80838,-1.0576276,1.3493278,0.41762,0.5189722,11.53269471,1.504800369,crawl
10/07/2020, 17:20:22,-5.4412785,-11.590833,-1.5816557,1.3493278,0.41762,0.5189722,12.9018041,1.504800369,crawl
10/07/2020, 17:20:22,-5.4412785,-11.590833,-1.5816557,1.8695211,0.28085557,0.7338878,12.9018041,2.027949811,crawl
10/07/2020, 17:20:22,-6.6185474,-12.768102,-1.875973,1.8695211,0.28085557,0.7338878,14.50340876,2.027949811,crawl
10/07/2020, 17:20:22,-6.6185474,-12.768102,-1.875973,1.9073756,-0.27230778,0.82791334,14.50340876,2.097063093,crawl
10/07/2020, 17:20:22,-6.0514483,-12.330215,-0.35413775,1.9073756,-0.27230778,0.82791334,13.73971083,2.097063093,crawl
10/07/2020, 17:20:22,-6.0514483,-12.330215,-0.35413775,1.35177,-0.6337567,0.72411895,13.73971083,1.659300471,crawl
10/07/2020, 17:20:22,-4.24726,-11.775081,1.3519448,1.35177,-0.6337567,0.72411895,12.59045266,1.659300471,crawl
10/07/2020, 17:20:22,-4.24726,-11.775081,1.3519448,0.19293556,-0.67161113,0.53851,12.59045266,0.882201046,crawl
10/07/2020, 17:20:22,-2.6153553,-11.3371935,2.0267208,0.19293556,-0.67161113,0.53851,11.81014972,0.882201046,crawl
10/07/2020, 17:20:22,-2.6153553,-11.3371935,2.0267208,-1.0379444,-0.5238567,0.38220778,11.81014972,1.223861627,crawl
10/07/2020, 17:20:22,-2.0291135,-11.645867,2.0410776,-1.0379444,-0.5238567,0.38220778,11.99622965,1.223861627,crawl
10/07/2020, 17:20:22,-2.0291135,-11.645867,2.0410776,-1.7437468,-0.40296668,0.26620224,11.99622965,1.809391757,crawl
10/07/2020, 17:20:22,-2.4358935,-12.356536,1.3016955,-1.7437468,-0.40296668,0.26620224,12.66143626,1.809391757,crawl
10/07/2020, 17:20:22,-2.4358935,-12.356536,1.3016955,-1.6875756,-0.4823389,0.10501556,12.66143626,1.758291905,crawl
10/07/2020, 17:20:22,-3.1537402,-12.914063,0.32542387,-1.6875756,-0.4823389,0.10501556,13.29755664,1.758291905,crawl
10/07/2020, 17:20:23,-3.3810585,-9.571291,-0.7513463,0.5092034,-0.3052778,0.16240779,10.17868795,0.615515148,crawl
10/07/2020, 17:20:23,-3.1441689,-9.202796,-1.0576276,0.5092034,-0.3052778,0.16240779,9.78242443,0.615515148,crawl
10/07/2020, 17:20:23,-3.1441689,-9.202796,-1.0576276,0.46524334,-0.31871,0.15752333,9.78242443,0.585526284,crawl
10/07/2020, 17:20:23,-2.8546374,-8.88455,-1.2873386,0.46524334,-0.31871,0.15752333,9.420266753,0.585526284,crawl
10/07/2020, 17:20:23,-2.8546374,-8.88455,-1.2873386,0.41273558,-0.29062447,0.16240779,9.420266753,0.530273072,crawl
10/07/2020, 17:20:23,-2.696711,-9.020942,-1.5170496,0.41273558,-0.29062447,0.16240779,9.536827548,0.530273072,crawl
10/07/2020, 17:20:23,-2.696711,-9.020942,-1.5170496,0.41395667,-0.24300112,0.13920668,9.536827548,0.499788124,crawl
10/07/2020, 17:20:23,-2.7469604,-9.221938,-1.6534405,0.41395667,-0.24300112,0.13920668,9.763390794,0.499788124,crawl
10/07/2020, 17:20:23,-2.7469604,-9.221938,-1.6534405,0.5226356,-0.21003112,0.09524667,9.763390794,0.57125559,crawl
10/07/2020, 17:20:23,-3.0173492,-9.461221,-1.6558332,0.5226356,-0.21003112,0.09524667,10.06781397,0.57125559,crawl
10/07/2020, 17:20:23,-3.0173492,-9.461221,-1.6558332,0.68260115,-0.20514667,0.06105556,10.06781397,0.715372122,crawl
10/07/2020, 17:20:23,-3.3547373,-9.439685,-1.4596218,0.68260115,-0.20514667,0.06105556,10.12385344,0.715372122,crawl
10/07/2020, 17:20:23,-3.3547373,-9.439685,-1.4596218,0.78761667,-0.22468445,0.06105556,10.12385344,0.821310478,crawl
10/07/2020, 17:20:23,-3.7016966,-9.193225,-1.3208381,0.78761667,-0.22468445,0.06105556,9.998127596,0.821310478,crawl
10/07/2020, 17:20:23,-3.7016966,-9.193225,-1.3208381,0.77906895,-0.27719223,0.08059334,9.998127596,0.830830455,crawl
10/07/2020, 17:20:23,-3.9433718,-8.822337,-1.1916257,0.77906895,-0.27719223,0.08059334,9.736723555,0.830830455,crawl
10/07/2020, 17:20:23,-3.9433718,-8.822337,-1.1916257,0.6874856,-0.35412225,0.10867889,9.736723555,0.78092899,crawl
10/07/2020, 17:20:23,-4.098905,-8.628518,-0.90448695,0.6874856,-0.35412225,0.10867889,9.595334504,0.78092899,crawl
10/07/2020, 17:20:23,-4.098905,-8.628518,-0.90448695,0.45181113,-0.4383789,0.13188,9.595334504,0.643196468,crawl
10/07/2020, 17:20:23,-4.0869412,-8.800801,-0.42592242,0.45181113,-0.4383789,0.13188,9.71280607,0.643196468,crawl
10/07/2020, 17:20:24,-10.078569,2.6679974,-0.83988076,-0.42861003,-0.08669889,-0.18316667,10.45950147,0.474102606,crawl
10/07/2020, 17:20:24,-10.423136,2.400001,-1.2466606,-0.42861003,-0.08669889,-0.18316667,10.76828337,0.474102606,crawl
10/07/2020, 17:20:24,-10.423136,2.400001,-1.2466606,-0.6032289,-0.081814446,-0.27475002,10.76828337,0.667881964,crawl
10/07/2020, 17:20:24,-10.782059,1.550549,-1.1796615,-0.6032289,-0.081814446,-0.27475002,10.95666892,0.667881964,crawl
10/07/2020, 17:20:24,-10.782059,1.550549,-1.1796615,-0.45059,-0.06594,-0.25643334,10.95666892,0.522625584,crawl
10/07/2020, 17:20:24,-11.040483,0.7800602,-1.2083755,-0.45059,-0.06594,-0.25643334,11.13377476,0.522625584,crawl
10/07/2020, 17:20:24,-11.040483,0.7800602,-1.2083755,-0.19782001,-0.042738892,-0.16485001,11.13377476,0.261026617,crawl
10/07/2020, 17:20:24,-11.0811615,0.5192425,-1.7491534,-0.19782001,-0.042738892,-0.16485001,11.23037357,0.261026617,crawl
10/07/2020, 17:20:24,-11.0811615,0.5192425,-1.7491534,-0.14287001,-0.091583334,-0.057392225,11.23037357,0.17914579,crawl
10/07/2020, 17:20:24,-10.983056,1.0025927,-2.1822543,-0.14287001,-0.091583334,-0.057392225,11.24255072,0.17914579,crawl
10/07/2020, 17:20:24,-10.983056,1.0025927,-2.1822543,-0.36877558,-0.21613668,0.03297,11.24255072,0.428716119,crawl
10/07/2020, 17:20:24,-10.844273,1.8807586,-2.024328,-0.36877558,-0.21613668,0.03297,11.19077323,0.428716119,crawl
10/07/2020, 17:20:24,-10.844273,1.8807586,-2.024328,-0.8755367,-0.26620224,0.15874445,11.19077323,0.928777645,crawl
10/07/2020, 17:20:24,-10.57149,2.629712,-1.5529419,-0.8755367,-0.26620224,0.15874445,11.00379122,0.928777645,crawl
10/07/2020, 17:20:24,-10.57149,2.629712,-1.5529419,-1.56058,-0.2075889,0.25521225,11.00379122,1.594878185,crawl
10/07/2020, 17:20:24,-10.2317095,2.9240294,-1.1222339,-1.56058,-0.2075889,0.25521225,10.7003381,1.594878185,crawl
10/07/2020, 17:20:24,-10.2317095,2.9240294,-1.1222339,-2.1430502,-0.13676445,0.22590557,10.7003381,2.159259589,crawl
10/07/2020, 17:20:24,-9.868001,2.510071,-0.8566305,-2.1430502,-0.13676445,0.22590557,10.21820512,2.159259589,crawl
10/07/2020, 17:20:24,-9.868001,2.510071,-0.8566305,-2.4178002,-0.12577444,0.13310112,10.21820512,2.424725318,crawl
10/07/2020, 17:20:24,-9.690931,1.4356936,-0.75613195,-2.4178002,-0.12577444,0.13310112,9.825838465,2.424725318,crawl
10/07/2020, 17:20:25,-9.128618,-4.278367,-3.103491,-0.3931978,-0.2955089,-0.4689067,10.54835306,0.679561265,crawl
10/07/2020, 17:20:25,-9.159725,-4.9196434,-3.3786657,-0.3931978,-0.2955089,-0.4689067,10.93246718,0.679561265,crawl
10/07/2020, 17:20:25,-9.159725,-4.9196434,-3.3786657,-0.09524667,-0.20148334,-0.4481478,10.93246718,0.500503665,crawl
10/07/2020, 17:20:25,-9.123833,-5.2139606,-3.6107693,-0.09524667,-0.20148334,-0.4481478,11.11158691,0.500503665,crawl
10/07/2020, 17:20:25,-9.123833,-5.2139606,-3.6107693,0.21247335,-0.08669889,-0.40907225,11.11158691,0.469043417,crawl
10/07/2020, 17:20:25,-9.135797,-5.261817,-3.8644085,0.21247335,-0.08669889,-0.40907225,11.22867532,0.469043417,crawl
10/07/2020, 17:20:25,-9.135797,-5.261817,-3.8644085,0.5043189,0.01099,-0.3834289,11.22867532,0.633621376,crawl
10/07/2020, 17:20:25,-9.205189,-5.3742795,-3.7088752,0.5043189,0.01099,-0.3834289,11.28601503,0.633621376,crawl
10/07/2020, 17:20:25,-9.205189,-5.3742795,-3.7088752,0.6618422,0.12699556,-0.36999667,11.28601503,0.768804618,crawl
10/07/2020, 17:20:25,-9.245867,-5.4723854,-3.2398818,0.6618422,0.12699556,-0.36999667,11.2218487,0.768804618,crawl
10/07/2020, 17:20:25,-9.245867,-5.4723854,-3.2398818,0.57148004,0.22102112,-0.38220778,11.2218487,0.722165184,crawl
10/07/2020, 17:20:25,-9.284152,-5.400601,-2.6009982,0.57148004,0.22102112,-0.38220778,11.05111581,0.722165184,crawl
10/07/2020, 17:20:25,-9.284152,-5.400601,-2.6009982,0.25765446,0.25765446,-0.44082114,11.05111581,0.571922126,crawl
10/07/2020, 17:20:25,-9.128618,-4.996214,-2.361716,0.25765446,0.25765446,-0.44082114,10.67106026,0.571922126,crawl
10/07/2020, 17:20:25,-9.128618,-4.996214,-2.361716,-0.18316667,0.17584,-0.51775116,10.67106026,0.576659342,crawl
10/07/2020, 17:20:25,-8.977871,-4.4434714,-2.1894326,-0.18316667,0.17584,-0.51775116,10.25379053,0.576659342,crawl
10/07/2020, 17:20:25,-8.977871,-4.4434714,-2.1894326,-0.6203245,0.003663334,-0.5800278,10.25379053,0.849263308,crawl
10/07/2020, 17:20:25,-8.903693,-4.2281175,-1.9669002,-0.6203245,0.003663334,-0.5800278,10.05094157,0.849263308,crawl
10/07/2020, 17:20:25,-8.903693,-4.2281175,-1.9669002,-0.9329289,-0.14164889,-0.5910178,10.05094157,1.113428398,crawl
10/07/2020, 17:20:25,-8.705089,-4.2281175,-1.8400806,-0.9329289,-0.14164889,-0.5910178,9.850961465,1.113428398,crawl
10/07/2020, 17:20:26,-9.600004,-0.5694918,-0.9667004,-0.22468445,-0.29184556,0.37366003,9.665345886,0.524670133,crawl
10/07/2020, 17:20:26,-9.506684,-0.7298109,-1.0241281,-0.22468445,-0.29184556,0.37366003,9.589499919,0.524670133,crawl
10/07/2020, 17:20:26,-9.506684,-0.7298109,-1.0241281,-0.30894113,-0.4041878,0.34679556,9.589499919,0.615694369,crawl
10/07/2020, 17:20:26,-9.47797,-0.8207382,-0.5383851,-0.30894113,-0.4041878,0.34679556,9.528661362,0.615694369,crawl
10/07/2020, 17:20:26,-9.47797,-0.8207382,-0.5383851,-0.43960002,-0.47257003,0.40296668,9.528661362,0.760889451,crawl
10/07/2020, 17:20:26,-9.29133,-1.0145568,-0.10049855,-0.43960002,-0.47257003,0.40296668,9.347098204,0.760889451,crawl
10/07/2020, 17:20:26,-9.29133,-1.0145568,-0.10049855,-0.44570556,-0.39686114,0.45791668,9.347098204,0.7522233,crawl
10/07/2020, 17:20:26,-9.006584,-1.5864414,-0.4833502,-0.44570556,-0.39686114,0.45791668,9.158000987,0.7522233,crawl
10/07/2020, 17:20:26,-9.006584,-1.5864414,-0.4833502,-0.18194556,-0.24788557,0.46646446,9.158000987,0.558695387,crawl
10/07/2020, 17:20:26,-8.779266,-2.0075781,-1.0839486,-0.18194556,-0.24788557,0.46646446,9.070878256,0.558695387,crawl
10/07/2020, 17:20:26,-8.779266,-2.0075781,-1.0839486,0.28329778,-0.15752333,0.53851,9.070878256,0.628541389,crawl
10/07/2020, 17:20:26,-8.599805,-2.0410776,-1.4141582,0.28329778,-0.15752333,0.53851,8.951116425,0.628541389,crawl
10/07/2020, 17:20:26,-8.599805,-2.0410776,-1.4141582,0.6386411,-0.09524667,0.6764956,8.951116425,0.935190205,crawl
10/07/2020, 17:20:26,-8.547162,-1.6462619,-1.3950156,0.6386411,-0.09524667,0.6764956,8.815340383,0.935190205,crawl
10/07/2020, 17:20:26,-8.547162,-1.6462619,-1.3950156,0.8364611,-0.03297,0.76075226,8.815340383,1.131149079,crawl
10/07/2020, 17:20:26,-8.477771,-1.2299109,-1.3208381,0.8364611,-0.03297,0.76075226,8.6677501,1.131149079,crawl
10/07/2020, 17:20:26,-8.477771,-1.2299109,-1.3208381,0.9414767,0.12577444,0.7668578,8.6677501,1.220765531,crawl
10/07/2020, 17:20:26,-8.518449,-1.3734802,-1.5122639,0.9414767,0.12577444,0.7668578,8.759986325,1.220765531,crawl
10/07/2020, 17:20:26,-8.518449,-1.3734802,-1.5122639,1.064809,0.34801668,0.70336,8.759986325,1.322743006,crawl
10/07/2020, 17:20:26,-8.705089,-2.0841484,-2.0315065,1.064809,0.34801668,0.70336,9.17873963,1.322743006,crawl
10/07/2020, 17:20:27,-12.6987095,-2.87378,0.7800602,1.0013112,1.1075479,-3.6889768,13.0431717,3.979677871,crawl
10/07/2020, 17:20:27,-12.6987095,-2.87378,0.7800602,0.93903446,1.0257334,-3.525348,13.0431717,3.789721993,crawl
10/07/2020, 17:20:27,-12.1866455,-2.7684958,0.6987042,0.93903446,1.0257334,-3.525348,12.51667229,3.789721993,crawl
10/07/2020, 17:20:27,-12.1866455,-2.7684958,0.6987042,0.80471224,0.92560226,-3.350729,12.51667229,3.568148831,crawl
10/07/2020, 17:20:27,-11.586047,-2.6799614,0.63170516,0.80471224,0.92560226,-3.350729,11.90872511,3.568148831,crawl
10/07/2020, 17:20:27,-11.586047,-2.6799614,0.63170516,0.6227667,0.8266923,-3.1541302,11.90872511,3.319607794,crawl
10/07/2020, 17:20:27,-10.916057,-2.6153553,0.57188463,0.6227667,0.8266923,-3.1541302,11.23954748,3.319607794,crawl
10/07/2020, 17:20:27,-10.916057,-2.6153553,0.57188463,0.42983112,0.7338878,-2.9514258,11.23954748,3.071524097,crawl
10/07/2020, 17:20:27,-10.246066,-2.5962126,0.5694918,0.42983112,0.7338878,-2.9514258,10.58520247,3.071524097,crawl
10/07/2020, 17:20:27,-10.246066,-2.5962126,0.5694918,0.25277,0.64963114,-2.7230778,10.58520247,2.810883466,crawl
10/07/2020, 17:20:27,-9.578469,-2.617748,0.6053841,0.25277,0.64963114,-2.7230778,9.948174119,2.810883466,crawl
10/07/2020, 17:20:27,-9.578469,-2.617748,0.6053841,0.11600556,0.57270116,-2.4874034,9.948174119,2.555116346,crawl
10/07/2020, 17:20:27,-8.963513,-2.672783,0.64606214,0.11600556,0.57270116,-2.4874034,9.375805923,2.555116346,crawl
10/07/2020, 17:20:27,-8.963513,-2.672783,0.64606214,0.03174889,0.5153089,-2.2382967,9.375805923,2.29706848,crawl
10/07/2020, 17:20:27,-8.372486,-2.713461,0.62452674,0.03174889,0.5153089,-2.2382967,8.823345599,2.29706848,crawl
10/07/2020, 17:20:27,-8.372486,-2.713461,0.62452674,-0.003663334,0.47257003,-1.9782001,8.823345599,2.033866122,crawl
10/07/2020, 17:20:27,-7.836494,-2.7110682,0.5982057,-0.003663334,0.47257003,-1.9782001,8.313746346,2.033866122,crawl
10/07/2020, 17:20:27,-7.836494,-2.7110682,0.5982057,0,0.44570556,-1.7119979,8.313746346,1.769064765,crawl
10/07/2020, 17:20:27,-7.381858,-2.6751757,0.47377887,0,0.44570556,-1.7119979,7.865930136,1.769064765,crawl
10/07/2020, 17:20:27,-7.381858,-2.6751757,0.47377887,0.024422223,0.4249467,-1.4445745,7.865930136,1.505978603,crawl
10/07/2020, 17:20:28,-4.6205406,-3.0125637,-5.328816,-1.8231189,0.8877478,-0.88408446,7.669499005,2.212117572,crawl
10/07/2020, 17:20:28,-4.7569313,-3.1058838,-4.991428,-1.8231189,0.8877478,-0.88408446,7.562358251,2.212117572,crawl
10/07/2020, 17:20:28,-4.7569313,-3.1058838,-4.991428,-1.5630223,1.0867889,-0.89019006,7.562358251,2.101567753,crawl
10/07/2020, 17:20:28,-4.955536,-2.8689942,-4.5320063,-1.5630223,1.0867889,-0.89019006,7.302571098,2.101567753,crawl
10/07/2020, 17:20:28,-4.955536,-2.8689942,-4.5320063,-1.2382067,1.3713078,-1.0232911,7.302571098,2.112052523,crawl
10/07/2020, 17:20:28,-5.304888,-2.4311078,-4.6612186,-1.2382067,1.3713078,-1.0232911,7.468539245,2.112052523,crawl
10/07/2020, 17:20:28,-5.304888,-2.4311078,-4.6612186,-1.2223322,1.6411734,-1.2870512,7.468539245,2.41744636,crawl
10/07/2020, 17:20:28,-6.108876,-2.1296122,-4.833502,-1.2223322,1.6411734,-1.2870512,8.075664476,2.41744636,crawl
10/07/2020, 17:20:28,-6.108876,-2.1296122,-4.833502,-1.6460578,1.7889278,-1.5080723,8.075664476,2.860778043,crawl
10/07/2020, 17:20:28,-7.23111,-1.753939,-4.9674997,-1.6460578,1.7889278,-1.5080723,8.946580852,2.860778043,crawl
10/07/2020, 17:20:28,-7.23111,-1.753939,-4.9674997,-2.262719,1.812129,-1.6729223,8.946580852,3.346995271,crawl
10/07/2020, 17:20:28,-8.52802,-1.5098711,-5.3096733,-2.262719,1.812129,-1.6729223,10.15871375,3.346995271,crawl
10/07/2020, 17:20:28,-8.52802,-1.5098711,-5.3096733,-2.90136,1.6436156,-1.7620634,10.15871375,3.77150231,crawl
10/07/2020, 17:20:28,-9.712467,-1.8041883,-5.163711,-2.90136,1.6436156,-1.7620634,11.14679444,3.77150231,crawl
10/07/2020, 17:20:28,-9.712467,-1.8041883,-5.163711,-3.4679556,1.3993934,-1.7449678,11.14679444,4.126733654,crawl
10/07/2020, 17:20:28,-10.578669,-2.3569303,-4.881358,-3.4679556,1.3993934,-1.7449678,11.88658937,4.126733654,crawl
10/07/2020, 17:20:28,-10.578669,-2.3569303,-4.881358,-3.7659068,1.240649,-1.6949023,11.88658937,4.312071175,crawl
10/07/2020, 17:20:28,-10.908878,-3.2159536,-4.465007,-3.7659068,1.240649,-1.6949023,12.21811237,4.312071175,crawl
10/07/2020, 17:20:28,-10.908878,-3.2159536,-4.465007,-3.8941236,1.1087689,-1.669259,12.21811237,4.379496805,crawl
10/07/2020, 17:20:28,-10.851451,-4.5894337,-3.7543387,-3.8941236,1.1087689,-1.669259,12.36575707,4.379496805,crawl
10/07/2020, 17:20:29,-15.261423,-2.8115666,-0.9212367,-1.9843056,-0.66062117,-0.61299783,15.5455659,2.179370427,crawl
10/07/2020, 17:20:29,-15.261423,-2.8115666,-0.9212367,-1.9391245,-1.1808145,-0.49821335,15.5455659,2.32438016,crawl
10/07/2020, 17:20:29,-14.957535,-3.3690944,-0.078963146,-1.9391245,-1.1808145,-0.49821335,15.33247792,2.32438016,crawl
10/07/2020, 17:20:29,-14.957535,-3.3690944,-0.078963146,-1.8695211,-1.4689968,-0.38220778,15.33247792,2.408141104,crawl
10/07/2020, 17:20:29,-13.672588,-3.9744785,0.16031912,-1.8695211,-1.4689968,-0.38220778,14.2394471,2.408141104,crawl
10/07/2020, 17:20:29,-13.672588,-3.9744785,0.16031912,-1.67048,-1.4079412,-0.31260446,14.2394471,2.206926257,crawl
10/07/2020, 17:20:29,-12.01197,-4.130012,0.043070808,-1.67048,-1.4079412,-0.31260446,12.70221506,2.206926257,crawl
10/07/2020, 17:20:29,-12.01197,-4.130012,0.043070808,-1.3188001,-1.1734878,-0.2869611,12.70221506,1.788478106,crawl
10/07/2020, 17:20:29,-10.583454,-4.1467614,0.45224348,-1.3188001,-1.1734878,-0.2869611,11.37583649,1.788478106,crawl
10/07/2020, 17:20:29,-10.583454,-4.1467614,0.45224348,-0.9292656,-0.98910004,-0.26376,11.37583649,1.382542156,crawl
10/07/2020, 17:20:29,-9.487542,-3.7854455,1.2849457,-0.9292656,-0.98910004,-0.26376,10.2953455,1.382542156,crawl
10/07/2020, 17:20:29,-9.487542,-3.7854455,1.2849457,-0.39564002,-0.8437878,-0.19293556,10.2953455,0.95170005,crawl
10/07/2020, 17:20:29,-8.7577305,-3.2327034,2.091327,-0.39564002,-0.8437878,-0.19293556,9.566705976,0.95170005,crawl
10/07/2020, 17:20:29,-8.7577305,-3.2327034,2.091327,0.007326667,-0.7070234,-0.10135223,9.566705976,0.714288469,crawl
10/07/2020, 17:20:29,-8.193025,-2.7756743,1.227518,0.007326667,-0.7070234,-0.10135223,8.737094545,0.714288469,crawl
10/07/2020, 17:20:29,-8.193025,-2.7756743,1.227518,0.16729222,-0.6459678,-0.070824444,8.737094545,0.671026948,crawl
10/07/2020, 17:20:29,-7.7407813,-2.306681,-0.21296121,0.16729222,-0.6459678,-0.070824444,8.079964392,0.671026948,crawl
10/07/2020, 17:20:29,-7.7407813,-2.306681,-0.21296121,0.20026223,-0.69114894,-0.07326667,8.079964392,0.723297878,crawl
10/07/2020, 17:20:29,-7.3435726,-1.7060826,-0.91884387,0.20026223,-0.69114894,-0.07326667,7.594935852,0.723297878,crawl
10/07/2020, 17:20:29,-7.3435726,-1.7060826,-0.91884387,0.30039334,-0.7815111,-0.054950003,7.594935852,0.8390562,crawl
10/07/2020, 17:20:30,-3.591627,-6.95115,0.9882358,-0.37732336,-1.5984346,-1.0782411,7.886373,1.964680604,crawl
10/07/2020, 17:20:30,-3.591627,-6.95115,0.9882358,0.24178001,-1.4030567,-1.2687345,7.886373,1.907016757,crawl
10/07/2020, 17:20:30,-3.644269,-7.2502527,1.2777673,0.24178001,-1.4030567,-1.2687345,8.214593739,1.907016757,crawl
10/07/2020, 17:20:30,-3.644269,-7.2502527,1.2777673,0.6874856,-1.0330601,-1.2467545,8.214593739,1.75904701,crawl
10/07/2020, 17:20:30,-3.885944,-6.800402,1.1485549,0.6874856,-1.0330601,-1.2467545,7.916135921,1.75904701,crawl
10/07/2020, 17:20:30,-3.885944,-6.800402,1.1485549,0.88408446,-0.8523356,-1.2723979,7.916135921,1.768354495,crawl
10/07/2020, 17:20:30,-4.5942197,-5.7667027,1.0313065,0.88408446,-0.8523356,-1.2723979,7.444817465,1.768354495,crawl
10/07/2020, 17:20:30,-4.5942197,-5.7667027,1.0313065,0.86576784,-0.9292656,-1.4335845,7.444817465,1.915268367,crawl
10/07/2020, 17:20:30,-5.261817,-4.9674997,1.0289137,0.86576784,-0.9292656,-1.4335845,7.308996852,1.915268367,crawl
10/07/2020, 17:20:30,-5.261817,-4.9674997,1.0289137,0.7119078,-1.0049745,-1.6191934,7.308996852,2.034348499,crawl
10/07/2020, 17:20:30,-5.6350975,-4.0845485,0.9738788,0.7119078,-1.0049745,-1.6191934,7.027538689,2.034348499,crawl
10/07/2020, 17:20:30,-5.6350975,-4.0845485,0.9738788,0.6142189,-1.2089001,-1.7303145,7.027538689,2.198338584,crawl
10/07/2020, 17:20:30,-5.84088,-3.5389848,1.1940185,0.6142189,-1.2089001,-1.7303145,6.932962685,2.198338584,crawl
10/07/2020, 17:20:30,-5.84088,-3.5389848,1.1940185,0.64841,-1.5569167,-1.7950335,6.932962685,2.463040867,crawl
10/07/2020, 17:20:30,-5.8935223,-3.562913,1.6151553,0.64841,-1.5569167,-1.7950335,7.073661008,2.463040867,crawl
10/07/2020, 17:20:30,-5.8935223,-3.562913,1.6151553,0.53484666,-1.7083346,-1.8951645,7.073661008,2.606936206,crawl
10/07/2020, 17:20:30,-4.6636114,-4.082155,1.8664017,0.53484666,-1.7083346,-1.8951645,6.472767407,2.606936206,crawl
10/07/2020, 17:20:30,-4.6636114,-4.082155,1.8664017,0.6789378,-1.4177101,-1.8267823,6.472767407,2.409977613,crawl
10/07/2020, 17:20:30,-3.8739798,-4.1778684,1.9262222,0.6789378,-1.4177101,-1.8267823,6.014369095,2.409977613,crawl
10/07/2020, 17:20:30,-3.8739798,-4.1778684,1.9262222,1.2235534,-1.1295278,-1.8353301,6.014369095,2.47817528,crawl
10/07/2020, 17:20:31,-9.738789,-7.322037,2.143969,-0.9524667,-0.1746189,3.2383869,12.37145246,3.380064221,crawl
10/07/2020, 17:20:31,-9.738789,-7.322037,2.143969,-0.8621045,-0.18438779,3.25304,12.37145246,3.370384654,crawl
10/07/2020, 17:20:31,-9.698111,-7.0229344,2.2348964,-0.8621045,-0.18438779,3.25304,12.18071094,3.370384654,crawl
10/07/2020, 17:20:31,-9.698111,-7.0229344,2.2348964,-0.67039,-0.059834447,3.3470657,12.18071094,3.414066731,crawl
10/07/2020, 17:20:31,-9.745967,-7.092326,2.2229323,-0.67039,-0.059834447,3.3470657,12.25668755,3.414066731,crawl
10/07/2020, 17:20:31,-9.745967,-7.092326,2.2229323,-0.5592689,-0.03174889,3.4227746,12.25668755,3.468310155,crawl
10/07/2020, 17:20:31,-9.554541,-6.8219376,2.2181466,-0.5592689,-0.03174889,3.4227746,11.94773004,3.468310155,crawl
10/07/2020, 17:20:31,-9.554541,-6.8219376,2.2181466,-0.46402225,-0.001221111,3.4130056,11.94773004,3.444404927,crawl
10/07/2020, 17:20:31,-9.470792,-6.5659056,2.2995026,-0.46402225,-0.001221111,3.4130056,11.75137123,3.444404927,crawl
10/07/2020, 17:20:31,-9.470792,-6.5659056,2.2995026,-0.32970002,0.035412222,3.41789,11.75137123,3.43393778,crawl
10/07/2020, 17:20:31,-9.578469,-6.4677997,2.3306093,-0.32970002,0.035412222,3.41789,11.79030305,3.43393778,crawl
10/07/2020, 17:20:31,-9.578469,-6.4677997,2.3306093,-0.16729222,0.08059334,3.4239957,11.79030305,3.429027377,crawl
10/07/2020, 17:20:31,-9.777073,-6.501299,2.268396,-0.16729222,0.08059334,3.4239957,11.95841386,3.429027377,crawl
10/07/2020, 17:20:31,-9.777073,-6.501299,2.268396,-0.01099,0.15019667,3.3861413,11.95841386,3.389488564,crawl
10/07/2020, 17:20:31,-10.1288185,-6.6305118,2.3401806,-0.01099,0.15019667,3.3861413,12.33017016,3.389488564,crawl
10/07/2020, 17:20:31,-10.1288185,-6.6305118,2.3401806,0.14897557,0.17339778,3.283568,12.33017016,3.29151617,crawl
10/07/2020, 17:20:31,-10.51167,-6.728617,2.416751,0.14897557,0.17339778,3.283568,12.71259937,3.29151617,crawl
10/07/2020, 17:20:31,-10.51167,-6.728617,2.416751,0.30405667,0.15019667,3.1687834,12.71259937,3.186879022,crawl
10/07/2020, 17:20:31,-10.669596,-6.838687,2.4263222,0.30405667,0.15019667,3.1687834,12.90329227,3.186879022,crawl
10/07/2020, 17:20:31,-10.669596,-6.838687,2.4263222,0.42250445,0.13920668,3.0820847,12.90329227,3.114022212,crawl
10/07/2020, 17:20:32,-8.240881,-3.6921253,1.605584,-0.29673,0.33336335,0.4273889,9.171794183,0.617932928,crawl
10/07/2020, 17:20:32,-8.23131,-3.8763726,1.7324036,-0.29673,0.33336335,0.4273889,9.261854524,0.617932928,crawl
10/07/2020, 17:20:32,-8.23131,-3.8763726,1.7324036,-0.16485001,0.32725778,0.5458367,9.261854524,0.657427465,crawl
10/07/2020, 17:20:32,-8.3174515,-4.1036906,1.7491534,-0.16485001,0.32725778,0.5458367,9.438210283,0.657427465,crawl
10/07/2020, 17:20:32,-8.3174515,-4.1036906,1.7491534,-0.036633335,0.31016225,0.66062117,9.438210283,0.730727682,crawl
10/07/2020, 17:20:32,-8.492127,-4.3788652,1.7084754,-0.036633335,0.31016225,0.66062117,9.706161802,0.730727682,crawl
10/07/2020, 17:20:32,-8.492127,-4.3788652,1.7084754,0.06349778,0.29795113,0.75953114,9.706161802,0.81834858,crawl
10/07/2020, 17:20:32,-8.626125,-4.6229334,1.6414764,0.06349778,0.29795113,0.75953114,9.923507251,0.81834858,crawl
10/07/2020, 17:20:32,-8.626125,-4.6229334,1.6414764,0.13676445,0.30405667,0.82547116,9.923507251,0.890257051,crawl
10/07/2020, 17:20:32,-8.685946,-4.6707897,1.524228,0.13676445,0.30405667,0.82547116,9.979239125,0.890257051,crawl
10/07/2020, 17:20:32,-8.685946,-4.6707897,1.524228,0.16362889,0.29917222,0.88408446,9.979239125,0.947567291,crawl
10/07/2020, 17:20:32,-8.626125,-4.613362,1.3854443,0.16362889,0.29917222,0.88408446,9.879908987,0.947567291,crawl
10/07/2020, 17:20:32,-8.626125,-4.613362,1.3854443,0.11112112,0.2759711,0.9646778,9.879908987,1.009510395,crawl
10/07/2020, 17:20:32,-8.595019,-4.5391846,1.294517,0.11112112,0.2759711,0.9646778,9.805831346,1.009510395,crawl
10/07/2020, 17:20:32,-8.595019,-4.5391846,1.294517,-0.001221111,0.25277,1.0745778,9.805831346,1.103907439,crawl
10/07/2020, 17:20:32,-8.568698,-4.469793,1.2346965,-0.001221111,0.25277,1.0745778,9.743003014,1.103907439,crawl
10/07/2020, 17:20:32,-8.568698,-4.469793,1.2346965,-0.098910004,0.25643334,1.1918045,9.743003014,1.223085966,crawl
10/07/2020, 17:20:32,-8.578269,-4.510471,1.2059826,-0.098910004,0.25643334,1.1918045,9.766547011,1.223085966,crawl
10/07/2020, 17:20:32,-8.578269,-4.510471,1.2059826,-0.15141778,0.28329778,1.3029256,9.766547011,1.341938917,crawl
10/07/2020, 17:20:32,-8.683554,-4.666004,1.2705889,-0.15141778,0.28329778,1.3029256,9.939320696,1.341938917,crawl
10/07/2020, 17:20:33,-11.624332,-0.7728817,-1.1102697,-2.7316256,-1.3871822,0.7900589,11.70278382,3.163897252,crawl
10/07/2020, 17:20:33,-11.624332,-0.7728817,-1.1102697,-2.8219879,-1.3884034,0.84745115,11.70278382,3.257215532,crawl
10/07/2020, 17:20:33,-12.007184,-0.96430755,-1.4189439,-2.8219879,-1.3884034,0.84745115,12.12912854,3.257215532,crawl
10/07/2020, 17:20:33,-12.007184,-0.96430755,-1.4189439,-2.97829,-1.3798556,0.8621045,12.12912854,3.393735037,crawl
10/07/2020, 17:20:33,-12.373286,-0.98584294,-1.672583,-2.97829,-1.3798556,0.8621045,12.52468094,3.393735037,crawl
10/07/2020, 17:20:33,-12.373286,-0.98584294,-1.672583,-3.1932056,-1.3713078,0.83524,12.52468094,3.574167464,crawl
10/07/2020, 17:20:33,-12.638889,-0.8327023,-1.8592232,-3.1932056,-1.3713078,0.83524,12.80201653,3.574167464,crawl
10/07/2020, 17:20:33,-12.638889,-0.8327023,-1.8592232,-3.4459758,-1.4103833,0.80593336,12.80201653,3.809653374,crawl
10/07/2020, 17:20:33,-12.736995,-0.6125626,-1.861616,-3.4459758,-1.4103833,0.80593336,12.886888,3.809653374,crawl
10/07/2020, 17:20:33,-12.736995,-0.6125626,-1.861616,-3.699967,-1.4763234,0.7778478,12.886888,4.058858588,crawl
10/07/2020, 17:20:33,-12.653246,-0.4546363,-1.6582261,-3.699967,-1.4763234,0.7778478,12.76953564,4.058858588,crawl
10/07/2020, 17:20:33,-12.653246,-0.4546363,-1.6582261,-3.8843546,-1.5276101,0.7778478,12.76953564,4.245803851,crawl
10/07/2020, 17:20:33,-12.363714,-0.4139583,-1.2634103,-3.8843546,-1.5276101,0.7778478,12.43499081,4.245803851,crawl
10/07/2020, 17:20:33,-12.363714,-0.4139583,-1.2634103,-3.964948,-1.5495901,0.7973856,12.43499081,4.331035144,crawl
10/07/2020, 17:20:33,-12.040684,-0.51445687,-0.8039884,-3.964948,-1.5495901,0.7973856,12.0784572,4.331035144,crawl
10/07/2020, 17:20:33,-12.040684,-0.51445687,-0.8039884,-3.9258723,-1.5532534,0.80227005,12.0784572,4.297523348,crawl
10/07/2020, 17:20:33,-11.787045,-0.7106683,-0.2536392,-3.9258723,-1.5532534,0.80227005,11.81117272,4.297523348,crawl
10/07/2020, 17:20:33,-11.787045,-0.7106683,-0.2536392,-3.7732334,-1.5202833,0.81936556,11.81117272,4.149688152,crawl
10/07/2020, 17:20:33,-11.60519,-0.96909314,0.2536392,-3.7732334,-1.5202833,0.81936556,11.6483439,4.149688152,crawl
10/07/2020, 17:20:33,-11.60519,-0.96909314,0.2536392,-3.548549,-1.4946401,0.8486723,11.6483439,3.942891483,crawl
10/07/2020, 17:20:34,-4.752146,-8.784052,0.6556334,0.50798225,0.32115224,0.41762,10.0086119,0.731840965,crawl
10/07/2020, 17:20:34,-4.5918264,-8.736196,0.5694918,0.50798225,0.32115224,0.41762,9.885863842,0.731840965,crawl
10/07/2020, 17:20:34,-4.5918264,-8.736196,0.5694918,0.4249467,0.3052778,0.38831335,9.885863842,0.651583829,crawl
10/07/2020, 17:20:34,-4.5415773,-8.657232,0.5766702,0.4249467,0.3052778,0.38831335,9.793168237,0.651583829,crawl
10/07/2020, 17:20:34,-4.5415773,-8.657232,0.5766702,0.34313223,0.29184556,0.35412225,9.793168237,0.572988766,crawl
10/07/2020, 17:20:34,-4.5942197,-8.568698,0.6891329,0.34313223,0.29184556,0.35412225,9.747017129,0.572988766,crawl
10/07/2020, 17:20:34,-4.5942197,-8.568698,0.6891329,0.27230778,0.26986557,0.30894113,9.747017129,0.492365286,crawl
10/07/2020, 17:20:34,-4.6803613,-8.439486,0.89730847,0.27230778,0.26986557,0.30894113,9.692051406,0.492365286,crawl
10/07/2020, 17:20:34,-4.6803613,-8.439486,0.89730847,0.20514667,0.2283478,0.26009667,9.692051406,0.402340836,crawl
10/07/2020, 17:20:34,-4.7282176,-8.257631,1.0863415,0.20514667,0.2283478,0.26009667,9.577298902,0.402340836,crawl
10/07/2020, 17:20:34,-4.7282176,-8.257631,1.0863415,0.14653334,0.18805112,0.21247335,9.577298902,0.319343337,crawl
10/07/2020, 17:20:34,-4.733003,-8.085348,1.2873386,0.14653334,0.18805112,0.21247335,9.456818376,0.319343337,crawl
10/07/2020, 17:20:34,-4.733003,-8.085348,1.2873386,0.09768889,0.14164889,0.17950334,9.456818376,0.248654328,crawl
10/07/2020, 17:20:34,-4.7401814,-7.9561353,1.4261223,0.09768889,0.14164889,0.17950334,9.370337959,0.248654328,crawl
10/07/2020, 17:20:34,-4.7401814,-7.9561353,1.4261223,0.06227667,0.078151114,0.15874445,9.370337959,0.187578735,crawl
10/07/2020, 17:20:34,-4.74736,-7.8963146,1.4979069,0.06227667,0.078151114,0.15874445,9.334502606,0.187578735,crawl
10/07/2020, 17:20:34,-4.74736,-7.8963146,1.4979069,0.029306669,0.028085556,0.13310112,9.334502606,0.139153108,crawl
10/07/2020, 17:20:34,-4.7210393,-7.9513497,1.5146568,0.029306669,0.028085556,0.13310112,9.370504779,0.139153108,crawl
10/07/2020, 17:20:34,-4.7210393,-7.9513497,1.5146568,0.019537779,-0.02198,0.11966889,9.370504779,0.123229417,crawl
10/07/2020, 17:20:34,-4.692325,-8.070991,1.4333007,0.019537779,-0.02198,0.11966889,9.445271549,0.123229417,crawl
10/07/2020, 17:20:35,-7.826923,-5.4125648,2.239682,0.28574002,-0.32970002,0.51164556,9.776131877,0.672406601,crawl
10/07/2020, 17:20:35,-7.826923,-5.4125648,2.239682,0.2075889,-0.30649891,0.48722336,9.776131877,0.611899775,crawl
10/07/2020, 17:20:35,-7.948957,-5.393422,2.213361,0.2075889,-0.30649891,0.48722336,9.857681579,0.611899775,crawl
10/07/2020, 17:20:35,-7.948957,-5.393422,2.213361,0.11966889,-0.27108666,0.43960002,9.857681579,0.530147905,crawl
10/07/2020, 17:20:35,-7.9944205,-5.3336015,2.1942184,0.11966889,-0.27108666,0.43960002,9.85761932,0.530147905,crawl
10/07/2020, 17:20:35,-7.9944205,-5.3336015,2.1942184,0.034191113,-0.22468445,0.3944189,9.85761932,0.455212476,crawl
10/07/2020, 17:20:35,-7.9369926,-5.259424,2.132005,0.034191113,-0.22468445,0.3944189,9.757194294,0.455212476,crawl
10/07/2020, 17:20:35,-7.9369926,-5.259424,2.132005,-0.035412222,-0.16362889,0.34313223,9.757194294,0.381795973,crawl
10/07/2020, 17:20:35,-7.8317084,-5.2259245,2.1176481,-0.035412222,-0.16362889,0.34313223,9.650408143,0.381795973,crawl
10/07/2020, 17:20:35,-7.8317084,-5.2259245,2.1176481,-0.07693,-0.085477784,0.28085557,9.650408143,0.303487275,crawl
10/07/2020, 17:20:35,-7.728817,-5.2019963,2.1104696,-0.07693,-0.085477784,0.28085557,9.552458303,0.303487275,crawl
10/07/2020, 17:20:35,-7.728817,-5.2019963,2.1104696,-0.06594,0.001221111,0.23933779,9.552458303,0.248258235,crawl
10/07/2020, 17:20:35,-7.6426754,-5.218746,2.120041,-0.06594,0.001221111,0.23933779,9.494228373,0.248258235,crawl
10/07/2020, 17:20:35,-7.6426754,-5.218746,2.120041,-0.003663334,0.098910004,0.18805112,9.494228373,0.212508429,crawl
10/07/2020, 17:20:35,-7.5326056,-5.237889,2.1296122,-0.003663334,0.098910004,0.18805112,9.418645084,0.212508429,crawl
10/07/2020, 17:20:35,-7.5326056,-5.237889,2.1296122,0.102573335,0.20881,0.13676445,9.418645084,0.269865561,crawl
10/07/2020, 17:20:35,-7.4416785,-5.2139606,2.2157538,0.102573335,0.20881,0.13676445,9.352728466,0.269865561,crawl
10/07/2020, 17:20:35,-7.4416785,-5.2139606,2.2157538,0.23079,0.32481557,0.085477784,9.352728466,0.407523782,crawl
10/07/2020, 17:20:35,-7.3579297,-5.1158547,2.2851455,0.23079,0.32481557,0.085477784,9.248404692,0.407523782,crawl
10/07/2020, 17:20:35,-7.3579297,-5.1158547,2.2851455,0.34679556,0.4481478,0.026864445,9.248404692,0.567296494,crawl
10/07/2020, 17:20:36,-5.285745,-2.5579274,3.4313076,-0.8865267,-0.37976557,-0.85599893,6.801173846,1.289529239,crawl
10/07/2020, 17:20:36,-5.278567,-2.5172493,3.318845,-0.8865267,-0.37976557,-0.85599893,6.724176119,1.289529239,crawl
10/07/2020, 17:20:36,-5.278567,-2.5172493,3.318845,-0.8669889,-0.3809867,-1.0330601,6.724176119,1.401439875,crawl
10/07/2020, 17:20:36,-5.5944195,-2.4670002,3.211168,-0.8669889,-0.3809867,-1.0330601,6.906172585,1.401439875,crawl
10/07/2020, 17:20:36,-5.5944195,-2.4670002,3.211168,-0.86088336,-0.37854445,-1.1563922,6.906172585,1.490523066,crawl
10/07/2020, 17:20:36,-6.113662,-2.4741786,3.103491,-0.86088336,-0.37854445,-1.1563922,7.289038106,1.490523066,crawl
10/07/2020, 17:20:36,-6.113662,-2.4741786,3.103491,-0.8584412,-0.39075556,-1.24187,7.289038106,1.559439762,crawl
10/07/2020, 17:20:36,-6.7094746,-2.5028925,2.969493,-0.8584412,-0.39075556,-1.24187,7.75238079,1.559439762,crawl
10/07/2020, 17:20:36,-6.7094746,-2.5028925,2.969493,-0.83890337,-0.39686114,-1.29682,7.75238079,1.594678604,crawl
10/07/2020, 17:20:36,-7.331609,-2.5674987,2.902494,-0.83890337,-0.39686114,-1.29682,8.292708112,1.594678604,crawl
10/07/2020, 17:20:36,-7.331609,-2.5674987,2.902494,-0.80227005,-0.38953447,-1.3102523,8.292708112,1.584971754,crawl
10/07/2020, 17:20:36,-7.8987074,-2.6608188,2.8283165,-0.80227005,-0.38953447,-1.3102523,8.801642411,1.584971754,crawl
10/07/2020, 17:20:36,-7.8987074,-2.6608188,2.8283165,-0.75831,-0.36877558,-1.3017045,8.801642411,1.550955894,crawl
10/07/2020, 17:20:36,-8.382058,-2.7684958,2.754139,-0.75831,-0.36877558,-1.3017045,9.247094086,1.550955894,crawl
10/07/2020, 17:20:36,-8.382058,-2.7684958,2.754139,-0.73999333,-0.35534334,-1.2589656,9.247094086,1.502948248,crawl
10/07/2020, 17:20:36,-8.7673025,-2.8091738,2.6273193,-0.73999333,-0.35534334,-1.2589656,9.57391549,1.502948248,crawl
10/07/2020, 17:20:36,-8.7673025,-2.8091738,2.6273193,-0.75831,-0.36267,-1.1808145,9.57391549,1.449443518,crawl
10/07/2020, 17:20:36,-9.040084,-2.8283165,2.5411777,-0.75831,-0.36267,-1.1808145,9.807144077,1.449443518,crawl
10/07/2020, 17:20:36,-9.040084,-2.8283165,2.5411777,-0.81570226,-0.39197668,-1.1026634,9.807144077,1.426493066,crawl
10/07/2020, 17:20:36,-9.23151,-2.8833513,2.455036,-0.81570226,-0.39197668,-1.1026634,9.97806074,1.426493066,crawl
10/07/2020, 17:20:37,-9.040084,-3.991228,2.1918256,0.003663334,-0.12699556,-0.27719223,10.12211035,0.30492102,crawl
10/07/2020, 17:20:37,-9.040084,-3.991228,2.1918256,0.057392225,-0.12455334,-0.28574002,10.12211035,0.316945988,crawl
10/07/2020, 17:20:37,-8.965906,-3.9696927,2.1966112,0.057392225,-0.12455334,-0.28574002,10.04843439,0.316945988,crawl
10/07/2020, 17:20:37,-8.965906,-3.9696927,2.1966112,0.09768889,-0.11600556,-0.30161446,10.04843439,0.337596941,crawl
10/07/2020, 17:20:37,-8.932407,-3.9098723,2.2325034,0.09768889,-0.11600556,-0.30161446,10.00295329,0.337596941,crawl
10/07/2020, 17:20:37,-8.932407,-3.9098723,2.2325034,0.1306589,-0.10379445,-0.3174889,10.00295329,0.358670101,crawl
10/07/2020, 17:20:37,-8.860622,-3.8356948,2.2420747,0.1306589,-0.10379445,-0.3174889,9.912117989,0.358670101,crawl
10/07/2020, 17:20:37,-8.860622,-3.8356948,2.2420747,0.16729222,-0.09280445,-0.32970002,9.912117989,0.381184284,crawl
10/07/2020, 17:20:37,-8.851051,-3.7710886,2.2564318,0.16729222,-0.09280445,-0.32970002,9.88198884,0.381184284,crawl
10/07/2020, 17:20:37,-8.851051,-3.7710886,2.2564318,0.20514667,-0.070824444,-0.34313223,9.88198884,0.406006138,crawl
10/07/2020, 17:20:37,-8.796016,-3.6873398,2.2588246,0.20514667,-0.070824444,-0.34313223,9.801461936,0.406006138,crawl
10/07/2020, 17:20:37,-8.796016,-3.6873398,2.2588246,0.23201112,-0.05617111,-0.3382478,9.801461936,0.41399992,crawl
10/07/2020, 17:20:37,-8.736196,-3.629912,2.251646,0.23201112,-0.05617111,-0.3382478,9.724571108,0.41399992,crawl
10/07/2020, 17:20:37,-8.736196,-3.629912,2.251646,0.23933779,-0.045181114,-0.35412225,9.724571108,0.429798183,crawl
10/07/2020, 17:20:37,-8.602198,-3.6059837,2.2325034,0.23933779,-0.045181114,-0.35412225,9.590880801,0.429798183,crawl
10/07/2020, 17:20:37,-8.602198,-3.6059837,2.2325034,0.23201112,-0.03297,-0.36511225,9.590880801,0.433846902,crawl
10/07/2020, 17:20:37,-8.49452,-3.5676985,2.2660031,0.23201112,-0.03297,-0.36511225,9.487893119,0.433846902,crawl
10/07/2020, 17:20:37,-8.49452,-3.5676985,2.2660031,0.20881,-0.02075889,-0.38709223,9.487893119,0.440310055,crawl
10/07/2020, 17:20:37,-8.362915,-3.5557344,2.2301106,0.20881,-0.02075889,-0.38709223,9.357082266,0.440310055,crawl
10/07/2020, 17:20:37,-8.362915,-3.5557344,2.2301106,0.1856089,-0.007326667,-0.41029334,9.357082266,0.450383133,crawl
10/07/2020, 17:20:38,-7.4033933,-4.1611185,4.213761,-0.37732336,0.07693,0.5262989,9.480554817,0.652136224,crawl
10/07/2020, 17:20:38,-7.3340015,-4.3094735,4.3525443,-0.37732336,0.07693,0.5262989,9.555301279,0.652136224,crawl
10/07/2020, 17:20:38,-7.3340015,-4.3094735,4.3525443,-0.25277,0.15019667,0.5262989,9.555301279,0.602861699,crawl
10/07/2020, 17:20:38,-7.176075,-4.386044,4.409972,-0.25277,0.15019667,0.5262989,9.496382946,0.602861699,crawl
10/07/2020, 17:20:38,-7.176075,-4.386044,4.409972,-0.13554333,0.2283478,0.5104245,9.496382946,0.575367599,crawl
10/07/2020, 17:20:38,-7.0133634,-4.426722,4.338187,-0.13554333,0.2283478,0.5104245,9.35964754,0.575367599,crawl
10/07/2020, 17:20:38,-7.0133634,-4.426722,4.338187,-0.039075557,0.30039334,0.49455002,9.35964754,0.579950672,crawl
10/07/2020, 17:20:38,-6.896115,-4.4817567,4.2257247,-0.039075557,0.30039334,0.49455002,9.246582716,0.579950672,crawl
10/07/2020, 17:20:38,-6.896115,-4.4817567,4.2257247,0.04396,0.36999667,0.5043189,9.246582716,0.62703075,crawl
10/07/2020, 17:20:38,-6.8315086,-4.508078,4.074977,0.04396,0.36999667,0.5043189,9.143178621,0.62703075,crawl
10/07/2020, 17:20:38,-6.8315086,-4.508078,4.074977,0.11600556,0.43960002,0.52141446,9.143178621,0.691793688,crawl
10/07/2020, 17:20:38,-6.745367,-4.570291,4.017549,0.11600556,0.43960002,0.52141446,9.084505332,0.691793688,crawl
10/07/2020, 17:20:38,-6.745367,-4.570291,4.017549,0.19782001,0.5153089,0.54461557,9.084505332,0.775423852,crawl
10/07/2020, 17:20:38,-6.678368,-4.6229334,4.019942,0.19782001,0.5153089,0.54461557,9.062673204,0.775423852,crawl
10/07/2020, 17:20:38,-6.678368,-4.6229334,4.019942,0.27963445,0.6020078,0.57148004,9.062673204,0.875898541,crawl
10/07/2020, 17:20:38,-6.6568327,-4.7282176,4.0438704,0.27963445,0.6020078,0.57148004,9.111660191,0.875898541,crawl
10/07/2020, 17:20:38,-6.6568327,-4.7282176,4.0438704,0.36389112,0.69237006,0.6105556,9.111660191,0.992255599,crawl
10/07/2020, 17:20:38,-6.7166533,-4.8263235,4.0701914,0.36389112,0.69237006,0.6105556,9.21809572,0.992255599,crawl
10/07/2020, 17:20:38,-6.7166533,-4.8263235,4.0701914,0.45181113,0.77296335,0.65940005,9.21809572,1.11194157,crawl
10/07/2020, 17:20:38,-6.8099732,-4.900501,4.048656,0.45181113,0.77296335,0.65940005,9.31569958,1.11194157,crawl
10/07/2020, 17:20:39,-10.030712,-4.2711883,0.5240282,0.8950745,0.37732336,-1.9354612,10.91479915,2.165534846,crawl
10/07/2020, 17:20:39,-10.030712,-4.2711883,0.5240282,0.83768225,0.40663,-1.9977379,10.91479915,2.20409078,crawl
10/07/2020, 17:20:39,-9.982856,-4.1084766,0.51206404,0.83768225,0.40663,-1.9977379,10.80736784,2.20409078,crawl
10/07/2020, 17:20:39,-9.982856,-4.1084766,0.51206404,0.7448778,0.44326335,-2.0575724,10.80736784,2.232695545,crawl
10/07/2020, 17:20:39,-9.987641,-4.0558343,0.53359944,0.7448778,0.44326335,-2.0575724,10.79293749,2.232695545,crawl
10/07/2020, 17:20:39,-9.987641,-4.0558343,0.53359944,0.65085226,0.46158,-2.1064167,10.79293749,2.252477768,crawl
10/07/2020, 17:20:39,-10.068997,-4.0701914,0.5814559,0.65085226,0.46158,-2.1064167,10.87608648,2.252477768,crawl
10/07/2020, 17:20:39,-10.068997,-4.0701914,0.5814559,0.5885756,0.4798967,-2.1503768,10.87608648,2.280535561,crawl
10/07/2020, 17:20:39,-10.13839,-4.1850467,0.59342,0.5885756,0.4798967,-2.1503768,10.9842481,2.280535561,crawl
10/07/2020, 17:20:39,-10.13839,-4.1850467,0.59342,0.5800278,0.50554,-2.174799,10.9842481,2.30689261,crawl
10/07/2020, 17:20:39,-10.195817,-4.2999024,0.64845496,0.5800278,0.50554,-2.174799,11.08441875,2.30689261,crawl
10/07/2020, 17:20:39,-10.195817,-4.2999024,0.64845496,0.62765115,0.53484666,-2.1918945,11.08441875,2.341881415,crawl
10/07/2020, 17:20:39,-10.253245,-4.398008,0.715454,0.62765115,0.53484666,-2.1918945,11.17959695,2.341881415,crawl
10/07/2020, 17:20:39,-10.253245,-4.398008,0.715454,0.71435004,0.5775856,-2.2175379,11.17959695,2.400286511,crawl
10/07/2020, 17:20:39,-10.286744,-4.4554358,0.8039884,0.71435004,0.5775856,-2.2175379,11.23896835,2.400286511,crawl
10/07/2020, 17:20:39,-10.286744,-4.4554358,0.8039884,0.7973856,0.6032289,-2.2468445,11.23896835,2.459272094,crawl
10/07/2020, 17:20:39,-10.339387,-4.412365,0.8446664,0.7973856,0.6032289,-2.2468445,11.27321375,2.459272094,crawl
10/07/2020, 17:20:39,-10.339387,-4.412365,0.8446664,0.8450089,0.5971234,-2.2724879,11.27321375,2.496957659,crawl
10/07/2020, 17:20:39,-10.403993,-4.3238306,0.9236295,0.8450089,0.5971234,-2.2724879,11.30449759,2.496957659,crawl
10/07/2020, 17:20:39,-10.403993,-4.3238306,0.9236295,0.82791334,0.5702589,-2.2810357,11.30449759,2.492741348,crawl
10/07/2020, 17:20:40,-8.492127,-4.462614,3.318845,1.229659,0.53484666,-2.16503,10.15115189,2.546659975,crawl
10/07/2020, 17:20:40,-8.800801,-4.4889355,3.1896327,1.229659,0.53484666,-2.16503,10.3816377,2.546659975,crawl
10/07/2020, 17:20:40,-8.800801,-4.4889355,3.1896327,1.3835189,0.58491224,-2.2920256,10.3816377,2.740370078,crawl
10/07/2020, 17:20:40,-9.243474,-4.4721856,3.089134,1.3835189,0.58491224,-2.2920256,10.72310611,2.740370078,crawl
10/07/2020, 17:20:40,-9.243474,-4.4721856,3.089134,1.5337156,0.6227667,-2.4080312,10.72310611,2.922111612,crawl
10/07/2020, 17:20:40,-9.738789,-4.386044,3.0173492,1.5337156,0.6227667,-2.4080312,11.09890905,2.922111612,crawl
10/07/2020, 17:20:40,-9.738789,-4.386044,3.0173492,1.6655957,0.63131446,-2.4983935,11.09890905,3.068344354,crawl
10/07/2020, 17:20:40,-10.119247,-4.2041893,2.955136,1.6655957,0.63131446,-2.4983935,11.34932621,3.068344354,crawl
10/07/2020, 17:20:40,-10.119247,-4.2041893,2.955136,1.7498523,0.63619894,-2.5667756,11.34932621,3.170972869,crawl
10/07/2020, 17:20:40,-10.267602,-3.9050865,2.8666015,1.7498523,0.63619894,-2.5667756,11.35300642,3.170972869,crawl
10/07/2020, 17:20:40,-10.267602,-3.9050865,2.8666015,1.7547368,0.6203245,-2.6290524,11.35300642,3.221151995,crawl
10/07/2020, 17:20:40,-10.193424,-3.4695928,2.7852457,1.7547368,0.6203245,-2.6290524,11.12212053,3.221151995,crawl
10/07/2020, 17:20:40,-10.193424,-3.4695928,2.7852457,1.6729223,0.5836911,-2.691329,11.12212053,3.222206696,crawl
10/07/2020, 17:20:40,-10.054641,-3.0029924,2.6201408,1.6729223,0.5836911,-2.691329,10.81567853,3.222206696,crawl
10/07/2020, 17:20:40,-10.054641,-3.0029924,2.6201408,1.5215045,0.54095227,-2.7548268,10.81567853,3.193223445,crawl
10/07/2020, 17:20:40,-9.908679,-2.684747,2.4191437,1.5215045,0.54095227,-2.7548268,10.54713431,3.193223445,crawl
10/07/2020, 17:20:40,-9.908679,-2.684747,2.4191437,1.3273479,0.5030978,-2.8171034,10.54713431,3.154525517,crawl
10/07/2020, 17:20:40,-9.8321085,-2.481357,2.1702902,1.3273479,0.5030978,-2.8171034,10.37003617,3.154525517,crawl
10/07/2020, 17:20:40,-9.8321085,-2.481357,2.1702902,1.1392968,0.45425335,-2.8744957,10.37003617,3.125231034,crawl
10/07/2020, 17:20:40,-9.834501,-2.5004997,2.012364,1.1392968,0.45425335,-2.8744957,10.34502405,3.125231034,crawl
10/07/2020, 17:20:41,-7.5996046,-3.871587,2.9910283,-0.12211112,0.070824444,0.16240779,9.038220329,0.215182518,crawl
10/07/2020, 17:20:41,-7.645068,-3.900301,2.9120653,-0.12211112,0.070824444,0.16240779,9.063086624,0.215182518,crawl
10/07/2020, 17:20:41,-7.645068,-3.900301,2.9120653,-0.12577444,0.089141116,0.098910004,9.063086624,0.1831626,crawl
10/07/2020, 17:20:41,-7.690532,-3.938586,2.8091738,-0.12577444,0.089141116,0.098910004,9.085604154,0.1831626,crawl
10/07/2020, 17:20:41,-7.690532,-3.938586,2.8091738,-0.14897557,0.106236674,0.025643334,9.085604154,0.184763445,crawl
10/07/2020, 17:20:41,-7.702496,-3.9433718,2.6895328,-0.14897557,0.106236674,0.025643334,9.061578936,0.184763445,crawl
10/07/2020, 17:20:41,-7.702496,-3.9433718,2.6895328,-0.18316667,0.11966889,-0.058613338,9.061578936,0.22650871,crawl
10/07/2020, 17:20:41,-7.7120676,-3.871587,2.6488547,-0.18316667,0.11966889,-0.058613338,9.026716142,0.22650871,crawl
10/07/2020, 17:20:41,-7.7120676,-3.871587,2.6488547,-0.22712667,0.13188,-0.14164889,9.026716142,0.298401186,crawl
10/07/2020, 17:20:41,-7.7120676,-3.7471602,2.6512475,-0.22712667,0.13188,-0.14164889,8.974759583,0.298401186,crawl
10/07/2020, 17:20:41,-7.7120676,-3.7471602,2.6512475,-0.28085557,0.13920668,-0.23567446,8.974759583,0.392174448,crawl
10/07/2020, 17:20:41,-7.743174,-3.6897326,2.684747,-0.28085557,0.13920668,-0.23567446,8.987699229,0.392174448,crawl
10/07/2020, 17:20:41,-7.743174,-3.6897326,2.684747,-0.33214223,0.14775445,-0.3382478,8.987699229,0.496549512,crawl
10/07/2020, 17:20:41,-7.798209,-3.629912,2.766103,-0.33214223,0.14775445,-0.3382478,9.035466393,0.496549512,crawl
10/07/2020, 17:20:41,-7.798209,-3.629912,2.766103,-0.37366003,0.15752333,-0.42250445,9.035466393,0.58561543,crawl
10/07/2020, 17:20:41,-7.8484583,-3.546163,2.8881369,-0.37366003,0.15752333,-0.42250445,9.083771501,0.58561543,crawl
10/07/2020, 17:20:41,-7.8484583,-3.546163,2.8881369,-0.41395667,0.17584,-0.52019334,9.083771501,0.687663394,crawl
10/07/2020, 17:20:41,-7.9226356,-3.4983068,2.9862428,-0.41395667,0.17584,-0.52019334,9.161001591,0.687663394,crawl
10/07/2020, 17:20:41,-7.9226356,-3.4983068,2.9862428,-0.4359367,0.20636779,-0.6325356,9.161001591,0.795443095,crawl
10/07/2020, 17:20:41,-8.020741,-3.4456646,3.0747771,-0.4359367,0.20636779,-0.6325356,9.255223003,0.795443095,crawl
10/07/2020, 17:20:42,-8.441878,-3.2207394,2.7876384,-0.83768225,-0.5287411,0.92193896,9.455654372,1.353236919,crawl
10/07/2020, 17:20:42,-8.5016985,-3.196811,2.8259234,-0.83768225,-0.5287411,0.92193896,9.512324685,1.353236919,crawl
10/07/2020, 17:20:42,-8.5016985,-3.196811,2.8259234,-0.82547116,-0.52752,0.8999589,9.512324685,1.330265398,crawl
10/07/2020, 17:20:42,-8.539984,-3.1657043,2.7876384,-0.82547116,-0.52752,0.8999589,9.524911224,1.330265398,crawl
10/07/2020, 17:20:42,-8.539984,-3.1657043,2.7876384,-0.83768225,-0.5238567,0.88896894,9.524911224,1.329061012,crawl
10/07/2020, 17:20:42,-8.633304,-3.17049,2.7613173,-0.83768225,-0.5238567,0.88896894,9.602646081,1.329061012,crawl
10/07/2020, 17:20:42,-8.633304,-3.17049,2.7613173,-0.8645467,-0.51653004,0.8743156,9.602646081,1.333668664,crawl
10/07/2020, 17:20:42,-8.724232,-3.1776686,2.6368906,-0.8645467,-0.51653004,0.8743156,9.652097645,1.333668664,crawl
10/07/2020, 17:20:42,-8.724232,-3.1776686,2.6368906,-0.90362227,-0.5140878,0.8547778,9.652097645,1.345906601,crawl
10/07/2020, 17:20:42,-8.7984085,-3.1657043,2.507678,-0.90362227,-0.5140878,0.8547778,9.681018789,1.345906601,crawl
10/07/2020, 17:20:42,-8.7984085,-3.1657043,2.507678,-0.9402556,-0.5043189,0.8315767,9.681018789,1.352751981,crawl
10/07/2020, 17:20:42,-8.903693,-3.2135608,2.4191437,-0.9402556,-0.5043189,0.8315767,9.770106543,1.352751981,crawl
10/07/2020, 17:20:42,-8.903693,-3.2135608,2.4191437,-0.9683412,-0.48722336,0.81570226,9.770106543,1.356628689,crawl
10/07/2020, 17:20:42,-9.064013,-3.2805598,2.3521447,-0.9683412,-0.48722336,0.81570226,9.922246738,1.356628689,crawl
10/07/2020, 17:20:42,-9.064013,-3.2805598,2.3521447,-0.9878789,-0.4689067,0.8169234,9.922246738,1.364969619,crawl
10/07/2020, 17:20:42,-9.253045,-3.318845,2.292324,-0.9878789,-0.4689067,0.8169234,10.0939747,1.364969619,crawl
10/07/2020, 17:20:42,-9.253045,-3.318845,2.292324,-0.9878789,-0.45303226,0.8205867,10.0939747,1.361802292,crawl
10/07/2020, 17:20:42,-9.480363,-3.397808,2.28036,-0.9878789,-0.45303226,0.8205867,10.32581338,1.361802292,crawl
10/07/2020, 17:20:42,-9.480363,-3.397808,2.28036,-0.9854367,-0.44082114,0.8266923,10.32581338,1.359716461,crawl
10/07/2020, 17:20:42,-9.74836,-3.4791641,2.347359,-0.9854367,-0.44082114,0.8266923,10.613444,1.359716461,crawl
10/07/2020, 17:20:43,-10.959127,-6.5252275,0.98584294,-0.2613178,-1.6411734,3.5021467,12.79269146,3.876437623,crawl
10/07/2020, 17:20:43,-11.959328,-6.463014,0.50009996,-0.2613178,-1.6411734,3.5021467,13.60316767,3.876437623,crawl
10/07/2020, 17:20:43,-11.959328,-6.463014,0.50009996,-0.6191034,-1.7205456,3.6877558,13.60316767,4.116200837,crawl
10/07/2020, 17:20:43,-12.8518505,-6.1208405,0.07178468,-0.6191034,-1.7205456,3.6877558,14.23516433,4.116200837,crawl
10/07/2020, 17:20:43,-12.8518505,-6.1208405,0.07178468,-1.1063267,-1.8792901,3.7988768,14.23516433,4.380314454,crawl
10/07/2020, 17:20:43,-13.385449,-5.5968122,-0.31106696,-1.1063267,-1.8792901,3.7988768,14.51176509,4.380314454,crawl
10/07/2020, 17:20:43,-13.385449,-5.5968122,-0.31106696,-1.6778067,-2.1491556,3.834289,14.51176509,4.704856853,crawl
10/07/2020, 17:20:43,-13.430914,-5.096712,-0.46181476,-1.6778067,-2.1491556,3.834289,14.37286318,4.704856853,crawl
10/07/2020, 17:20:43,-13.430914,-5.096712,-0.46181476,-2.2700458,-2.4764135,3.7939923,14.37286318,5.067554532,crawl
10/07/2020, 17:20:43,-12.949956,-4.790431,-0.23688944,-2.2700458,-2.4764135,3.7939923,13.80962363,5.067554532,crawl
10/07/2020, 17:20:43,-12.949956,-4.790431,-0.23688944,-2.7413945,-2.7731435,3.6755445,13.80962363,5.358656205,crawl
10/07/2020, 17:20:43,-12.074183,-4.6612186,0.38285163,-2.7413945,-2.7731435,3.6755445,12.94833738,5.358656205,crawl
10/07/2020, 17:20:43,-12.074183,-4.6612186,0.38285163,-3.008818,-2.922119,3.4691768,12.94833738,5.443064537,crawl
10/07/2020, 17:20:43,-11.035698,-4.8047876,1.0025927,-3.008818,-2.922119,3.4691768,12.07798846,5.443064537,crawl
10/07/2020, 17:20:43,-11.035698,-4.8047876,1.0025927,-3.0454512,-2.9746268,3.2054167,12.07798846,5.328965506,crawl
10/07/2020, 17:20:43,-10.281959,-5.1661043,1.6462619,-3.0454512,-2.9746268,3.2054167,11.62400466,5.328965506,crawl
10/07/2020, 17:20:43,-10.281959,-5.1661043,1.6462619,-2.8244302,-2.9465413,2.9172347,11.62400466,5.016948261,crawl
10/07/2020, 17:20:43,-9.9038925,-5.56092,2.160719,-2.8244302,-2.9465413,2.9172347,11.56199039,5.016948261,crawl
10/07/2020, 17:20:43,-9.9038925,-5.56092,2.160719,-2.4178002,-2.7499423,2.6632435,11.56199039,4.527781634,crawl
10/07/2020, 17:20:43,-10.006784,-5.800202,2.254039,-2.4178002,-2.7499423,2.6632435,11.78383507,4.527781634,crawl
10/07/2020, 17:20:44,-1.8951155,-9.638289,3.3020952,-0.5873545,1.1478444,-1.5727912,10.36300723,2.033766051,crawl
10/07/2020, 17:20:44,-1.9812572,-9.635897,3.1154552,-0.5873545,1.1478444,-1.5727912,10.31900895,2.033766051,crawl
10/07/2020, 17:20:44,-1.9812572,-9.635897,3.1154552,-0.3931978,1.1881411,-1.5984346,10.31900895,2.030092823,crawl
10/07/2020, 17:20:44,-2.2899313,-9.7196455,2.78046,-0.3931978,1.1881411,-1.5984346,10.36562835,2.030092823,crawl
10/07/2020, 17:20:44,-2.2899313,-9.7196455,2.78046,-0.17950334,1.2333223,-1.6289623,10.36562835,2.051054206,crawl
10/07/2020, 17:20:44,-2.6703901,-9.870394,2.3712873,-0.17950334,1.2333223,-1.6289623,10.49660231,2.051054206,crawl
10/07/2020, 17:20:44,-2.6703901,-9.870394,2.3712873,0.07693,1.2675134,-1.6082034,10.49660231,2.049103863,crawl
10/07/2020, 17:20:44,-2.8642087,-9.973285,1.9262222,0.07693,1.2675134,-1.6082034,10.55369279,2.049103863,crawl
10/07/2020, 17:20:44,-2.8642087,-9.973285,1.9262222,0.31504667,1.3212423,-1.5972134,10.55369279,2.096670291,crawl
10/07/2020, 17:20:44,-2.9072795,-9.987641,1.5218352,0.31504667,1.3212423,-1.5972134,10.51290806,2.096670291,crawl
10/07/2020, 17:20:44,-2.9072795,-9.987641,1.5218352,0.5092034,1.3932878,-1.6020979,10.51290806,2.183404793,crawl
10/07/2020, 17:20:44,-2.8953154,-9.932607,1.1365907,0.5092034,1.3932878,-1.6020979,10.40823547,2.183404793,crawl
10/07/2020, 17:20:44,-2.8953154,-9.932607,1.1365907,0.6667267,1.4409112,-1.6204145,10.40823547,2.268588251,crawl
10/07/2020, 17:20:44,-2.8953154,-9.889536,0.79920274,0.6667267,1.4409112,-1.6204145,10.33559368,2.268588251,crawl
10/07/2020, 17:20:44,-2.8953154,-9.889536,0.79920274,0.81326,1.4702178,-1.6057612,10.33559368,2.324091488,crawl
10/07/2020, 17:20:44,-2.9671001,-9.915857,0.63888365,0.81326,1.4702178,-1.6057612,10.36996055,2.324091488,crawl
10/07/2020, 17:20:44,-2.9671001,-9.915857,0.63888365,0.94391894,1.4934189,-1.570349,10.36996055,2.363742581,crawl
10/07/2020, 17:20:44,-3.0029924,-9.997213,0.47377887,0.94391894,1.4934189,-1.570349,10.44924422,2.363742581,crawl
10/07/2020, 17:20:44,-3.0029924,-9.997213,0.47377887,1.0745778,1.504409,-1.5447056,10.44924422,2.409165676,crawl
10/07/2020, 17:20:44,-3.1082766,-10.102497,0.40677986,1.0745778,1.504409,-1.5447056,10.57767938,2.409165676,crawl
10/07/2020, 17:20:45,-12.217752,-4.249653,3.1752756,1.2101212,1.0562612,-3.9710536,13.31973721,4.283613847,crawl
10/07/2020, 17:20:45,-12.519248,-4.2999024,3.2398818,1.2101212,1.0562612,-3.9710536,13.62782321,4.283613847,crawl
10/07/2020, 17:20:45,-12.519248,-4.2999024,3.2398818,1.3139156,1.05504,-4.0797324,13.62782321,4.414034463,crawl
10/07/2020, 17:20:45,-12.734602,-4.3764725,3.2279177,1.3139156,1.05504,-4.0797324,13.84713152,4.414034463,crawl
10/07/2020, 17:20:45,-12.734602,-4.3764725,3.2279177,1.4396901,1.053819,-4.184748,13.84713152,4.549215235,crawl
10/07/2020, 17:20:45,-12.88535,-4.45065,3.237489,1.4396901,1.053819,-4.184748,14.01149074,4.549215235,crawl
10/07/2020, 17:20:45,-12.88535,-4.45065,3.237489,1.5825601,1.0452712,-4.2763314,14.01149074,4.678044314,crawl
10/07/2020, 17:20:45,-13.007384,-4.4817567,3.1848469,1.5825601,1.0452712,-4.2763314,14.12166559,4.678044314,crawl
10/07/2020, 17:20:45,-13.007384,-4.4817567,3.1848469,1.7278723,1.0171856,-4.36303,14.12166559,4.801691307,crawl
10/07/2020, 17:20:45,-12.9954195,-4.534399,3.1657043,1.7278723,1.0171856,-4.36303,14.12315071,4.801691307,crawl
10/07/2020, 17:20:45,-12.9954195,-4.534399,3.1657043,1.8243401,0.9866578,-4.447287,14.12315071,4.907145079,crawl
10/07/2020, 17:20:45,-12.375679,-4.3334017,2.9216363,1.8243401,0.9866578,-4.447287,13.43397782,4.907145079,crawl
10/07/2020, 17:20:45,-12.375679,-4.3334017,2.9216363,1.8304456,0.9072856,-4.558408,13.43397782,4.995275758,crawl
10/07/2020, 17:20:45,-11.7463665,-4.0869412,2.8283165,1.8304456,0.9072856,-4.558408,12.75459088,4.995275758,crawl
10/07/2020, 17:20:45,-11.7463665,-4.0869412,2.8283165,1.7413045,0.86088336,-4.6841826,12.75459088,5.070979059,crawl
10/07/2020, 17:20:45,-11.583654,-4.2281175,2.7302105,1.7413045,0.86088336,-4.6841826,12.62980903,5.070979059,crawl
10/07/2020, 17:20:45,-11.583654,-4.2281175,2.7302105,1.6826912,0.86088336,-4.7916403,12.62980903,5.150959762,crawl
10/07/2020, 17:20:45,-12.016755,-4.666004,2.548356,1.6826912,0.86088336,-4.7916403,13.14032408,5.150959762,crawl
10/07/2020, 17:20:45,-12.016755,-4.666004,2.548356,1.7327567,0.8425667,-4.8380423,13.14032408,5.207592293,crawl
10/07/2020, 17:20:45,-12.569497,-5.151747,2.4502504,1.7327567,0.8425667,-4.8380423,13.80349535,5.207592293,crawl
10/07/2020, 17:20:46,-9.399008,-5.1206403,2.969493,0.37854445,0.31260446,-0.7631945,11.10766369,0.907459803,crawl
10/07/2020, 17:20:46,-10.009177,-5.2139606,3.0053852,0.37854445,0.31260446,-0.7631945,11.67909902,0.907459803,crawl
10/07/2020, 17:20:46,-10.009177,-5.2139606,3.0053852,0.37976557,0.34557447,-0.9060645,11.67909902,1.041439628,crawl
10/07/2020, 17:20:46,-10.628919,-5.3072805,3.010171,0.37976557,0.34557447,-0.9060645,12.25570347,1.041439628,crawl
10/07/2020, 17:20:46,-10.628919,-5.3072805,3.010171,0.38465002,0.3492378,-1.064809,12.25570347,1.184795683,crawl
10/07/2020, 17:20:46,-11.157732,-5.3814583,3.0029924,0.38465002,0.3492378,-1.064809,12.74649129,1.184795683,crawl
10/07/2020, 17:20:46,-11.157732,-5.3814583,3.0029924,0.40174556,0.35656446,-1.2137845,12.74649129,1.327332067,crawl
10/07/2020, 17:20:46,-11.437693,-5.2809596,3.0843484,0.40174556,0.35656446,-1.2137845,12.97006371,1.327332067,crawl
10/07/2020, 17:20:46,-11.437693,-5.2809596,3.0843484,0.44082114,0.36511225,-1.3615389,12.97006371,1.476962549,crawl
10/07/2020, 17:20:46,-11.344372,-4.9938207,3.0843484,0.44082114,0.36511225,-1.3615389,12.77287053,1.476962549,crawl
10/07/2020, 17:20:46,-11.344372,-4.9938207,3.0843484,0.48478112,0.36755446,-1.5276101,12.77287053,1.644293622,crawl
10/07/2020, 17:20:46,-10.872986,-4.4721856,3.0173492,0.48478112,0.36755446,-1.5276101,12.13781948,1.644293622,crawl
10/07/2020, 17:20:46,-10.872986,-4.4721856,3.0173492,0.5153089,0.37488112,-1.7034501,12.13781948,1.818741686,crawl
10/07/2020, 17:20:46,-10.212567,-3.8524444,2.87378,0.5153089,0.37488112,-1.7034501,11.28700452,1.818741686,crawl
10/07/2020, 17:20:46,-10.212567,-3.8524444,2.87378,0.48722336,0.37610224,-1.8976067,11.28700452,1.994931276,crawl
10/07/2020, 17:20:46,-9.518648,-3.37388,2.6416762,0.48722336,0.37610224,-1.8976067,10.43868676,1.994931276,crawl
10/07/2020, 17:20:46,-9.518648,-3.37388,2.6416762,0.39564002,0.36755446,-2.1137433,10.43868676,2.181636556,crawl
10/07/2020, 17:20:46,-8.9348,-3.196811,2.3114667,0.39564002,0.36755446,-2.1137433,9.766940784,2.181636556,crawl
10/07/2020, 17:20:46,-8.9348,-3.196811,2.3114667,0.3602278,0.35412225,-2.3469756,9.766940784,2.40072092,crawl
10/07/2020, 17:20:46,-8.520842,-3.4695928,2.1918256,0.3602278,0.35412225,-2.3469756,9.45763794,2.40072092,crawl
10/07/2020, 17:20:47,-7.9369926,-3.4049866,5.7427745,1.8182346,1.6338468,1.2186689,10.37155943,2.731407355,crawl
10/07/2020, 17:20:47,-7.9369926,-3.4049866,5.7427745,1.5007457,1.4934189,1.0819045,10.37155943,2.37761541,crawl
10/07/2020, 17:20:47,-8.382058,-2.940779,5.898308,1.5007457,1.4934189,1.0819045,10.66288491,2.37761541,crawl
10/07/2020, 17:20:47,-8.382058,-2.940779,5.898308,1.0794623,1.2589656,0.9829945,10.66288491,1.92782557,crawl
10/07/2020, 17:20:47,-8.788837,-2.6273193,5.9270215,1.0794623,1.2589656,0.9829945,10.92135771,1.92782557,crawl
10/07/2020, 17:20:47,-8.788837,-2.6273193,5.9270215,0.72534,0.9463611,0.8816423,10.92135771,1.48290614,crawl
10/07/2020, 17:20:47,-8.879765,-2.7469604,5.7834525,0.72534,0.9463611,0.8816423,10.94734365,1.48290614,crawl
10/07/2020, 17:20:47,-8.879765,-2.7469604,5.7834525,0.57148004,0.7424356,0.7558678,10.94734365,1.203800695,crawl
10/07/2020, 17:20:47,-8.762517,-3.1657043,6.0346985,0.57148004,0.7424356,0.7558678,11.10049427,1.203800695,crawl
10/07/2020, 17:20:47,-8.762517,-3.1657043,6.0346985,0.60811335,0.67283225,0.6423045,11.10049427,1.111332591,crawl
10/07/2020, 17:20:47,-8.846265,-3.5892339,6.2261243,0.60811335,0.67283225,0.6423045,11.39752715,1.111332591,crawl
10/07/2020, 17:20:47,-8.846265,-3.5892339,6.2261243,0.7070234,0.61544,0.51653004,11.39752715,1.070257796,crawl
10/07/2020, 17:20:47,-9.24826,-3.792624,6.276374,0.7070234,0.61544,0.51653004,11.80284585,1.070257796,crawl
10/07/2020, 17:20:47,-9.24826,-3.792624,6.276374,0.73633003,0.50798225,0.39564002,11.80284585,0.978140536,crawl
10/07/2020, 17:20:47,-9.695718,-3.6514473,6.2237315,0.73633003,0.50798225,0.39564002,12.0861427,0.978140536,crawl
10/07/2020, 17:20:47,-9.695718,-3.6514473,6.2237315,0.6252089,0.34313223,0.2845189,12.0861427,0.767839121,crawl
10/07/2020, 17:20:47,-10.059426,-3.3140593,6.166304,0.6252089,0.34313223,0.2845189,12.25554376,0.767839121,crawl
10/07/2020, 17:20:47,-10.059426,-3.3140593,6.166304,0.40174556,0.13310112,0.16607112,12.25554376,0.454637237,crawl
10/07/2020, 17:20:47,-10.140782,-2.9790642,5.9174504,0.40174556,0.13310112,0.16607112,12.11307187,0.454637237,crawl
10/07/2020, 17:20:47,-10.140782,-2.9790642,5.9174504,0.117226675,-0.09036223,0.025643334,12.11307187,0.150216531,crawl
10/07/2020, 17:20:48,-5.17089,-0.038285162,7.204789,0.59468114,0.44570556,0.35778558,8.868402027,0.824808847,crawl
10/07/2020, 17:20:48,-5.1254263,-0.18424734,7.281359,0.59468114,0.44570556,0.35778558,8.906297407,0.824808847,crawl
10/07/2020, 17:20:48,-5.1254263,-0.18424734,7.281359,0.6252089,0.42006224,0.34435335,8.906297407,0.828201487,crawl
10/07/2020, 17:20:48,-5.0799623,-0.27996024,7.30768,0.6252089,0.42006224,0.34435335,8.904301383,0.828201487,crawl
10/07/2020, 17:20:48,-5.0799623,-0.27996024,7.30768,0.6288723,0.3858711,0.33336335,8.904301383,0.809634473,crawl
10/07/2020, 17:20:48,-5.0081778,-0.22253251,7.3746796,0.6288723,0.3858711,0.33336335,8.917245307,0.809634473,crawl
10/07/2020, 17:20:48,-5.0081778,-0.22253251,7.3746796,0.60933447,0.3260367,0.3284789,8.917245307,0.765171098,crawl
10/07/2020, 17:20:48,-4.9052863,-0.17228323,7.4344997,0.60933447,0.3260367,0.3284789,8.908608292,0.765171098,crawl
10/07/2020, 17:20:48,-4.9052863,-0.17228323,7.4344997,0.5641534,0.2625389,0.31260446,8.908608292,0.696360003,crawl
10/07/2020, 17:20:48,-4.831109,-0.11485548,7.499106,0.5641534,0.2625389,0.31260446,8.921288929,0.696360003,crawl
10/07/2020, 17:20:48,-4.831109,-0.11485548,7.499106,0.5238567,0.20636779,0.30039334,8.921288929,0.638161161,crawl
10/07/2020, 17:20:48,-4.814359,-0.12921242,7.568498,0.5238567,0.20636779,0.30039334,8.970892612,0.638161161,crawl
10/07/2020, 17:20:48,-4.814359,-0.12921242,7.568498,0.48722336,0.15019667,0.29062447,8.970892612,0.586863035,crawl
10/07/2020, 17:20:48,-4.8765726,-0.11246266,7.6402826,0.48722336,0.15019667,0.29062447,9.064630546,0.586863035,crawl
10/07/2020, 17:20:48,-4.8765726,-0.11246266,7.6402826,0.44570556,0.091583334,0.27963445,9.064630546,0.534075256,crawl
10/07/2020, 17:20:48,-4.9292145,-0.09092726,7.728817,0.44570556,0.091583334,0.27963445,9.167335225,0.534075256,crawl
10/07/2020, 17:20:48,-4.9292145,-0.09092726,7.728817,0.40540892,0.025643334,0.26864445,9.167335225,0.487015209,crawl
10/07/2020, 17:20:48,-4.974678,-0.124426775,7.8029947,0.40540892,0.025643334,0.26864445,9.25470855,0.487015209,crawl
10/07/2020, 17:20:48,-4.974678,-0.124426775,7.8029947,0.37366003,-0.04029667,0.26742333,9.25470855,0.461260096,crawl
10/07/2020, 17:20:48,-5.0751767,-0.2416751,7.9011,0.37366003,-0.04029667,0.26742333,9.393785673,0.461260096,crawl
10/07/2020, 17:20:49,-9.336794,-3.414558,3.5820556,-0.6239878,0.8034911,1.9708734,10.56721573,2.217949622,crawl
10/07/2020, 17:20:49,-9.336794,-3.414558,3.5820556,-0.93537116,0.69114894,1.9525567,10.56721573,2.272682081,crawl
10/07/2020, 17:20:49,-9.265009,-3.4241292,3.739982,-0.93537116,0.69114894,1.9525567,10.56184246,2.272682081,crawl
10/07/2020, 17:20:49,-9.265009,-3.4241292,3.739982,-1.1930256,0.5922389,1.9464512,10.56184246,2.358543872,crawl
10/07/2020, 17:20:49,-9.164511,-3.562913,3.9577286,-1.1930256,0.5922389,1.9464512,10.59935004,2.358543872,crawl
10/07/2020, 17:20:49,-9.164511,-3.562913,3.9577286,-1.4262578,0.52996224,1.9391245,10.59935004,2.464807319,crawl
10/07/2020, 17:20:49,-9.090333,-3.67059,4.091727,-1.4262578,0.52996224,1.9391245,10.62306981,2.464807319,crawl
10/07/2020, 17:20:49,-9.090333,-3.67059,4.091727,-1.6607112,0.46280113,1.9391245,10.62306981,2.594677275,crawl
10/07/2020, 17:20:49,-9.047262,-3.7064822,4.089334,-1.6607112,0.46280113,1.9391245,10.59781185,2.594677275,crawl
10/07/2020, 17:20:49,-9.047262,-3.7064822,4.089334,-1.9171445,0.35412225,1.9513357,10.59781185,2.758361223,crawl
10/07/2020, 17:20:49,-9.030513,-3.7184465,4.005585,-1.9171445,0.35412225,1.9513357,10.55564866,2.758361223,crawl
10/07/2020, 17:20:49,-9.030513,-3.7184465,4.005585,-2.1955578,0.20636779,1.9574412,10.55564866,2.948667149,crawl
10/07/2020, 17:20:49,-8.975478,-3.790231,3.8524444,-2.1955578,0.20636779,1.9574412,10.47694551,2.948667149,crawl
10/07/2020, 17:20:49,-8.975478,-3.790231,3.8524444,-2.4568756,0.05006556,1.9574412,10.47694551,3.141706572,crawl
10/07/2020, 17:20:49,-8.836694,-3.9553359,3.7208393,-2.4568756,0.05006556,1.9574412,10.37190837,3.141706572,crawl
10/07/2020, 17:20:49,-8.836694,-3.9553359,3.7208393,-2.6510324,-0.091583334,1.9720945,10.37190837,3.305377044,crawl
10/07/2020, 17:20:49,-8.597412,-4.240082,3.6514473,-2.6510324,-0.091583334,1.9720945,10.25801423,3.305377044,crawl
10/07/2020, 17:20:49,-8.597412,-4.240082,3.6514473,-2.7536056,-0.20026223,1.9720945,10.25801423,3.392875719,crawl
10/07/2020, 17:20:49,-8.224132,-4.5248275,3.562913,-2.7536056,-0.20026223,1.9720945,10.040157,3.392875719,crawl
10/07/2020, 17:20:49,-8.224132,-4.5248275,3.562913,-2.768259,-0.27719223,1.9574412,10.040157,3.401715712,crawl
10/07/2020, 17:20:50,-7.207182,-4.910072,3.7280176,0.6667267,0.96589893,2.7658167,9.484218046,3.00453444,crawl
10/07/2020, 17:20:50,-7.207182,-4.910072,3.7280176,0.9072856,1.0391656,2.6534746,9.484218046,2.990645344,crawl
10/07/2020, 17:20:50,-7.628319,-4.752146,3.7304106,0.9072856,1.0391656,2.6534746,9.730883823,2.990645344,crawl
10/07/2020, 17:20:50,-7.628319,-4.752146,3.7304106,1.0379444,1.0965579,2.5557857,9.730883823,2.968468983,crawl
10/07/2020, 17:20:50,-8.327023,-4.4602213,3.5365918,1.0379444,1.0965579,2.5557857,10.08664265,2.968468983,crawl
10/07/2020, 17:20:50,-8.327023,-4.4602213,3.5365918,1.0379444,1.1075479,2.5057201,10.08664265,2.929611641,crawl
10/07/2020, 17:20:50,-9.226724,-4.141976,3.2566316,1.0379444,1.1075479,2.5057201,10.62516086,2.929611641,crawl
10/07/2020, 17:20:50,-9.226724,-4.141976,3.2566316,0.9292656,1.0745778,2.4861822,10.62516086,2.863451423,crawl
10/07/2020, 17:20:50,-10.238888,-3.8380876,2.7972097,0.9292656,1.0745778,2.4861822,11.28672324,2.863451423,crawl
10/07/2020, 17:20:50,-10.238888,-3.8380876,2.7972097,0.7326667,1.0184067,2.4751923,11.28672324,2.774982833,crawl
10/07/2020, 17:20:50,-11.200803,-3.6323047,2.3952155,0.7326667,1.0184067,2.4751923,12.016184,2.774982833,crawl
10/07/2020, 17:20:50,-11.200803,-3.6323047,2.3952155,0.48478112,0.91217005,2.4776344,12.016184,2.684350816,crawl
