DATE,TIME,ax,ay,az,gx,gy,gz,ma,mg,label
27/03/2021, 15:25:06,3.3290772,4.514612,7.9562554,0.03543017,-0.021991141,0.029321522,9.734807607,0.050977043,crawl
27/03/2021, 15:25:06,3.3650026,4.3014555,8.078402,0.03543017,-0.021991141,0.029321522,9.751222178,0.050977043,crawl
27/03/2021, 15:25:06,3.3650026,4.3014555,8.078402,0.06352996,-0.02809979,0.03787363,9.751222178,0.079120578,crawl
27/03/2021, 15:25:06,3.4823585,4.232,8.224498,0.06352996,-0.02809979,0.03787363,9.883269061,0.079120578,crawl
27/03/2021, 15:25:06,3.4823585,4.232,8.224498,0.11484262,-0.05253439,0.047647472,9.883269061,0.134977672,crawl
27/03/2021, 15:25:06,3.3673975,4.2224197,8.380174,0.11484262,-0.05253439,0.047647472,9.969729467,0.134977672,crawl
27/03/2021, 15:25:06,3.3673975,4.2224197,8.380174,0.03543017,-0.14416414,-0.00488692,9.969729467,0.148534439,crawl
27/03/2021, 15:25:06,3.9469924,4.3014555,9.302257,0.03543017,-0.14416414,-0.00488692,10.9824062,0.148534439,crawl
27/03/2021, 15:25:06,3.9469924,4.3014555,9.302257,0.36896247,-0.28221965,-0.010995571,10.9824062,0.464652703,crawl
27/03/2021, 15:25:06,3.5637891,4.2918754,12.022999,0.36896247,-0.28221965,-0.010995571,13.25418,0.464652703,crawl
27/03/2021, 15:25:06,3.5637891,4.2918754,12.022999,0.030543251,0.00610865,0,13.25418,0.031148126,crawl
27/03/2021, 15:25:06,2.811753,4.176914,3.3290772,0.030543251,0.00610865,0,6.036167889,0.031148126,crawl
27/03/2021, 15:25:06,2.811753,4.176914,3.3290772,0.051312663,0.102625325,-0.0122173,6.036167889,0.115387214,crawl
27/03/2021, 15:25:06,0.31135255,4.0044727,7.893985,0.051312663,0.102625325,-0.0122173,8.857072779,0.115387214,crawl
27/03/2021, 15:25:06,0.31135255,4.0044727,7.893985,0.051312663,0.11972954,-0.029321522,8.857072779,0.133521174,crawl
27/03/2021, 15:25:06,0.16286133,3.6452198,8.959768,0.051312663,0.11972954,-0.029321522,9.674275122,0.133521174,crawl
27/03/2021, 15:25:06,0.16286133,3.6452198,8.959768,0.16371182,0.30298904,-0.02809979,9.674275122,0.345533664,crawl
27/03/2021, 15:25:06,0.36883304,3.772156,4.517007,0.16371182,0.30298904,-0.02809979,5.896486225,0.345533664,crawl
27/03/2021, 15:25:06,0.36883304,3.772156,4.517007,0.14660761,0.2724458,-0.021991141,5.896486225,0.31016788,crawl
27/03/2021, 15:25:06,3.4296682,4.409231,-0.07664063,0.14660761,0.2724458,-0.021991141,5.586574739,0.31016788,crawl
27/03/2021, 15:25:07,3.2500417,-6.70845,7.479646,-1.497841,-0.25167638,0.72326416,10.55988531,1.682254352,crawl
27/03/2021, 15:25:07,3.2500417,-6.70845,7.479646,-1.4929541,-0.26755887,0.6304127,10.55988531,1.642534617,crawl
27/03/2021, 15:25:07,3.0895753,-6.5407987,7.180269,-1.4929541,-0.26755887,0.6304127,10.19233939,1.642534617,crawl
27/03/2021, 15:25:07,3.0895753,-6.5407987,7.180269,-1.4147633,-0.31642807,0.565661,10.19233939,1.556166568,crawl
27/03/2021, 15:25:07,3.0177248,-6.5623536,7.084468,-1.4147633,-0.31642807,0.565661,10.11735306,1.556166568,crawl
27/03/2021, 15:25:07,3.0177248,-6.5623536,7.084468,-1.3707811,-0.3652973,0.55588716,10.11735306,1.523644766,crawl
27/03/2021, 15:25:07,3.0919704,-6.6821046,6.9144216,-1.3707811,-0.3652973,0.55588716,10.10049644,1.523644766,crawl
27/03/2021, 15:25:07,3.0919704,-6.6821046,6.9144216,-1.3658942,-0.3995057,0.57176965,10.10049644,1.533685857,crawl
27/03/2021, 15:25:07,3.3578174,-6.4258375,6.9790874,-1.3658942,-0.3995057,0.57176965,10.06349769,1.533685857,crawl
27/03/2021, 15:25:07,3.3578174,-6.4258375,6.9790874,-1.3781115,-0.41783166,0.5497785,10.06349769,1.541437956,crawl
27/03/2021, 15:25:07,3.5494192,-6.1623855,6.919212,-1.3781115,-0.41783166,0.5497785,9.922140083,1.541437956,crawl
27/03/2021, 15:25:07,3.5494192,-6.1623855,6.919212,-1.3744463,-0.44837493,0.47280952,9.922140083,1.521082338,crawl
27/03/2021, 15:25:07,3.5494192,-6.0450296,7.1467385,-1.3744463,-0.44837493,0.47280952,10.01082571,1.521082338,crawl
27/03/2021, 15:25:07,3.5494192,-6.0450296,7.1467385,-1.3487899,-0.50579625,0.39217535,10.01082571,1.492938588,crawl
27/03/2021, 15:25:07,3.5254688,-6.253396,6.974297,-1.3487899,-0.50579625,0.39217535,10.00873177,1.492938588,crawl
27/03/2021, 15:25:07,3.5254688,-6.253396,6.974297,-1.3231336,-0.5436699,0.3176498,10.00873177,1.465319362,crawl
27/03/2021, 15:25:07,3.432063,-6.574329,7.2808595,-1.3231336,-0.5436699,0.3176498,10.39287122,1.465319362,crawl
27/03/2021, 15:25:07,3.432063,-6.574329,7.2808595,-1.2486081,-0.5632175,0.21991141,10.39287122,1.387298534,crawl
27/03/2021, 15:25:07,3.4440382,-6.6916847,7.0293827,-1.2486081,-0.5632175,0.21991141,10.29816801,1.387298534,crawl
27/03/2021, 15:25:07,3.4440382,-6.6916847,7.0293827,-1.1215482,-0.59131736,0.102625325,10.29816801,1.272029278,crawl
27/03/2021, 15:25:08,-1.343606,-1.3915064,8.013736,-4.254064,-0.074525535,-0.33475402,8.243878228,4.267865454,crawl
27/03/2021, 15:25:08,-1.6286134,-1.7268091,7.8915896,-4.254064,-0.074525535,-0.33475402,8.240839663,4.267865454,crawl
27/03/2021, 15:25:08,-1.6286134,-1.7268091,7.8915896,-4.801399,-0.13439031,-0.40927956,8.240839663,4.820685126,crawl
27/03/2021, 15:25:08,-2.0621119,-2.5315359,7.537127,-4.801399,-0.13439031,-0.40927956,8.213967544,4.820685126,crawl
27/03/2021, 15:25:08,-2.0621119,-2.5315359,7.537127,-5.1557007,-0.21746795,-0.42149687,8.213967544,5.177470566,crawl
27/03/2021, 15:25:08,-2.2489235,-3.786526,7.2114043,-5.1557007,-0.21746795,-0.42149687,8.449839542,5.177470566,crawl
27/03/2021, 15:25:08,-2.2489235,-3.786526,7.2114043,-5.2974215,-0.29810214,-0.4190534,8.449839542,5.322325123,crawl
27/03/2021, 15:25:08,-2.0525317,-4.9289503,7.0006423,-5.2974215,-0.29810214,-0.4190534,8.804341555,5.322325123,crawl
27/03/2021, 15:25:08,-2.0525317,-4.9289503,7.0006423,-5.2119,-0.35552344,-0.42882723,8.804341555,5.241583134,crawl
27/03/2021, 15:25:08,-1.710044,-5.9085135,6.947952,-5.2119,-0.35552344,-0.42882723,9.279483661,5.241583134,crawl
27/03/2021, 15:25:08,-1.710044,-5.9085135,6.947952,-4.9370112,-0.38484496,-0.4312707,9.279483661,4.970732346,crawl
27/03/2021, 15:25:08,-1.4418018,-6.5551686,6.758745,-4.9370112,-0.38484496,-0.4312707,9.525212057,4.970732346,crawl
27/03/2021, 15:25:08,-1.4418018,-6.5551686,6.758745,-4.5533876,-0.3750711,-0.4031709,9.525212057,4.586563435,crawl
27/03/2021, 15:25:08,-1.1903248,-6.9024467,6.567144,-4.5533876,-0.3750711,-0.4031709,9.601459442,4.586563435,crawl
27/03/2021, 15:25:08,-1.1903248,-6.9024467,6.567144,-4.1025696,-0.3176498,-0.35430172,9.601459442,4.13007364,crawl
27/03/2021, 15:25:08,-1.0585986,-6.861731,6.349197,-4.1025696,-0.3176498,-0.35430172,9.408309387,4.13007364,crawl
27/03/2021, 15:25:08,-1.0585986,-6.861731,6.349197,-3.588221,-0.24312428,-0.29932386,9.408309387,3.608882743,crawl
27/03/2021, 15:25:08,-0.8885523,-6.8186207,5.999524,-3.588221,-0.24312428,-0.29932386,9.125645338,3.608882743,crawl
27/03/2021, 15:25:08,-0.8885523,-6.8186207,5.999524,-3.08609,-0.1954768,-0.2565633,9.125645338,3.102899924,crawl
27/03/2021, 15:25:08,-0.8334668,-6.933582,5.6187162,-3.08609,-0.1954768,-0.2565633,8.963213493,3.102899924,crawl
27/03/2021, 15:25:09,-0.33530274,5.1804276,5.733677,0.7147121,1.4367545,1.4538587,7.734617538,2.165359548,crawl
27/03/2021, 15:25:09,-0.33530274,5.1804276,5.733677,1.091005,1.5968012,1.7226393,7.734617538,2.589894211,crawl
27/03/2021, 15:25:09,0.7232959,6.1935205,6.1695704,1.091005,1.5968012,1.7226393,8.771912747,2.589894211,crawl
27/03/2021, 15:25:09,0.7232959,6.1935205,6.1695704,1.4269806,1.6798788,1.6713266,8.771912747,2.766152434,crawl
27/03/2021, 15:25:09,1.1136842,5.1971927,5.841453,1.4269806,1.6798788,1.6713266,7.897700812,2.766152434,crawl
27/03/2021, 15:25:09,1.1136842,5.1971927,5.841453,1.3548986,1.6713266,1.4330894,7.897700812,2.585116637,crawl
27/03/2021, 15:25:09,1.341211,3.8272414,5.216353,1.3548986,1.6713266,1.4330894,6.607341502,2.585116637,crawl
27/03/2021, 15:25:09,1.341211,3.8272414,5.216353,1.2131779,1.665218,1.3634508,6.607341502,2.47057678,crawl
27/03/2021, 15:25:09,1.6094532,4.018843,5.4103494,1.2131779,1.665218,1.3634508,6.929164478,2.47057678,crawl
27/03/2021, 15:25:09,1.6094532,4.018843,5.4103494,1.3927722,1.7397436,1.3329074,6.929164478,2.596760365,crawl
27/03/2021, 15:25:09,1.6525636,4.4379716,3.8823268,1.3927722,1.7397436,1.3329074,6.123644333,2.596760365,crawl
27/03/2021, 15:25:09,1.6525636,4.4379716,3.8823268,1.6249009,1.8570297,1.1203264,6.123644333,2.709980354,crawl
27/03/2021, 15:25:09,0.847837,3.5853443,2.6033864,1.6249009,1.8570297,1.1203264,4.511224018,2.709980354,crawl
27/03/2021, 15:25:09,0.847837,3.5853443,2.6033864,1.7971649,2.0415108,0.9065237,4.511224018,2.866941471,crawl
27/03/2021, 15:25:09,-1.21188,4.495452,2.7327175,1.7971649,2.0415108,0.9065237,5.398655953,2.866941471,crawl
27/03/2021, 15:25:09,-1.21188,4.495452,2.7327175,2.0268502,2.163684,0.9211844,5.398655953,3.104549975,crawl
27/03/2021, 15:25:09,-0.98195803,7.3934255,3.3578174,2.0268502,2.163684,0.9211844,8.179359354,3.104549975,crawl
27/03/2021, 15:25:09,-0.98195803,7.3934255,3.3578174,2.18201,2.2198834,0.82833296,8.179359354,3.221053453,crawl
27/03/2021, 15:25:09,-0.08861572,7.862849,2.8836036,2.18201,2.2198834,0.82833296,8.375405686,3.221053453,crawl
27/03/2021, 15:25:09,-0.08861572,7.862849,2.8836036,2.2821918,2.3286173,0.56932616,8.375405686,3.309832347,crawl
27/03/2021, 15:25:10,-6.2270513,2.083667,-7.2425394,-1.593136,0.58887386,-2.1563535,9.77610417,2.744943514,crawl
27/03/2021, 15:25:10,-5.9133034,1.9375709,-5.269043,-1.593136,0.58887386,-2.1563535,8.153781437,2.744943514,crawl
27/03/2021, 15:25:10,-5.9133034,1.9375709,-5.269043,-1.7702868,0.5265656,-2.108706,8.153781437,2.803181706,crawl
27/03/2021, 15:25:10,-6.246211,1.336421,-4.7636943,-1.7702868,0.5265656,-2.108706,7.968309537,2.803181706,crawl
27/03/2021, 15:25:10,-6.246211,1.336421,-4.7636943,-2.0073025,0.47280952,-2.1526883,7.968309537,2.981086887,crawl
27/03/2021, 15:25:10,-6.466553,1.2430152,-4.30385,-2.0073025,0.47280952,-2.1526883,7.866671689,2.981086887,crawl
27/03/2021, 15:25:10,-6.466553,1.2430152,-4.30385,-2.2663093,0.4263838,-2.2589788,7.866671689,3.22814904,crawl
27/03/2021, 15:25:10,-6.583909,1.2358302,-4.988826,-2.2663093,0.4263838,-2.2589788,8.352455763,3.22814904,crawl
27/03/2021, 15:25:10,-6.583909,1.2358302,-4.988826,-2.475225,0.3579669,-2.4862206,8.352455763,3.526495686,crawl
27/03/2021, 15:25:10,-6.085745,1.331631,-5.8175025,-2.475225,0.3579669,-2.4862206,8.523665102,3.526495686,crawl
27/03/2021, 15:25:10,-6.085745,1.331631,-5.8175025,-2.6242762,0.2809979,-2.66948,8.523665102,3.753919168,crawl
27/03/2021, 15:25:10,-6.246211,0.847837,-6.4354177,-2.6242762,0.2809979,-2.66948,9.008250684,3.753919168,crawl
27/03/2021, 15:25:10,-6.246211,0.847837,-6.4354177,-2.719571,0.18570296,-2.679254,9.008250684,3.822166261,crawl
27/03/2021, 15:25:10,-6.471343,0.364043,-6.5336137,-2.719571,0.18570296,-2.679254,9.203201388,3.822166261,crawl
27/03/2021, 15:25:10,-6.471343,0.364043,-6.5336137,-2.6145022,-0.00733038,-2.679254,9.203201388,3.743538131,crawl
27/03/2021, 15:25:10,-7.201824,-0.29937744,-5.647456,-2.6145022,-0.00733038,-2.679254,9.15694598,3.743538131,crawl
27/03/2021, 15:25:10,-7.201824,-0.29937744,-5.647456,-2.1282537,-0.22357659,-2.6975799,9.15694598,3.443310529,crawl
27/03/2021, 15:25:10,-7.046148,-0.7424561,-4.9505057,-2.1282537,-0.22357659,-2.6975799,8.643318066,3.443310529,crawl
27/03/2021, 15:25:10,-7.046148,-0.7424561,-4.9505057,-1.4917324,-0.33475402,-2.6487107,8.643318066,3.058266536,crawl
27/03/2021, 15:25:10,-7.436536,-1.0130934,-4.272715,-1.4917324,-0.33475402,-2.6487107,8.636232838,3.058266536,crawl
27/03/2021, 15:25:11,1.3076807,-6.5144534,5.865403,2.100154,0.7342597,0.6096433,8.862905084,2.306826559,crawl
27/03/2021, 15:25:11,1.4609619,-8.025711,5.8270826,2.100154,0.7342597,0.6096433,10.02503565,2.306826559,crawl
27/03/2021, 15:25:11,1.4609619,-8.025711,5.8270826,2.3335044,0.8161157,0.5925391,10.02503565,2.54212319,crawl
27/03/2021, 15:25:11,0.7783814,-8.401729,6.557564,2.3335044,0.8161157,0.5925391,10.68627926,2.54212319,crawl
27/03/2021, 15:25:11,0.7783814,-8.401729,6.557564,2.7611098,0.9810492,0.6133085,10.68627926,2.993715465,crawl
27/03/2021, 15:25:11,0.68018556,-8.59333,6.7779055,2.7611098,0.9810492,0.6133085,10.96576408,2.993715465,crawl
27/03/2021, 15:25:11,0.68018556,-8.59333,6.7779055,3.0848684,1.1239916,0.57054794,10.96576408,3.332460851,crawl
27/03/2021, 15:25:11,0.7065308,-7.165899,6.4138627,3.0848684,1.1239916,0.57054794,9.642972892,3.332460851,crawl
27/03/2021, 15:25:11,0.7065308,-7.165899,6.4138627,3.1471765,1.1203264,0.48258337,9.642972892,3.375313008,crawl
27/03/2021, 15:25:11,-0.62510014,-5.968389,6.0091043,3.1471765,1.1203264,0.48258337,8.492452635,3.375313008,crawl
27/03/2021, 15:25:11,-0.62510014,-5.968389,6.0091043,3.0824249,1.0238098,0.5436699,8.492452635,3.293190939,crawl
27/03/2021, 15:25:11,-1.5112574,-5.3073635,6.3875175,3.0824249,1.0238098,0.5436699,8.441112817,3.293190939,crawl
27/03/2021, 15:25:11,-1.5112574,-5.3073635,6.3875175,3.0628772,0.86498487,0.6181954,8.441112817,3.242156845,crawl
27/03/2021, 15:25:11,-1.2358302,-5.989944,6.830596,3.0628772,0.86498487,0.6181954,9.168628385,3.242156845,crawl
27/03/2021, 15:25:11,-1.2358302,-5.989944,6.830596,3.1826067,0.70493823,0.5277874,9.168628385,3.302193639,crawl
27/03/2021, 15:25:11,-0.7927515,-6.926397,7.321575,3.1826067,0.70493823,0.5277874,10.1098413,3.302193639,crawl
27/03/2021, 15:25:11,-0.7927515,-6.926397,7.321575,3.4697132,0.7452553,0.6597342,10.1098413,3.609648794,crawl
27/03/2021, 15:25:11,-0.46942386,-7.201824,8.119117,3.4697132,0.7452553,0.6597342,10.86308831,3.609648794,crawl
27/03/2021, 15:25:11,-0.46942386,-7.201824,8.119117,3.9290838,0.97494054,0.8527676,10.86308831,4.137078837,crawl
27/03/2021, 15:25:11,-0.57959473,-6.1312504,7.4006104,3.9290838,0.97494054,0.8527676,9.627938319,4.137078837,crawl
27/03/2021, 15:25:12,-9.139395,-7.3479204,6.2342362,-1.4049895,1.2657123,0.00366519,13.28104561,1.89104109,crawl
27/03/2021, 15:25:12,-8.2197075,-6.861731,6.832991,-1.4049895,1.2657123,0.00366519,12.70183892,1.89104109,crawl
27/03/2021, 15:25:12,-8.2197075,-6.861731,6.832991,-1.1618652,1.3597856,0.15149452,12.70183892,1.794964672,crawl
27/03/2021, 15:25:12,-7.5012016,-5.3408937,7.2640944,-1.1618652,1.3597856,0.15149452,11.7286077,1.794964672,crawl
27/03/2021, 15:25:12,-7.5012016,-5.3408937,7.2640944,-1.2437211,1.5076149,0.17592913,11.7286077,1.962318996,crawl
27/03/2021, 15:25:12,-8.667576,-4.9385304,6.332432,-1.2437211,1.5076149,0.17592913,11.81590649,1.962318996,crawl
27/03/2021, 15:25:12,-8.667576,-4.9385304,6.332432,-1.389107,1.6798788,0.19181162,11.81590649,2.188241945,crawl
27/03/2021, 15:25:12,-10.859019,-6.574329,5.637876,-1.389107,1.6798788,0.19181162,13.88977129,2.188241945,crawl
27/03/2021, 15:25:12,-10.859019,-6.574329,5.637876,-1.4990628,1.7580695,0.36407554,13.88977129,2.338920398,crawl
27/03/2021, 15:25:12,-12.145144,-8.689131,5.870193,-1.4990628,1.7580695,0.36407554,16.04570639,2.338920398,crawl
27/03/2021, 15:25:12,-12.145144,-8.689131,5.870193,-1.5821403,1.7373,0.7134903,16.04570639,2.45569702,crawl
27/03/2021, 15:25:12,-14.123431,-8.5119,6.943162,-1.5821403,1.7373,0.7134903,17.89221193,2.45569702,crawl
27/03/2021, 15:25:12,-14.123431,-8.5119,6.943162,-1.2290604,2.004859,1.2241734,17.89221193,2.651160041,crawl
27/03/2021, 15:25:12,-12.030184,-7.94907,7.6592727,-1.2290604,2.004859,1.2241734,16.32720103,2.651160041,crawl
27/03/2021, 15:25:12,-12.030184,-7.94907,7.6592727,-0.7147121,2.1331406,1.5234973,16.32720103,2.717010523,crawl
27/03/2021, 15:25:12,-12.949871,-7.688013,6.8665214,-0.7147121,2.1331406,1.5234973,16.55155042,2.717010523,crawl
27/03/2021, 15:25:12,-12.949871,-7.688013,6.8665214,-0.31887153,2.3738215,1.7568477,16.55155042,2.970390804,crawl
27/03/2021, 15:25:12,-9.371712,-6.792276,8.416099,-0.31887153,2.3738215,1.7568477,14.31065017,2.970390804,crawl
27/03/2021, 15:25:12,-9.371712,-6.792276,8.416099,0.05986477,2.5045466,2.063502,14.31065017,3.245670729,crawl
27/03/2021, 15:25:12,-12.497212,-6.4593678,6.6988697,0.05986477,2.5045466,2.063502,15.58135441,3.245670729,crawl
27/03/2021, 15:25:13,1.7483643,0.41912845,8.198153,-2.995682,-1.3500117,-1.1410959,8.392982282,3.478324605,crawl
27/03/2021, 15:25:13,0.61073,-0.21794678,7.9562554,-2.995682,-1.3500117,-1.1410959,7.982636938,3.478324605,crawl
27/03/2021, 15:25:13,0.61073,-0.21794678,7.9562554,-3.499035,-1.5479319,-1.298699,7.982636938,4.040539252,crawl
27/03/2021, 15:25:13,0.11256592,-0.9388477,7.4940166,-3.499035,-1.5479319,-1.298699,7.553435751,4.040539252,crawl
27/03/2021, 15:25:13,0.11256592,-0.9388477,7.4940166,-3.9022057,-1.7092003,-1.5833621,7.553435751,4.544844382,crawl
27/03/2021, 15:25:13,-0.57719976,-2.0429518,7.3479204,-3.9022057,-1.7092003,-1.5833621,7.648447305,4.544844382,crawl
27/03/2021, 15:25:13,-0.57719976,-2.0429518,7.3479204,-4.200308,-1.8851295,-1.9071206,7.648447305,4.983312952,crawl
27/03/2021, 15:25:13,-0.8669971,-3.410508,7.213799,-4.200308,-1.8851295,-1.9071206,8.026340653,4.983312952,crawl
27/03/2021, 15:25:13,-0.8669971,-3.410508,7.213799,-4.4006715,-2.0354023,-2.180788,8.026340653,5.316446979,crawl
27/03/2021, 15:25:13,-0.6011499,-4.6583133,7.577842,-4.4006715,-2.0354023,-2.180788,8.915433626,5.316446979,crawl
27/03/2021, 15:25:13,-0.6011499,-4.6583133,7.577842,-4.47031,-2.1038191,-2.3689346,8.915433626,5.479195161,crawl
27/03/2021, 15:25:13,0.17004639,-5.4342995,8.234077,-4.47031,-2.1038191,-2.3689346,9.867145383,5.479195161,crawl
27/03/2021, 15:25:13,0.17004639,-5.4342995,8.234077,-4.376237,-2.023185,-2.4923294,9.867145383,5.427378076,crawl
27/03/2021, 15:25:13,1.3268409,-5.8198977,9.163345,-4.376237,-2.023185,-2.4923294,10.93611509,5.427378076,crawl
27/03/2021, 15:25:13,1.3268409,-5.8198977,9.163345,-4.1954207,-1.877799,-2.6597064,10.93611509,5.310529381,crawl
27/03/2021, 15:25:13,2.3638844,-6.11688,9.733359,-4.1954207,-1.877799,-2.6597064,11.73637311,5.310529381,crawl
27/03/2021, 15:25:13,2.3638844,-6.11688,9.733359,-4.0659175,-1.7201959,-2.883283,11.73637311,5.272957351,crawl
27/03/2021, 15:25:13,2.9817994,-6.0522146,9.462723,-4.0659175,-1.7201959,-2.883283,11.62168455,5.272957351,crawl
27/03/2021, 15:25:13,2.9817994,-6.0522146,9.462723,-3.9241967,-1.5968012,-3.1447332,11.62168455,5.276214617,crawl
27/03/2021, 15:25:13,3.163821,-5.985154,9.223221,-3.9241967,-1.5968012,-3.1447332,11.44113787,5.276214617,crawl
27/03/2021, 15:25:14,-2.3974147,1.1903248,12.169095,0.72204244,-1.5210539,1.117883,12.45998974,2.021042457,crawl
27/03/2021, 15:25:14,-2.064507,1.8130299,12.008629,0.72204244,-1.5210539,1.117883,12.31894611,2.021042457,crawl
27/03/2021, 15:25:14,-2.064507,1.8130299,12.008629,0.9676102,-1.543045,1.266934,12.31894611,2.218643577,crawl
27/03/2021, 15:25:14,-1.6813037,1.7699195,11.778707,0.9676102,-1.543045,1.266934,12.02902013,2.218643577,crawl
27/03/2021, 15:25:14,-1.6813037,1.7699195,11.778707,1.3084729,-1.5406016,1.2815948,12.02902013,2.39333234,crawl
27/03/2021, 15:25:14,-2.304009,0.6514453,11.960728,1.3084729,-1.5406016,1.2815948,12.19802628,2.39333234,crawl
27/03/2021, 15:25:14,-2.304009,0.6514453,11.960728,1.6982048,-1.5063931,1.4550805,12.19802628,2.696363992,crawl
27/03/2021, 15:25:14,-3.3985329,1.0178833,11.936778,1.6982048,-1.5063931,1.4550805,12.45282228,2.696363992,crawl
27/03/2021, 15:25:14,-3.3985329,1.0178833,11.936778,2.0488412,-1.4941758,1.6151271,12.45282228,3.006484196,crawl
27/03/2021, 15:25:14,-3.1925611,1.1160791,11.903248,2.0488412,-1.4941758,1.6151271,12.37438436,3.006484196,crawl
27/03/2021, 15:25:14,-3.1925611,1.1160791,11.903248,2.2809699,-1.4355328,1.665218,12.37438436,3.168048123,crawl
27/03/2021, 15:25:14,-3.2524366,2.1531227,11.675721,2.2809699,-1.4355328,1.665218,12.31002624,3.168048123,crawl
27/03/2021, 15:25:14,-3.2524366,2.1531227,11.675721,2.326174,-1.3732245,1.8277081,12.31002624,3.261494762,crawl
27/03/2021, 15:25:14,-2.6129665,3.5206788,10.665023,2.326174,-1.3732245,1.8277081,11.5310661,3.261494762,crawl
27/03/2021, 15:25:14,-2.6129665,3.5206788,10.665023,2.1600187,-1.3878853,1.9498811,11.5310661,3.223963805,crawl
27/03/2021, 15:25:14,-2.0046315,4.033213,10.775193,2.1600187,-1.3878853,1.9498811,11.67861912,3.223963805,crawl
27/03/2021, 15:25:14,-2.0046315,4.033213,10.775193,1.8863511,-1.3109163,2.023185,11.67861912,3.061061853,crawl
27/03/2021, 15:25:14,-1.3148658,4.6750784,10.41115,1.8863511,-1.3109163,2.023185,11.48813623,3.061061853,crawl
27/03/2021, 15:25:14,-1.3148658,4.6750784,10.41115,1.7092003,-1.2156214,2.0964887,11.48813623,2.965529588,crawl
27/03/2021, 15:25:14,-0.85741705,4.8594947,10.111773,1.7092003,-1.2156214,2.0964887,11.25156862,2.965529588,crawl
27/03/2021, 15:25:15,-8.552615,-7.5179667,5.752837,0.07208207,1.9694288,0.3457496,12.75782841,2.000846899,crawl
27/03/2021, 15:25:15,-8.413704,-5.997129,5.3241286,0.07208207,1.9694288,0.3457496,11.62335214,2.000846899,crawl
27/03/2021, 15:25:15,-8.413704,-5.997129,5.3241286,-0.11484262,1.9828678,0.48747027,11.62335214,2.045135925,crawl
27/03/2021, 15:25:15,-7.932305,-4.8906302,5.237908,-0.11484262,1.9828678,0.48747027,10.68996743,2.045135925,crawl
27/03/2021, 15:25:15,-7.932305,-4.8906302,5.237908,-0.49724412,2.1074843,0.5803218,10.68996743,2.241766121,crawl
27/03/2021, 15:25:15,-7.7622585,-3.7003052,5.841453,-0.49724412,2.1074843,0.5803218,10.39555146,2.241766121,crawl
27/03/2021, 15:25:15,-7.7622585,-3.7003052,5.841453,-0.4850268,2.2895222,0.8710935,10.39555146,2.497191759,crawl
27/03/2021, 15:25:15,-9.340576,-3.9757326,4.4427614,-0.4850268,2.2895222,0.8710935,11.08110742,2.497191759,crawl
27/03/2021, 15:25:15,-9.340576,-3.9757326,4.4427614,-0.3176498,2.461786,1.1508697,11.08110742,2.736017726,crawl
27/03/2021, 15:25:15,-8.739427,-4.493057,5.1732426,-0.3176498,2.461786,1.1508697,11.10529493,2.736017726,crawl
27/03/2021, 15:25:15,-8.739427,-4.493057,5.1732426,-0.1869247,2.642602,1.4037678,11.10529493,2.998141108,crawl
27/03/2021, 15:25:15,-8.801697,-4.7972245,5.621111,-0.1869247,2.642602,1.4037678,11.49261142,2.998141108,crawl
27/03/2021, 15:25:15,-8.801697,-4.7972245,5.621111,0.018325951,2.7000234,1.6517789,11.49261142,3.16525448,crawl
27/03/2021, 15:25:15,-9.558523,-6.318062,6.71324,0.018325951,2.7000234,1.6517789,13.27971626,3.16525448,crawl
27/03/2021, 15:25:15,-9.558523,-6.318062,6.71324,0.34697133,2.8295267,1.8704686,13.27971626,3.409584005,crawl
27/03/2021, 15:25:15,-11.915223,-6.8928666,7.7143583,0.34697133,2.8295267,1.8704686,15.77959051,3.409584005,crawl
27/03/2021, 15:25:15,-11.915223,-6.8928666,7.7143583,0.6450735,2.8454092,2.0708325,15.77959051,3.577823396,crawl
27/03/2021, 15:25:15,-13.814473,-6.12646,6.607859,0.6450735,2.8454092,2.0708325,16.4935437,3.577823396,crawl
27/03/2021, 15:25:15,-13.814473,-6.12646,6.607859,0.7134903,2.9236,2.244318,16.4935437,3.754126857,crawl
27/03/2021, 15:25:15,-12.997771,-4.84752,6.828201,0.7134903,2.9236,2.244318,15.46172155,3.754126857,crawl
27/03/2021, 15:25:16,0.07664063,4.6654983,6.74198,-7.0029564,-3.072651,0.81245047,8.199209908,7.690426359,crawl
27/03/2021, 15:25:16,0.5245093,3.6284547,4.3062453,-7.0029564,-3.072651,0.81245047,5.655487798,7.690426359,crawl
27/03/2021, 15:25:16,0.5245093,3.6284547,4.3062453,-5.9033995,-3.362201,0.66950804,5.655487798,6.826621543,crawl
27/03/2021, 15:25:16,1.7938697,0.023950197,3.2452517,-5.9033995,-3.362201,0.66950804,3.708126285,6.826621543,crawl
27/03/2021, 15:25:16,1.7938697,0.023950197,3.2452517,-5.3548427,-3.4171789,0.75747263,3.708126285,6.397281935,crawl
27/03/2021, 15:25:16,4.24637,-1.9830762,4.3301954,-5.3548427,-3.4171789,0.75747263,6.38081817,6.397281935,crawl
27/03/2021, 15:25:16,4.24637,-1.9830762,4.3301954,-4.9565587,-3.014008,0.5815435,6.38081817,5.830086752,crawl
27/03/2021, 15:25:16,6.662945,-2.5770411,8.205338,-4.9565587,-3.014008,0.5815435,10.87950083,5.830086752,crawl
27/03/2021, 15:25:16,6.662945,-2.5770411,8.205338,-4.234516,-2.493551,0.02321287,10.87950083,4.91421026,crawl
27/03/2021, 15:25:16,7.0030375,-3.5853443,8.813672,-4.234516,-2.493551,0.02321287,11.81431516,4.91421026,crawl
27/03/2021, 15:25:16,5.144502,-4.3062453,8.971744,-4.234516,-2.493551,0.02321287,11.20276012,4.91421026,crawl
27/03/2021, 15:25:16,5.144502,-4.3062453,8.971744,-3.733607,-2.1832316,-0.45570529,11.20276012,4.349021628,crawl
27/03/2021, 15:25:16,5.144502,-4.3062453,8.971744,-3.2546887,-2.21744,-0.81000704,11.20276012,4.020715093,crawl
27/03/2021, 15:25:16,3.3266823,-3.906277,9.649534,-3.2546887,-2.21744,-0.81000704,10.92883002,4.020715093,crawl
27/03/2021, 15:25:16,3.3266823,-3.906277,9.649534,-2.610837,-2.403143,-1.266934,10.92883002,3.767849193,crawl
27/03/2021, 15:25:16,1.6549586,-2.9794044,10.748848,-2.610837,-2.403143,-1.266934,11.2762348,3.767849193,crawl
27/03/2021, 15:25:16,1.6549586,-2.9794044,10.748848,-1.9303335,-2.4397948,-1.7715086,11.2762348,3.580087791,crawl
27/03/2021, 15:25:16,1.2502003,-1.4298267,10.403965,-1.9303335,-2.4397948,-1.7715086,10.57591097,3.580087791,crawl
27/03/2021, 15:25:16,1.2502003,-1.4298267,10.403965,-1.5259408,-2.2883003,-2.213775,10.57591097,3.530667472,crawl
27/03/2021, 15:25:16,1.0729688,1.1376343,11.074571,-1.5259408,-2.2883003,-2.213775,11.18443513,3.530667472,crawl
27/03/2021, 15:25:17,-3.5925295,1.3939015,8.804092,1.5687014,-1.7592913,1.5833621,9.610477245,2.83953613,crawl
27/03/2021, 15:25:17,-2.5842261,2.1219873,12.751084,1.5687014,-1.7592913,1.5833621,13.18223071,2.83953613,crawl
27/03/2021, 15:25:17,-2.5842261,2.1219873,12.751084,1.4734064,-1.8582513,1.5906925,13.18223071,2.855578266,crawl
27/03/2021, 15:25:17,-2.7231374,1.5687379,12.228971,1.4734064,-1.8582513,1.5906925,12.62632709,2.855578266,crawl
27/03/2021, 15:25:17,-2.7231374,1.5687379,12.228971,1.5161669,-1.909564,1.5784752,12.62632709,2.904613737,crawl
27/03/2021, 15:25:17,-3.6907253,-0.014370117,11.443404,1.5161669,-1.909564,1.5784752,12.02385793,2.904613737,crawl
27/03/2021, 15:25:17,-3.6907253,-0.014370117,11.443404,1.7116438,-1.8863511,1.6554441,12.02385793,3.037851276,crawl
27/03/2021, 15:25:17,-3.3817677,-0.043110352,11.520044,1.7116438,-1.8863511,1.6554441,12.00623309,3.037851276,crawl
27/03/2021, 15:25:17,-3.3817677,-0.043110352,11.520044,1.973094,-1.8154908,1.7934997,12.00623309,3.225794178,crawl
27/03/2021, 15:25:17,-3.0081446,0.8334668,11.335628,1.973094,-1.8154908,1.7934997,11.75755302,3.225794178,crawl
27/03/2021, 15:25:17,-3.0081446,0.8334668,11.335628,2.0476196,-1.6542225,1.9303335,11.75755302,3.264258782,crawl
27/03/2021, 15:25:17,-1.6884888,2.8572583,10.672208,2.0476196,-1.6542225,1.9303335,11.17635628,3.264258782,crawl
27/03/2021, 15:25:17,-1.6884888,2.8572583,10.672208,1.9364421,-1.4929541,2.0573933,11.17635628,3.195557454,crawl
27/03/2021, 15:25:17,-0.90052736,4.5768824,10.418335,1.9364421,-1.4929541,2.0573933,11.41492466,3.195557454,crawl
27/03/2021, 15:25:17,-0.90052736,4.5768824,10.418335,1.5735883,-1.4245372,2.1123712,11.41492466,2.994594844,crawl
27/03/2021, 15:25:17,-0.004790039,5.52052,9.984837,1.5735883,-1.4245372,2.1123712,11.40934388,2.994594844,crawl
27/03/2021, 15:25:17,-0.004790039,5.52052,9.984837,1.1252134,-1.4477501,2.0195198,11.40934388,2.727736376,crawl
27/03/2021, 15:25:17,0.30416748,4.87626,10.289004,1.1252134,-1.4477501,2.0195198,11.39008505,2.727736376,crawl
27/03/2021, 15:25:17,0.30416748,4.87626,10.289004,0.6805036,-1.3903288,1.882686,11.39008505,2.437335816,crawl
27/03/2021, 15:25:17,-0.047900394,3.9517825,10.327325,0.6805036,-1.3903288,1.882686,11.05769045,2.437335816,crawl
27/03/2021, 15:25:18,-11.900852,-1.5519727,1.2334352,-0.4031709,2.7501142,-0.2651154,12.06483588,2.792124835,crawl
27/03/2021, 15:25:18,-12.1235895,-1.8465601,1.1855347,-0.4031709,2.7501142,-0.2651154,12.32058033,2.792124835,crawl
27/03/2021, 15:25:18,-12.1235895,-1.8465601,1.1855347,-0.321315,2.8564048,-0.32009327,12.32058033,2.892187978,crawl
27/03/2021, 15:25:18,-14.176121,-2.668052,0.974773,-0.321315,2.8564048,-0.32009327,14.4579073,2.892187978,crawl
27/03/2021, 15:25:18,-14.176121,-2.668052,0.974773,-0.14782934,2.8771741,-0.11972954,14.4579073,2.883456208,crawl
27/03/2021, 15:25:18,-15.622713,-3.4488282,0.74724615,-0.14782934,2.8771741,-0.11972954,16.01630286,2.883456208,crawl
27/03/2021, 15:25:18,-15.622713,-3.4488282,0.74724615,0.11484262,2.9333737,0.15760317,16.01630286,2.93984843,crawl
27/03/2021, 15:25:18,-17.392633,-2.4213648,-0.26584718,0.11484262,2.9333737,0.15760317,17.56238537,2.93984843,crawl
27/03/2021, 15:25:18,-17.392633,-2.4213648,-0.26584718,0.32375845,3.0201166,0.45692703,17.56238537,3.071596642,crawl
27/03/2021, 15:25:18,-17.385448,-0.90052736,0.06706055,0.32375845,3.0201166,0.45692703,17.40888465,3.071596642,crawl
27/03/2021, 15:25:18,-17.385448,-0.90052736,0.06706055,0.5424481,3.0897553,0.68905574,17.40888465,3.211796312,crawl
27/03/2021, 15:25:18,-19.48109,-0.5724097,-1.8824854,0.5424481,3.0897553,0.68905574,19.58020156,3.211796312,crawl
27/03/2021, 15:25:18,-19.48109,-0.5724097,-1.8824854,0.58643043,3.0897553,0.8393285,19.58020156,3.254990141,crawl
27/03/2021, 15:25:18,-21.636608,0.12693603,-1.5519727,0.58643043,3.0897553,0.8393285,21.69256885,3.254990141,crawl
27/03/2021, 15:25:18,-21.636608,0.12693603,-1.5519727,0.48747027,3.330436,0.72448593,21.69256885,3.443009007,crawl
27/03/2021, 15:25:18,-19.70622,-1.5088624,-0.728086,0.48747027,3.330436,0.72448593,19.77730786,3.443009007,crawl
27/03/2021, 15:25:18,-19.70622,-1.5088624,-0.728086,0.38851014,3.4330614,0.8222243,19.77730786,3.551464947,crawl
27/03/2021, 15:25:18,-19.449955,-0.6466553,-0.6227051,0.38851014,3.4330614,0.8222243,19.47066187,3.551464947,crawl
27/03/2021, 15:25:18,-19.449955,-0.6466553,-0.6227051,0.19792026,3.4550526,1.0067055,19.47066187,3.604166617,crawl
27/03/2021, 15:25:18,-16.654966,0.9053174,0.97237796,0.19792026,3.4550526,1.0067055,16.70787308,3.604166617,crawl
27/03/2021, 15:25:19,5.384004,-13.574971,6.8880763,-5.358508,0.22113313,-5.379277,16.14660765,7.595994506,crawl
27/03/2021, 15:25:19,5.4750147,-14.559324,6.351592,-5.358508,0.22113313,-5.379277,16.80156036,7.595994506,crawl
27/03/2021, 15:25:19,5.4750147,-14.559324,6.351592,-4.410445,0.475253,-5.778783,16.80156036,7.285068534,crawl
27/03/2021, 15:25:19,4.5625124,-15.713724,6.0593996,-4.410445,0.475253,-5.778783,17.44860938,7.285068534,crawl
27/03/2021, 15:25:19,4.5625124,-15.713724,6.0593996,-3.516139,0.8991933,-6.10132,17.44860938,7.09914681,crawl
27/03/2021, 15:25:19,2.9794044,-16.700472,5.831873,-3.516139,0.8991933,-6.10132,17.93859955,7.09914681,crawl
27/03/2021, 15:25:19,2.9794044,-16.700472,5.831873,-2.679254,1.2486081,-6.4165263,17.93859955,7.064646806,crawl
27/03/2021, 15:25:19,0.76161623,-16.659756,6.128855,-2.679254,1.2486081,-6.4165263,17.76767812,7.064646806,crawl
27/03/2021, 15:25:19,0.76161623,-16.659756,6.128855,-1.8472558,1.3475683,-6.747615,17.76767812,7.124507046,crawl
27/03/2021, 15:25:19,-1.5423926,-16.00831,5.43909,-1.8472558,1.3475683,-6.747615,16.97729872,7.124507046,crawl
27/03/2021, 15:25:19,-1.5423926,-16.00831,5.43909,-1.1349872,1.3377944,-7.072595,16.97729872,7.286939801,crawl
27/03/2021, 15:25:19,-3.2524366,-15.203585,4.4691067,-1.1349872,1.3377944,-7.072595,16.17715196,7.286939801,crawl
27/03/2021, 15:25:19,-3.2524366,-15.203585,4.4691067,-0.7159338,1.3133597,-7.370697,16.17715196,7.520947386,crawl
27/03/2021, 15:25:19,-4.679868,-14.386883,3.66438,-0.7159338,1.3133597,-7.370697,15.56634974,7.520947386,crawl
27/03/2021, 15:25:19,-4.679868,-14.386883,3.66438,-0.53633946,1.2632688,-7.5881653,15.56634974,7.711274896,crawl
27/03/2021, 15:25:19,-5.264253,-13.48396,2.2752686,-0.53633946,1.2632688,-7.5881653,14.65286284,7.711274896,crawl
27/03/2021, 15:25:19,-5.264253,-13.48396,2.2752686,-0.3652973,1.1215482,-7.6822386,14.65286284,7.772264921,crawl
27/03/2021, 15:25:19,-4.6846585,-13.088782,1.5016773,-0.3652973,1.1215482,-7.6822386,13.98274946,7.772264921,crawl
27/03/2021, 15:25:19,-4.6846585,-13.088782,1.5016773,-0.19792026,0.82588947,-7.748212,13.98274946,7.794616917,crawl
27/03/2021, 15:25:19,-2.7063723,-14.087505,1.3004956,-0.19792026,0.82588947,-7.748212,14.40394204,7.794616917,crawl
27/03/2021, 15:25:20,0.29937744,4.6942387,3.5685792,-2.4226906,0.26022848,1.5564841,5.904257867,2.891330406,crawl
27/03/2021, 15:25:20,1.575923,2.9410841,3.6931202,-2.4226906,0.26022848,1.5564841,4.977212701,2.891330406,crawl
27/03/2021, 15:25:20,1.575923,2.9410841,3.6931202,-2.8356354,0.24556774,1.6102402,4.977212701,3.270169008,crawl
27/03/2021, 15:25:20,1.2861255,-0.13172609,4.4403663,-2.8356354,0.24556774,1.6102402,4.624751157,3.270169008,crawl
27/03/2021, 15:25:20,1.2861255,-0.13172609,4.4403663,-2.5827372,0.34330612,1.5955794,4.624751157,3.055202801,crawl
27/03/2021, 15:25:20,-0.728086,-2.4908204,5.5229154,-2.5827372,0.34330612,1.5955794,6.10220367,3.055202801,crawl
27/03/2021, 15:25:20,-0.728086,-2.4908204,5.5229154,-1.7898345,0.5009093,1.5406016,6.10220367,2.414098385,crawl
27/03/2021, 15:25:20,-1.7148341,-3.9302273,5.975574,-1.7898345,0.5009093,1.5406016,7.354918577,2.414098385,crawl
27/03/2021, 15:25:20,-1.7148341,-3.9302273,5.975574,-0.9761623,0.6181954,1.4721847,7.354918577,1.871466297,crawl
27/03/2021, 15:25:20,-1.6262183,-2.8764186,6.3132715,-0.9761623,0.6181954,1.4721847,7.125711701,1.871466297,crawl
27/03/2021, 15:25:20,-1.6262183,-2.8764186,6.3132715,-0.31887153,0.6157519,1.330464,7.125711701,1.500321283,crawl
27/03/2021, 15:25:20,-0.059875492,-2.411785,6.0522146,-0.31887153,0.6157519,1.330464,6.515335237,1.500321283,crawl
27/03/2021, 15:25:20,-0.059875492,-2.411785,6.0522146,0.122173004,0.5778783,1.126435,6.515335237,1.271898373,crawl
27/03/2021, 15:25:20,1.2789404,-3.300337,5.029541,0.122173004,0.5778783,1.126435,6.150137908,1.271898373,crawl
27/03/2021, 15:25:20,1.2789404,-3.300337,5.029541,0.6133085,0.6670646,0.95905805,6.150137908,1.319437315,crawl
27/03/2021, 15:25:20,1.6405884,-4.272715,4.754114,0.6133085,0.6670646,0.95905805,6.599183732,1.319437315,crawl
27/03/2021, 15:25:20,1.6405884,-4.272715,4.754114,1.0580182,0.8918629,0.796568,6.599183732,1.596666074,crawl
27/03/2021, 15:25:20,1.2837305,-3.9350173,4.727769,1.0580182,0.8918629,0.796568,6.283639414,1.596666074,crawl
27/03/2021, 15:25:20,1.2837305,-3.9350173,4.727769,1.1423175,1.1374307,0.64018655,6.283639414,1.734496091,crawl
27/03/2021, 15:25:20,0.07424561,-2.42855,2.680027,1.1423175,1.1374307,0.64018655,3.617445549,1.734496091,crawl
27/03/2021, 15:25:21,-14.274317,-1.1831397,-7.647298,-5.8398695,0.764803,2.3554955,16.23690561,6.34329238,crawl
27/03/2021, 15:25:21,-14.274317,-1.1831397,-7.647298,-6.018242,0.6096433,2.3970344,16.23690561,6.506663833,crawl
27/03/2021, 15:25:21,-14.614409,-1.0490186,-7.8029737,-6.018242,0.6096433,2.3970344,16.60023502,6.506663833,crawl
27/03/2021, 15:25:21,-14.614409,-1.0490186,-7.8029737,-5.987699,0.533896,2.3200653,16.60023502,6.443623784,crawl
27/03/2021, 15:25:21,-13.35942,-1.2046949,-10.47821,-5.987699,0.533896,2.3200653,17.02111283,6.443623784,crawl
27/03/2021, 15:25:21,-13.35942,-1.2046949,-10.47821,-6.1624064,0.5644393,2.548529,17.02111283,6.692446825,crawl
27/03/2021, 15:25:21,-11.903248,0.7376661,-9.520203,-6.1624064,0.5644393,2.548529,15.25993835,6.692446825,crawl
27/03/2021, 15:25:21,-11.903248,0.7376661,-9.520203,-6.3920913,0.77946377,2.6450455,15.25993835,6.961512797,crawl
27/03/2021, 15:25:21,-9.448353,4.30385,-7.5131764,-6.3920913,0.77946377,2.6450455,12.81570589,6.961512797,crawl
27/03/2021, 15:25:21,-9.448353,4.30385,-7.5131764,-6.5154862,1.091005,2.3225088,12.81570589,7.002563814,crawl
27/03/2021, 15:25:21,-10.753638,2.5075855,-6.6916847,-6.5154862,1.091005,2.3225088,12.91152065,7.002563814,crawl
27/03/2021, 15:25:21,-10.753638,2.5075855,-6.6916847,-6.3420005,1.131322,1.8814642,12.91152065,6.711241865,crawl
27/03/2021, 15:25:21,-15.409556,-2.8668385,-4.703819,-6.3420005,1.131322,1.8814642,16.3645685,6.711241865,crawl
27/03/2021, 15:25:21,-15.409556,-2.8668385,-4.703819,-5.849643,1.0409139,2.0476196,16.3645685,6.284470837,crawl
27/03/2021, 15:25:21,-16.180752,-6.976692,-1.4178516,-5.849643,1.0409139,2.0476196,17.67770534,6.284470837,crawl
27/03/2021, 15:25:21,-16.180752,-6.976692,-1.4178516,-5.3523993,0.80389833,2.4275775,17.67770534,5.931910638,crawl
27/03/2021, 15:25:21,-14.173726,-2.5099807,-2.0333717,-5.3523993,0.80389833,2.4275775,14.53716322,5.931910638,crawl
27/03/2021, 15:25:21,-14.173726,-2.5099807,-2.0333717,-5.137375,0.47158778,2.2773046,14.53716322,5.639249253,crawl
27/03/2021, 15:25:21,-9.505833,0.5604346,-2.2273684,-5.137375,0.47158778,2.2773046,9.779371733,5.639249253,crawl
27/03/2021, 15:25:21,-9.505833,0.5604346,-2.2273684,-5.5014505,0.04520401,2.0720541,9.779371733,5.878895289,crawl
27/03/2021, 15:25:22,-18.226099,8.116721,8.035291,0.75502914,-1.1191047,0.8906412,21.50901542,1.617314503,crawl
27/03/2021, 15:25:22,-22.522764,13.99889,4.617598,0.75502914,-1.1191047,0.8906412,26.91776436,1.617314503,crawl
27/03/2021, 15:25:22,-22.522764,13.99889,4.617598,-0.22602005,-1.5674796,0.7611378,26.91776436,1.757102194,crawl
27/03/2021, 15:25:22,-23.923851,12.506792,11.170372,-0.22602005,-1.5674796,0.7611378,29.21553878,1.757102194,crawl
27/03/2021, 15:25:22,-23.923851,12.506792,11.170372,0.06597342,-1.6371182,1.0775659,29.21553878,1.961034637,crawl
27/03/2021, 15:25:22,-22.56348,3.0201197,7.2616997,0.06597342,-1.6371182,1.0775659,23.89485408,1.961034637,crawl
27/03/2021, 15:25:22,-22.56348,3.0201197,7.2616997,0.48869202,-1.9217813,1.6004664,23.89485408,2.548245644,crawl
27/03/2021, 15:25:22,-17.002245,6.662945,11.373948,0.48869202,-1.9217813,1.6004664,21.51366686,2.548245644,crawl
27/03/2021, 15:25:22,-17.002245,6.662945,11.373948,0.22968525,-2.2492049,1.6920961,21.51366686,2.823980725,crawl
27/03/2021, 15:25:22,-14.197677,8.440049,10.789563,0.22968525,-2.2492049,1.6920961,19.72873858,2.823980725,crawl
27/03/2021, 15:25:22,-14.197677,8.440049,10.789563,-0.13194685,-2.5741851,1.9608767,19.72873858,3.238653503,crawl
27/03/2021, 15:25:22,-14.71979,4.734954,13.043277,-0.13194685,-2.5741851,1.9608767,20.22916431,3.238653503,crawl
27/03/2021, 15:25:22,-14.71979,4.734954,13.043277,-0.5131266,-2.7391188,2.0842714,20.22916431,3.479979626,crawl
27/03/2021, 15:25:22,-13.546231,9.81958,10.636282,-0.5131266,-2.7391188,2.0842714,19.82561547,3.479979626,crawl
27/03/2021, 15:25:22,-13.546231,9.81958,10.636282,-1.2058475,-2.9614735,2.2235487,19.82561547,3.894683798,crawl
27/03/2021, 15:25:22,-13.335469,7.831714,9.690249,-1.2058475,-2.9614735,2.2235487,18.25024441,3.894683798,crawl
27/03/2021, 15:25:22,-13.335469,7.831714,9.690249,-1.6261227,-3.0262253,2.3689346,18.25024441,4.173028409,crawl
27/03/2021, 15:25:22,-12.430152,6.08814,8.404124,-1.6261227,-3.0262253,2.3689346,16.19269683,4.173028409,crawl
27/03/2021, 15:25:22,-12.430152,6.08814,8.404124,-2.053728,-2.9749126,2.5143204,16.19269683,4.40337499,crawl
27/03/2021, 15:25:22,-11.577525,8.923843,10.602752,-2.053728,-2.9749126,2.5143204,18.05802906,4.40337499,crawl
27/03/2021, 15:25:23,-12.985797,-10.712923,4.773274,-1.601688,2.7207928,-2.371378,17.49805093,3.948613832,crawl
27/03/2021, 15:25:23,-12.985797,-10.712923,4.773274,-1.2327256,2.6364934,-2.3591607,17.49805093,3.746511599,crawl
27/03/2021, 15:25:23,-12.25292,-10.928474,4.9696655,-1.2327256,2.6364934,-2.3591607,17.154101,3.746511599,crawl
27/03/2021, 15:25:23,-12.25292,-10.928474,4.9696655,-0.8295547,2.660928,-2.3689346,17.154101,3.657943429,crawl
27/03/2021, 15:25:23,-12.430152,-9.369317,4.2248144,-0.8295547,2.660928,-2.3689346,16.12891305,3.657943429,crawl
27/03/2021, 15:25:23,-12.430152,-9.369317,4.2248144,-0.5424481,2.724458,-2.3115132,16.12891305,3.613864197,crawl
27/03/2021, 15:25:23,-13.898299,-7.455696,2.694397,-0.5424481,2.724458,-2.3115132,16.00030939,3.613864197,crawl
27/03/2021, 15:25:23,-13.898299,-7.455696,2.694397,-0.6340779,2.7403405,-2.3725996,16.00030939,3.679775749,crawl
27/03/2021, 15:25:23,-16.044237,-7.151529,1.2885206,-0.6340779,2.7403405,-2.3725996,17.61312565,3.679775749,crawl
27/03/2021, 15:25:23,-16.044237,-7.151529,1.2885206,-0.8979716,2.773327,-2.357939,17.61312565,3.749342951,crawl
27/03/2021, 15:25:23,-18.439257,-5.8749833,0.28979737,-0.8979716,2.773327,-2.357939,19.35473063,3.749342951,crawl
27/03/2021, 15:25:23,-18.439257,-5.8749833,0.28979737,-1.1838564,2.851518,-2.2565353,19.35473063,3.824215194,crawl
27/03/2021, 15:25:23,-20.633095,-5.029541,-0.81909674,-1.1838564,2.851518,-2.2565353,21.2530422,3.824215194,crawl
27/03/2021, 15:25:23,-20.633095,-5.029541,-0.81909674,-1.4917324,2.851518,-2.1062624,21.2530422,3.846135898,crawl
27/03/2021, 15:25:23,-22.403013,-5.2834134,-1.0106983,-1.4917324,2.851518,-2.1062624,23.03976932,3.846135898,crawl
27/03/2021, 15:25:23,-22.403013,-5.2834134,-1.0106983,-1.4013244,2.8845046,-1.7825041,23.03976932,3.668977703,crawl
27/03/2021, 15:25:23,-19.746937,-5.2905984,-0.16286133,-1.4013244,2.8845046,-1.7825041,20.44403258,3.668977703,crawl
27/03/2021, 15:25:23,-19.746937,-5.2905984,-0.16286133,-0.8527676,3.0714293,-1.4037678,20.44403258,3.483023732,crawl
27/03/2021, 15:25:23,-16.104113,-2.9338992,0.016765138,-0.8527676,3.0714293,-1.4037678,16.36919329,3.483023732,crawl
27/03/2021, 15:25:23,-16.104113,-2.9338992,0.016765138,-0.17959431,3.2021544,-1.067792,16.36919329,3.380270223,crawl
27/03/2021, 15:25:24,4.8115945,-9.366921,7.1874537,-5.226561,-2.7293448,-5.0701795,12.74951567,7.776437724,crawl
27/03/2021, 15:25:24,4.8115945,-9.366921,7.1874537,-5.0811753,-2.63405,-5.448916,12.74951567,7.902357032,crawl
27/03/2021, 15:25:24,3.788921,-10.545272,6.1408305,-5.0811753,-2.63405,-5.448916,12.77765556,7.902357032,crawl
27/03/2021, 15:25:24,3.788921,-10.545272,6.1408305,-4.8246117,-2.3945909,-5.769009,12.77765556,7.892554036,crawl
27/03/2021, 15:25:24,2.7207422,-11.0123005,6.1528053,-4.8246117,-2.3945909,-5.769009,12.90465861,7.892554036,crawl
27/03/2021, 15:25:24,2.7207422,-11.0123005,6.1528053,-4.408002,-2.0842714,-6.0927677,12.90465861,7.803620095,crawl
27/03/2021, 15:25:24,1.7771046,-11.488909,5.831873,-4.408002,-2.0842714,-6.0927677,13.00630107,7.803620095,crawl
27/03/2021, 15:25:24,1.7771046,-11.488909,5.831873,-4.001166,-1.8655818,-6.4886084,13.00630107,7.848041922,crawl
27/03/2021, 15:25:24,1.0753639,-12.19544,4.493057,-4.001166,-1.8655818,-6.4886084,13.0411936,7.848041922,crawl
27/03/2021, 15:25:24,1.0753639,-12.19544,4.493057,-3.6676335,-1.7397436,-6.900331,13.0411936,8.005798629,crawl
27/03/2021, 15:25:24,0.79754156,-13.172608,4.414021,-3.6676335,-1.7397436,-6.900331,13.91536077,8.005798629,crawl
27/03/2021, 15:25:24,0.79754156,-13.172608,4.414021,-3.4562743,-1.6920961,-7.2656283,13.91536077,8.22182317,crawl
27/03/2021, 15:25:24,0.6394702,-14.331798,3.8320315,-3.4562743,-1.6920961,-7.2656283,14.84903397,8.22182317,crawl
27/03/2021, 15:25:24,0.6394702,-14.331798,3.8320315,-3.338988,-1.6664398,-7.5246353,14.84903397,8.399166592,crawl
27/03/2021, 15:25:24,0.6610254,-14.03242,4.253555,-3.338988,-1.6664398,-7.5246353,14.67782336,8.399166592,crawl
27/03/2021, 15:25:24,0.6610254,-14.03242,4.253555,-3.035999,-1.6200141,-7.7457685,14.67782336,8.475769361,crawl
27/03/2021, 15:25:24,1.1951149,-13.004956,4.2296047,-3.035999,-1.6200141,-7.7457685,13.72759056,8.475769361,crawl
27/03/2021, 15:25:24,1.1951149,-13.004956,4.2296047,-2.6242762,-1.538158,-8.034097,13.72759056,8.590661538,crawl
27/03/2021, 15:25:24,1.7459693,-12.212205,5.1732426,-2.6242762,-1.538158,-8.034097,13.37717447,8.590661538,crawl
27/03/2021, 15:25:24,1.7459693,-12.212205,5.1732426,-2.24554,-1.4110981,-8.343194,13.37717447,8.754572155,crawl
27/03/2021, 15:25:25,0.20357667,2.4668703,3.4895437,-2.769662,-0.28466308,0.8747587,4.278294946,2.918435017,crawl
27/03/2021, 15:25:25,-1.1304493,2.924319,1.5639478,-2.769662,-0.28466308,0.8747587,3.503639551,2.918435017,crawl
27/03/2021, 15:25:25,-1.1304493,2.924319,1.5639478,-2.9651387,-0.33108884,0.84788066,3.503639551,3.101704175,crawl
27/03/2021, 15:25:25,-1.9950514,2.4165747,1.5663428,-2.9651387,-0.33108884,0.84788066,3.503354571,3.101704175,crawl
27/03/2021, 15:25:25,-1.9950514,2.4165747,1.5663428,-2.8625135,-0.44104454,0.7452553,3.503354571,2.990636975,crawl
27/03/2021, 15:25:25,-1.1208692,0.45026368,1.465752,-2.8625135,-0.44104454,0.7452553,1.899345676,2.990636975,crawl
27/03/2021, 15:25:25,-1.1208692,0.45026368,1.465752,-1.8985685,-0.4801399,0.7538074,1.899345676,2.098409483,crawl
27/03/2021, 15:25:25,-0.26584718,-1.5950831,1.583108,-1.8985685,-0.4801399,0.7538074,2.263005888,2.098409483,crawl
27/03/2021, 15:25:25,-0.26584718,-1.5950831,1.583108,0.20525065,-0.31520635,0.86498487,2.263005888,0.943229398,crawl
27/03/2021, 15:25:25,2.0860622,-4.366121,1.5447876,0.20525065,-0.31520635,0.86498487,5.079471952,0.943229398,crawl
27/03/2021, 15:25:25,2.0860622,-4.366121,1.5447876,2.4153602,0.1954768,0.855211,5.079471952,2.56973968,crawl
27/03/2021, 15:25:25,3.527864,-4.9361353,1.5615528,2.4153602,0.1954768,0.855211,6.264958333,2.56973968,crawl
27/03/2021, 15:25:25,3.527864,-4.9361353,1.5615528,4.1379995,0.82833296,0.75625086,6.264958333,4.28731746,crawl
27/03/2021, 15:25:25,2.9698243,-2.5171657,1.453777,4.1379995,0.82833296,0.75625086,4.155652399,4.28731746,crawl
27/03/2021, 15:25:25,2.9698243,-2.5171657,1.453777,4.5301747,1.2449429,0.49724412,4.155652399,4.724364259,crawl
27/03/2021, 15:25:25,1.2525953,-0.3065625,-1.092129,4.5301747,1.2449429,0.49724412,1.689887958,4.724364259,crawl
27/03/2021, 15:25:25,1.2525953,-0.3065625,-1.092129,3.6224296,1.4966192,0.32620192,1.689887958,3.932972549,crawl
27/03/2021, 15:25:25,-0.7209009,2.9602442,-2.8740237,3.6224296,1.4966192,0.32620192,4.188407309,3.932972549,crawl
27/03/2021, 15:25:25,-0.7209009,2.9602442,-2.8740237,1.8350385,1.6933178,0.25411984,4.188407309,2.509834341,crawl
27/03/2021, 15:25:25,0.17004639,4.7397437,-3.439248,1.8350385,1.6933178,0.25411984,5.858541934,2.509834341,crawl
27/03/2021, 15:25:26,-13.210928,2.9338992,-0.22513184,-3.8337889,0.5412264,2.045176,13.53466166,4.378767875,crawl
27/03/2021, 15:25:26,-12.020603,3.2476466,-1.5807129,-3.8337889,0.5412264,2.045176,12.5515243,4.378767875,crawl
27/03/2021, 15:25:26,-12.020603,3.2476466,-1.5807129,-3.7091722,0.51923525,2.140471,12.5515243,4.313835885,crawl
27/03/2021, 15:25:26,-12.470867,5.3097587,-2.574646,-3.7091722,0.51923525,2.140471,13.79655271,4.313835885,crawl
27/03/2021, 15:25:26,-12.470867,5.3097587,-2.574646,-3.8899884,0.3408627,2.2088878,13.79655271,4.486355167,crawl
27/03/2021, 15:25:26,-11.704461,5.8127127,-4.0499783,-3.8899884,0.3408627,2.2088878,13.68153361,4.486355167,crawl
27/03/2021, 15:25:26,-11.704461,5.8127127,-4.0499783,-4.1379995,0.366519,2.4911075,13.68153361,4.843861345,crawl
27/03/2021, 15:25:26,-10.533297,6.375542,-5.872588,-4.1379995,0.366519,2.4911075,13.6413037,4.843861345,crawl
27/03/2021, 15:25:26,-10.533297,6.375542,-5.872588,-4.2589507,0.3457496,2.5754068,13.6413037,4.989080483,crawl
27/03/2021, 15:25:26,-9.249566,5.237908,-6.782696,-4.2589507,0.3457496,2.5754068,12.60932645,4.989080483,crawl
27/03/2021, 15:25:26,-9.249566,5.237908,-6.782696,-4.306598,0.24068081,2.615724,12.60932645,5.044474967,crawl
27/03/2021, 15:25:26,-7.573052,3.4512234,-5.350474,-4.306598,0.24068081,2.615724,9.893918791,5.044474967,crawl
27/03/2021, 15:25:26,-7.573052,3.4512234,-5.350474,-4.3456936,0.31520635,2.7488925,9.893918791,5.151778143,crawl
27/03/2021, 15:25:26,-5.7001467,4.0044727,-4.471502,-4.3456936,0.31520635,2.7488925,8.277789716,5.151778143,crawl
27/03/2021, 15:25:26,-5.7001467,4.0044727,-4.471502,-4.3188157,0.20036373,2.7232363,8.277789716,5.109631182,crawl
27/03/2021, 15:25:26,-5.7935524,3.9829175,-4.0739284,-4.3188157,0.20036373,2.7232363,8.12562452,5.109631182,crawl
27/03/2021, 15:25:26,-5.7935524,3.9829175,-4.0739284,-4.3799024,0.061086502,2.7220144,8.12562452,5.15719292,crawl
27/03/2021, 15:25:26,-6.792276,4.071533,-1.2741505,-4.3799024,0.061086502,2.7220144,8.020963413,5.15719292,crawl
27/03/2021, 15:25:26,-6.792276,4.071533,-1.2741505,-4.5766006,-0.04276055,2.6670365,8.020963413,5.297186512,crawl
27/03/2021, 15:25:26,-6.981482,5.980364,-1.1903248,-4.5766006,-0.04276055,2.6670365,9.269450692,5.297186512,crawl
27/03/2021, 15:25:27,1.5543678,7.5227566,5.2977834,-2.3701563,-1.0286967,-3.308445,9.331368302,4.19781679,crawl
27/03/2021, 15:25:27,-2.9578493,-1.0011182,-1.9160157,-2.3701563,-1.0286967,-3.308445,3.663635656,4.19781679,crawl
27/03/2021, 15:25:27,-2.9578493,-1.0011182,-1.9160157,-2.1942272,-0.9309583,-2.4251342,3.663635656,3.400381183,crawl
27/03/2021, 15:25:27,-3.1326857,-2.6704469,4.8307548,-2.1942272,-0.9309583,-2.4251342,6.346746999,3.400381183,crawl
27/03/2021, 15:25:27,-3.1326857,-2.6704469,4.8307548,-1.9132292,-0.6450735,-1.832595,6.346746999,2.726714188,crawl
27/03/2021, 15:25:27,-4.6199927,1.3483961,7.5179667,-1.9132292,-0.6450735,-1.832595,8.926495886,2.726714188,crawl
27/03/2021, 15:25:27,-4.6199927,1.3483961,7.5179667,-1.6249009,-0.43371415,-1.9498811,8.926495886,2.574965482,crawl
27/03/2021, 15:25:27,-7.92991,0.72569096,9.5561285,-1.6249009,-0.43371415,-1.9498811,12.43903914,2.574965482,crawl
27/03/2021, 15:25:27,-7.92991,0.72569096,9.5561285,-1.5308278,-0.24068081,-1.7324132,12.43903914,2.324352875,crawl
27/03/2021, 15:25:27,-9.616004,2.2656887,14.6192,-1.5308278,-0.24068081,-1.7324132,17.64431578,2.324352875,crawl
27/03/2021, 15:25:27,-9.616004,2.2656887,14.6192,-1.6945395,-0.29932386,-1.3646724,17.64431578,2.196221726,crawl
27/03/2021, 15:25:27,-7.94428,6.809041,10.99314,-1.6945395,-0.29932386,-1.3646724,15.17642114,2.196221726,crawl
27/03/2021, 15:25:27,-7.94428,6.809041,10.99314,-1.2547168,-0.13316858,-1.0702355,15.17642114,1.654524708,crawl
27/03/2021, 15:25:27,-14.183307,1.6645386,11.441009,-1.2547168,-0.13316858,-1.0702355,18.29845771,1.654524708,crawl
27/03/2021, 15:25:27,-14.183307,1.6645386,11.441009,-0.86376315,-0.34330612,-0.48258337,18.29845771,1.047297758,crawl
27/03/2021, 15:25:27,-15.7736,0.7879615,14.219232,-0.86376315,-0.34330612,-0.48258337,21.25120881,1.047297758,crawl
27/03/2021, 15:25:27,-15.7736,0.7879615,14.219232,-0.6096433,-0.29443693,-0.21013756,21.25120881,0.70888351,crawl
27/03/2021, 15:25:27,-15.617923,3.0536501,14.492264,-0.6096433,-0.29443693,-0.21013756,21.52370788,0.70888351,crawl
27/03/2021, 15:25:27,-15.617923,3.0536501,14.492264,-0.8820891,-0.63652134,0.058643043,21.52370788,1.089348229,crawl
27/03/2021, 15:25:27,-12.478052,6.5168486,7.688013,-0.8820891,-0.63652134,0.058643043,16.03984556,1.089348229,crawl
27/03/2021, 15:25:28,-10.490186,-1.3771362,4.799619,-0.764803,2.610837,-0.21258102,11.61795358,2.728842989,crawl
27/03/2021, 15:25:28,-10.571617,-0.4766089,4.8571,-0.764803,2.610837,-0.21258102,11.64378226,2.728842989,crawl
27/03/2021, 15:25:28,-10.571617,-0.4766089,4.8571,-0.8991933,2.6633716,-0.36774075,11.64378226,2.835018502,crawl
27/03/2021, 15:25:28,-9.917776,-2.1507277,5.012776,-0.8991933,2.6633716,-0.36774075,11.31882657,2.835018502,crawl
27/03/2021, 15:25:28,-9.917776,-2.1507277,5.012776,-0.9834927,2.7611098,-0.44104454,11.31882657,2.964035359,crawl
27/03/2021, 15:25:28,-9.239985,-3.5853443,5.5636306,-0.9834927,2.7611098,-0.44104454,11.3660024,2.964035359,crawl
27/03/2021, 15:25:28,-9.239985,-3.5853443,5.5636306,-1.2950338,2.7953184,-0.53633946,11.3660024,3.12707169,crawl
27/03/2021, 15:25:28,-10.310559,-2.2608986,4.8163843,-1.2950338,2.7953184,-0.53633946,11.60245029,3.12707169,crawl
27/03/2021, 15:25:28,-10.310559,-2.2608986,4.8163843,-1.7996083,2.7916532,-0.7440336,11.60245029,3.403748451,crawl
27/03/2021, 15:25:28,-10.95482,-1.8968556,4.071533,-1.7996083,2.7916532,-0.7440336,11.83991208,3.403748451,crawl
27/03/2021, 15:25:28,-10.95482,-1.8968556,4.071533,-2.2809699,2.764775,-0.99082303,11.83991208,3.718673793,crawl
27/03/2021, 15:25:28,-12.310401,-3.3290772,3.9014869,-2.2809699,2.764775,-0.99082303,13.33605365,3.718673793,crawl
27/03/2021, 15:25:28,-12.310401,-3.3290772,3.9014869,-2.483777,2.6939147,-1.0494661,13.33605365,3.811522495,crawl
27/03/2021, 15:25:28,-12.140354,-4.5577226,4.1314087,-2.483777,2.6939147,-1.0494661,13.60990712,3.811522495,crawl
27/03/2021, 15:25:28,-12.140354,-4.5577226,4.1314087,-2.4226906,2.7305665,-1.0824528,13.60990712,3.807509332,crawl
27/03/2021, 15:25:28,-11.160791,-3.5015187,4.140989,-2.4226906,2.7305665,-1.0824528,12.40853281,3.807509332,crawl
27/03/2021, 15:25:28,-11.160791,-3.5015187,4.140989,-2.2418747,2.7550013,-1.1044439,12.40853281,3.719654647,crawl
27/03/2021, 15:25:28,-10.3440895,-4.758904,5.0510964,-2.2418747,2.7550013,-1.1044439,12.45636103,3.719654647,crawl
27/03/2021, 15:25:28,-10.3440895,-4.758904,5.0510964,-1.8228211,2.7672186,-1.1875216,12.45636103,3.519997604,crawl
27/03/2021, 15:25:28,-10.312955,-7.1227884,5.254673,-1.8228211,2.7672186,-1.1875216,13.5905387,3.519997604,crawl
27/03/2021, 15:25:29,2.4884255,-3.9733377,7.316785,-10.229546,-1.5369364,0.963945,8.689937525,10.38917545,crawl
27/03/2021, 15:25:29,2.5818312,-4.2056546,8.1143265,-10.229546,-1.5369364,0.963945,9.497140485,10.38917545,crawl
27/03/2021, 15:25:29,2.5818312,-4.2056546,8.1143265,-10.340723,-1.3683376,0.58398694,9.497140485,10.44719779,crawl
27/03/2021, 15:25:29,2.6273365,-6.480923,7.3766603,-10.340723,-1.3683376,0.58398694,10.16466331,10.44719779,crawl
27/03/2021, 15:25:29,2.6273365,-6.480923,7.3766603,-10.538643,-1.4098765,-0.0488692,10.16466331,10.63264472,crawl
27/03/2021, 15:25:29,2.071692,-10.027947,6.217471,-10.538643,-1.4098765,-0.0488692,11.97950685,10.63264472,crawl
27/03/2021, 15:25:29,2.071692,-10.027947,6.217471,-10.520317,-1.3952156,-0.67195153,11.97950685,10.63368313,crawl
27/03/2021, 15:25:29,1.8489552,-12.394227,5.654641,-10.520317,-1.3952156,-0.67195153,13.7481077,10.63368313,crawl
27/03/2021, 15:25:29,1.8489552,-12.394227,5.654641,-10.275971,-1.2510515,-1.0665703,13.7481077,10.40664646,crawl
27/03/2021, 15:25:29,2.675237,-13.4671955,5.740862,-10.275971,-1.2510515,-1.0665703,14.8821955,10.40664646,crawl
27/03/2021, 15:25:29,2.675237,-13.4671955,5.740862,-9.882574,-0.9236279,-1.4147633,14.8821955,10.02596201,crawl
27/03/2021, 15:25:29,3.4512234,-13.37858,5.376819,-9.882574,-0.9236279,-1.4147633,14.82590746,10.02596201,crawl
27/03/2021, 15:25:29,3.4512234,-13.37858,5.376819,-9.343791,-0.44593146,-1.9645419,14.82590746,9.558488908,crawl
27/03/2021, 15:25:29,3.9541774,-13.764178,4.366121,-9.343791,-0.44593146,-1.9645419,14.97167771,9.558488908,crawl
27/03/2021, 15:25:29,3.9541774,-13.764178,4.366121,-8.658401,-0.05375612,-2.6035066,14.97167771,9.04151735,crawl
27/03/2021, 15:25:29,3.8272414,-15.081439,5.007986,-8.658401,-0.05375612,-2.6035066,16.34556528,9.04151735,crawl
27/03/2021, 15:25:29,3.8272414,-15.081439,5.007986,-7.771425,0.33475402,-2.9944603,16.34556528,8.335100237,crawl
27/03/2021, 15:25:29,3.1446607,-16.772322,6.128855,-7.771425,0.33475402,-2.9944603,18.13180997,8.335100237,crawl
27/03/2021, 15:25:29,3.1446607,-16.772322,6.128855,-6.773271,0.687834,-3.2595756,18.13180997,7.548188521,crawl
27/03/2021, 15:25:29,2.4956105,-17.203426,5.767207,-6.773271,0.687834,-3.2595756,18.31520211,7.548188521,crawl
27/03/2021, 15:25:30,0.37122804,3.3099172,8.0999565,-1.0971136,-0.53756124,1.1129961,8.75800535,1.652691949,crawl
27/03/2021, 15:25:30,0.7783814,2.335144,8.320298,-1.0971136,-0.53756124,1.1129961,8.67675846,1.652691949,crawl
27/03/2021, 15:25:30,0.7783814,2.335144,8.320298,-1.0665703,-0.39217535,0.9199627,8.67675846,1.462089274,crawl
27/03/2021, 15:25:30,0.9651929,2.0190015,9.268726,-1.0665703,-0.39217535,0.9199627,9.535053879,1.462089274,crawl
27/03/2021, 15:25:30,0.9651929,2.0190015,9.268726,-0.7819072,-0.27122405,0.7501422,9.535053879,1.116984647,crawl
27/03/2021, 15:25:30,0.7831714,1.9734962,9.917776,-0.7819072,-0.27122405,0.7501422,10.14250105,1.116984647,crawl
27/03/2021, 15:25:30,0.7831714,1.9734962,9.917776,-0.49968758,-0.22357659,0.5583306,10.14250105,0.781925332,crawl
27/03/2021, 15:25:30,0.43589357,2.1004322,10.684182,-0.49968758,-0.22357659,0.5583306,10.89741102,0.781925332,crawl
27/03/2021, 15:25:30,0.43589357,2.1004322,10.684182,-0.33719748,-0.27122405,0.35185826,10.89741102,0.557735477,crawl
27/03/2021, 15:25:30,0.5556446,2.6393116,10.976375,-0.33719748,-0.27122405,0.35185826,11.30289814,0.557735477,crawl
27/03/2021, 15:25:30,0.5556446,2.6393116,10.976375,-0.34330612,-0.42149687,0.20891583,11.30289814,0.582378338,crawl
27/03/2021, 15:25:30,1.2286451,2.8213332,10.585987,-0.34330612,-0.42149687,0.20891583,11.02418307,0.582378338,crawl
27/03/2021, 15:25:30,1.2286451,2.8213332,10.585987,-0.53756124,-0.62063885,0.14294241,11.02418307,0.83342498,crawl
27/03/2021, 15:25:30,2.3303542,3.3290772,10.202784,-0.53756124,-0.62063885,0.14294241,10.98226292,0.83342498,crawl
27/03/2021, 15:25:30,2.3303542,3.3290772,10.202784,-0.65362555,-0.8161157,0.11117743,10.98226292,1.051490169,crawl
27/03/2021, 15:25:30,3.65959,3.8631666,10.011182,-0.65362555,-0.8161157,0.11117743,11.33756661,1.051490169,crawl
27/03/2021, 15:25:30,3.65959,3.8631666,10.011182,-0.7867941,-0.8979716,0.087964565,11.33756661,1.19713646,crawl
27/03/2021, 15:25:30,4.3373804,4.0499783,9.086704,-0.7867941,-0.8979716,0.087964565,10.85280548,1.19713646,crawl
27/03/2021, 15:25:30,4.3373804,4.0499783,9.086704,-0.97860575,-0.8857543,0.18448123,10.85280548,1.332765242,crawl
27/03/2021, 15:25:30,3.65959,4.423601,8.023315,-0.97860575,-0.8857543,0.18448123,9.86582164,1.332765242,crawl
27/03/2021, 15:25:31,-15.464642,-5.1756372,2.095642,-1.5247191,3.0469947,2.285857,16.44183918,4.102936395,crawl
27/03/2021, 15:25:31,-16.468155,-4.991221,2.2872438,-1.5247191,3.0469947,2.285857,17.35925969,4.102936395,crawl
27/03/2021, 15:25:31,-16.468155,-4.991221,2.2872438,-1.0458009,2.801427,2.5900676,17.35925969,3.956026097,crawl
27/03/2021, 15:25:31,-18.35543,-3.5733693,3.3506324,-1.0458009,2.801427,2.5900676,18.99782983,3.956026097,crawl
27/03/2021, 15:25:31,-18.35543,-3.5733693,3.3506324,-0.70860344,2.6169457,2.7745488,18.99782983,3.879258271,crawl
27/03/2021, 15:25:31,-16.987875,-1.4513819,3.6763551,-0.70860344,2.6169457,2.7745488,17.4416167,3.879258271,crawl
27/03/2021, 15:25:31,-16.987875,-1.4513819,3.6763551,-0.6792819,2.4019213,2.8234181,17.4416167,3.768599167,crawl
27/03/2021, 15:25:31,-18.285975,1.0538087,1.2861255,-0.6792819,2.4019213,2.8234181,18.36141321,3.768599167,crawl
27/03/2021, 15:25:31,-18.285975,1.0538087,1.2861255,-1.0897832,2.1966705,2.8136442,18.36141321,3.73223557,crawl
27/03/2021, 15:25:31,-16.669336,1.4058765,1.0322535,-1.0897832,2.1966705,2.8136442,16.76033441,3.73223557,crawl
27/03/2021, 15:25:31,-16.669336,1.4058765,1.0322535,-1.6774353,2.0390675,2.6096153,16.76033441,3.712368188,crawl
27/03/2021, 15:25:31,-15.067068,-0.36883304,-2.8668385,-1.6774353,2.0390675,2.6096153,15.34181677,3.712368188,crawl
27/03/2021, 15:25:31,-15.067068,-0.36883304,-2.8668385,-2.1734576,1.8338168,2.5912893,15.34181677,3.847282432,crawl
27/03/2021, 15:25:31,-14.439573,-2.9530592,-2.7111623,-2.1734576,1.8338168,2.5912893,14.98573443,3.847282432,crawl
27/03/2021, 15:25:31,-14.439573,-2.9530592,-2.7111623,-2.3640475,1.7922779,2.7892096,14.98573443,4.071937022,crawl
27/03/2021, 15:25:31,-12.049344,-3.5685792,-1.4441968,-2.3640475,1.7922779,2.7892096,12.64939344,4.071937022,crawl
27/03/2021, 15:25:31,-12.049344,-3.5685792,-1.4441968,-2.2186618,1.7214175,2.918713,12.64939344,4.050262288,crawl
27/03/2021, 15:25:31,-12.214601,-3.9901028,-0.8382569,-2.2186618,1.7214175,2.918713,12.87711387,4.050262288,crawl
27/03/2021, 15:25:31,-12.214601,-3.9901028,-0.8382569,-2.2467616,1.5955794,2.878396,12.87711387,3.984843136,crawl
27/03/2021, 15:25:31,-12.600199,-2.44771,-0.8885523,-2.2467616,1.5955794,2.878396,12.86646098,3.984843136,crawl
27/03/2021, 15:25:32,1.2070899,-4.24158,3.5733693,4.961446,-1.5821403,-11.151952,5.676005189,12.30793001,crawl
27/03/2021, 15:25:32,-1.7651294,-6.5120583,2.5914114,4.961446,-1.5821403,-11.151952,7.227585871,12.30793001,crawl
27/03/2021, 15:25:32,-1.7651294,-6.5120583,2.5914114,5.665162,-1.5638144,-11.44761,7.227585871,12.86807481,crawl
27/03/2021, 15:25:32,-5.870193,-5.484595,1.949546,5.665162,-1.5638144,-11.44761,8.266841948,12.86807481,crawl
27/03/2021, 15:25:32,-5.870193,-5.484595,1.949546,5.7677875,-1.837482,-11.601548,8.266841948,13.08585621,crawl
27/03/2021, 15:25:32,-9.85311,-1.9734962,0.39996827,5.7677875,-1.837482,-11.601548,10.05676114,13.08585621,crawl
27/03/2021, 15:25:32,-9.85311,-1.9734962,0.39996827,5.01398,-2.5326464,-11.542905,10.05676114,12.83717044,crawl
27/03/2021, 15:25:32,-12.231365,1.7315992,-0.14370118,5.01398,-2.5326464,-11.542905,12.3541645,12.83717044,crawl
27/03/2021, 15:25:32,-12.231365,1.7315992,-0.14370118,4.153882,-3.2607975,-11.2729025,12.3541645,12.4485287,crawl
27/03/2021, 15:25:32,-11.223062,2.7255323,1.3651612,4.153882,-3.2607975,-11.2729025,11.62967335,12.4485287,crawl
27/03/2021, 15:25:32,-11.223062,2.7255323,1.3651612,3.5112522,-3.6896248,-10.869732,11.62967335,12.00388664,crawl
27/03/2021, 15:25:32,-9.6686945,2.2585034,1.1783496,3.5112522,-3.6896248,-10.869732,9.998649851,12.00388664,crawl
27/03/2021, 15:25:32,-9.6686945,2.2585034,1.1783496,3.0396643,-3.937636,-10.344388,9.998649851,11.47827943,crawl
27/03/2021, 15:25:32,-9.730965,2.5411158,0.15328126,3.0396643,-3.937636,-10.344388,10.05845106,11.47827943,crawl
27/03/2021, 15:25:32,-9.730965,2.5411158,0.15328126,2.787988,-4.098904,-9.691984,10.05845106,10.8861586,crawl
27/03/2021, 15:25:32,-10.461446,3.5039136,-0.5412744,2.787988,-4.098904,-9.691984,11.04591496,10.8861586,crawl
27/03/2021, 15:25:32,-10.461446,3.5039136,-0.5412744,2.7623315,-4.0891304,-8.846547,11.04591496,10.12980053,crawl
27/03/2021, 15:25:32,-11.757152,8.133487,-1.5495777,2.7623315,-4.0891304,-8.846547,14.38003517,10.12980053,crawl
27/03/2021, 15:25:32,-11.757152,8.133487,-1.5495777,3.0604336,-3.9254186,-7.530744,14.38003517,9.027030055,crawl
27/03/2021, 15:25:32,-12.121195,15.649058,-3.9469924,3.0604336,-3.9254186,-7.530744,20.18403182,9.027030055,crawl
27/03/2021, 15:25:33,-5.860613,0.5963599,8.056846,-1.9315552,2.565633,-0.99082303,9.980740975,3.360819628,crawl
27/03/2021, 15:25:33,-7.8891945,-1.4897022,9.922566,-1.9315552,2.565633,-0.99082303,12.76385234,3.360819628,crawl
27/03/2021, 15:25:33,-7.8891945,-1.4897022,9.922566,-1.3121381,2.6218326,-0.6756167,12.76385234,3.008682515,crawl
27/03/2021, 15:25:33,-6.964717,-1.1424243,9.934542,-1.3121381,2.6218326,-0.6756167,12.18636672,3.008682515,crawl
27/03/2021, 15:25:33,-6.964717,-1.1424243,9.934542,-0.7342597,2.6584845,-0.45570529,12.18636672,2.795414865,crawl
27/03/2021, 15:25:33,-7.6496925,1.1711646,9.220825,-0.7342597,2.6584845,-0.45570529,12.03798321,2.795414865,crawl
27/03/2021, 15:25:33,-7.6496925,1.1711646,9.220825,-0.5167918,2.6389368,-0.31887153,12.03798321,2.707903257,crawl
27/03/2021, 15:25:33,-8.56938,1.9974464,7.8269243,-0.5167918,2.6389368,-0.31887153,11.77645137,2.707903257,crawl
27/03/2021, 15:25:33,-8.56938,1.9974464,7.8269243,-0.80756354,2.619389,-0.26022848,11.77645137,2.753375524,crawl
27/03/2021, 15:25:33,-8.756192,2.8380983,7.3551054,-0.80756354,2.619389,-0.26022848,11.78232911,2.753375524,crawl
27/03/2021, 15:25:33,-8.756192,2.8380983,7.3551054,-1.6725484,2.5326464,-0.26022848,11.78232911,3.046216495,crawl
27/03/2021, 15:25:33,-8.301138,3.9901028,5.997129,-1.6725484,2.5326464,-0.26022848,10.99069455,3.046216495,crawl
27/03/2021, 15:25:33,-8.301138,3.9901028,5.997129,-2.7440057,2.4275775,-0.40072745,10.99069455,3.685550455,crawl
27/03/2021, 15:25:33,-6.9934573,1.096919,5.733677,-2.7440057,2.4275775,-0.40072745,9.109705117,3.685550455,crawl
27/03/2021, 15:25:33,-6.9934573,1.096919,5.733677,-3.733607,2.3530521,-0.5632175,9.109705117,4.449032477,crawl
27/03/2021, 15:25:33,-7.647298,-1.3819263,5.1971927,-3.733607,2.3530521,-0.5632175,9.348887446,4.449032477,crawl
27/03/2021, 15:25:33,-7.647298,-1.3819263,5.1971927,-4.3921194,2.3616042,-0.84299374,9.348887446,5.057521705,crawl
27/03/2021, 15:25:33,-7.422166,-2.5985963,5.855823,-4.3921194,2.3616042,-0.84299374,9.804688297,5.057521705,crawl
27/03/2021, 15:25:33,-7.422166,-2.5985963,5.855823,-4.583931,2.3970344,-0.9761623,9.804688297,5.264132402,crawl
27/03/2021, 15:25:33,-7.89638,-4.1888895,6.2438164,-4.583931,2.3970344,-0.9761623,10.90343315,5.264132402,crawl
27/03/2021, 15:25:34,-2.7303224,4.2176294,4.679868,-6.07322,0.18448123,2.692693,6.866165218,6.64594819,crawl
27/03/2021, 15:25:34,-2.7303224,4.2176294,4.679868,-6.5545816,0.00855211,2.6096153,6.866165218,7.054977377,crawl
27/03/2021, 15:25:34,0.6586304,6.253396,4.8427296,-6.5545816,0.00855211,2.6096153,7.936673459,7.054977377,crawl
27/03/2021, 15:25:34,0.6586304,6.253396,4.8427296,-7.13979,-0.061086502,2.579072,7.936673459,7.591570721,crawl
27/03/2021, 15:25:34,2.4620802,6.3779373,4.5960426,-7.13979,-0.061086502,2.579072,8.237932472,7.591570721,crawl
27/03/2021, 15:25:34,2.4620802,6.3779373,4.5960426,-8.075636,-0.08185591,2.5143204,8.237932472,8.458392441,crawl
27/03/2021, 15:25:34,3.3554225,7.3383403,6.2941117,-8.075636,-0.08185591,2.5143204,10.2335693,8.458392441,crawl
27/03/2021, 15:25:34,3.3554225,7.3383403,6.2941117,-8.454371,-0.00488692,2.4055865,10.2335693,8.789952608,crawl
27/03/2021, 15:25:34,3.1853762,5.7145166,7.486831,-8.454371,-0.00488692,2.4055865,9.942583316,8.789952608,crawl
27/03/2021, 15:25:34,3.1853762,5.7145166,7.486831,-8.613196,-0.2076941,2.5130987,9.942583316,8.97473976,crawl
27/03/2021, 15:25:34,0.98435307,2.0381618,8.749006,-8.613196,-0.2076941,2.5130987,9.037044043,8.97473976,crawl
27/03/2021, 15:25:34,0.98435307,2.0381618,8.749006,-8.532562,-0.47280952,2.868622,9.037044043,9.014275348,crawl
27/03/2021, 15:25:34,-0.011975098,0.7185059,8.466394,-8.532562,-0.47280952,2.868622,8.496836394,9.014275348,crawl
27/03/2021, 15:25:34,-0.011975098,0.7185059,8.466394,-8.411612,-0.46303567,3.2803452,8.496836394,9.040479836,crawl
27/03/2021, 15:25:34,-0.82388675,2.1171973,7.9802055,-8.411612,-0.46303567,3.2803452,8.297288357,9.040479836,crawl
27/03/2021, 15:25:34,-0.82388675,2.1171973,7.9802055,-8.29066,-0.3249802,3.357314,8.297288357,8.950542543,crawl
27/03/2021, 15:25:34,-3.1374757,3.2045362,7.568262,-8.29066,-0.3249802,3.357314,8.797238056,8.950542543,crawl
27/03/2021, 15:25:34,-3.1374757,3.2045362,7.568262,-7.856946,-0.5766566,3.299893,8.797238056,8.54127779,crawl
27/03/2021, 15:25:34,-4.24637,2.9650342,7.4030056,-7.856946,-0.5766566,3.299893,9.034798105,8.54127779,crawl
27/03/2021, 15:25:34,-4.24637,2.9650342,7.4030056,-7.4110146,-1.163087,3.1129682,9.034798105,8.121975081,crawl
27/03/2021, 15:25:35,-5.7719975,7.8724294,6.452183,-2.7525578,-0.5045745,2.73301,11.70135724,3.911587088,crawl
27/03/2021, 15:25:35,-5.7719975,7.8724294,6.452183,-2.6083937,-0.32864538,2.6071718,11.70135724,3.702576127,crawl
27/03/2021, 15:25:35,-5.5780005,6.8665214,7.553892,-2.6083937,-0.32864538,2.6071718,11.63290557,3.702576127,crawl
27/03/2021, 15:25:35,-5.5780005,6.8665214,7.553892,-2.5057683,-0.2480112,2.5265377,11.63290557,3.56704035,crawl
27/03/2021, 15:25:35,-6.444998,7.2664895,7.822134,-2.5057683,-0.2480112,2.5265377,12.47099221,3.56704035,crawl
27/03/2021, 15:25:35,-6.444998,7.2664895,7.822134,-2.3921473,-0.2638937,2.3652694,12.47099221,3.374390025,crawl
27/03/2021, 15:25:35,-4.9481106,7.5035963,7.27128,-2.3921473,-0.2638937,2.3652694,11.56111007,3.374390025,crawl
27/03/2021, 15:25:35,-4.9481106,7.5035963,7.27128,-2.4336863,-0.16004664,2.2614222,11.56111007,3.326029749,crawl
27/03/2021, 15:25:35,-5.1732426,6.224656,6.821016,-2.4336863,-0.16004664,2.2614222,10.58466057,3.326029749,crawl
27/03/2021, 15:25:35,-5.1732426,6.224656,6.821016,-2.3835952,-0.101403594,2.1966705,10.58466057,3.243018706,crawl
27/03/2021, 15:25:35,-3.7434156,5.9085135,7.0269876,-2.3835952,-0.101403594,2.1966705,9.914748948,3.243018706,crawl
27/03/2021, 15:25:35,-3.7434156,5.9085135,7.0269876,-2.149023,-0.02076941,2.0928235,9.914748948,2.999773606,crawl
27/03/2021, 15:25:35,-2.6536818,5.9133034,6.468948,-2.149023,-0.02076941,2.0928235,9.157317863,2.999773606,crawl
27/03/2021, 15:25:35,-2.6536818,5.9133034,6.468948,-1.8387036,0.123394735,1.9620984,9.157317863,2.691818583,crawl
27/03/2021, 15:25:35,-1.096919,6.2989016,6.342012,-1.8387036,0.123394735,1.9620984,9.005582008,2.691818583,crawl
27/03/2021, 15:25:35,-1.096919,6.2989016,6.342012,-1.561371,0.27122405,1.86436,9.005582008,2.446891887,crawl
27/03/2021, 15:25:35,-0.38559815,5.985154,7.2976246,-1.561371,0.27122405,1.86436,9.44595579,2.446891887,crawl
27/03/2021, 15:25:35,-0.38559815,5.985154,7.2976246,-1.4416414,0.27611098,1.8106039,9.44595579,2.330848272,crawl
27/03/2021, 15:25:35,0.8669971,6.2893214,7.829319,-1.4416414,0.27611098,1.8106039,10.07995456,2.330848272,crawl
27/03/2021, 15:25:35,0.8669971,6.2893214,7.829319,-1.4001026,0.22968525,1.6517789,10.07995456,2.177479346,crawl
27/03/2021, 15:25:36,-21.787493,-2.4764502,1.5208374,0.48136163,3.1374028,3.1887155,21.98045933,4.499212314,crawl
27/03/2021, 15:25:36,-23.030508,-2.8548634,0.098195806,0.48136163,3.1374028,3.1887155,23.20698576,4.499212314,crawl
27/03/2021, 15:25:36,-23.030508,-2.8548634,0.098195806,-0.30421078,3.1386244,3.0958638,23.20698576,4.419036128,crawl
27/03/2021, 15:25:36,-22.898783,-0.33290774,0.8214917,-0.30421078,3.1386244,3.0958638,22.91593172,4.419036128,crawl
27/03/2021, 15:25:36,-22.898783,-0.33290774,0.8214917,-1.4880672,3.299893,3.045773,22.91593172,4.730789612,crawl
27/03/2021, 15:25:36,-20.757635,0.7927515,-0.4239185,-1.4880672,3.299893,3.045773,20.77709261,4.730789612,crawl
27/03/2021, 15:25:36,-20.757635,0.7927515,-0.4239185,-2.4654512,3.4489439,2.8319702,20.77709261,5.098403556,crawl
27/03/2021, 15:25:36,-17.05733,-1.7866846,-0.19160157,-2.4654512,3.4489439,2.8319702,17.15171804,5.098403556,crawl
27/03/2021, 15:25:36,-17.05733,-1.7866846,-0.19160157,-2.6914713,3.5650082,2.6951365,17.15171804,5.216997429,crawl
27/03/2021, 15:25:36,-17.761465,-3.899092,0.6490503,-2.6914713,3.5650082,2.6951365,18.19598379,5.216997429,crawl
27/03/2021, 15:25:36,-17.761465,-3.899092,0.6490503,-2.1649055,3.5356867,2.8246398,18.19598379,5.016621042,crawl
27/03/2021, 15:25:36,-19.778072,-5.2977834,1.3148658,-2.1649055,3.5356867,2.8246398,20.51749319,5.016621042,crawl
27/03/2021, 15:25:36,-19.778072,-5.2977834,1.3148658,-1.3280206,3.3499837,3.0298905,20.51749319,4.708106418,crawl
27/03/2021, 15:25:36,-18.33627,-3.6308498,1.8705103,-1.3280206,3.3499837,3.0298905,18.78565022,4.708106418,crawl
27/03/2021, 15:25:36,-18.33627,-3.6308498,1.8705103,-0.6462952,3.0653207,3.122742,18.78565022,4.423279989,crawl
27/03/2021, 15:25:36,-20.166065,-4.9481106,-0.5125342,-0.6462952,3.0653207,3.122742,20.77057235,4.423279989,crawl
27/03/2021, 15:25:36,-20.166065,-4.9481106,-0.5125342,-0.6157519,3.0946422,3.2241457,20.77057235,4.511216656,crawl
27/03/2021, 15:25:36,-15.804734,-3.5254688,-1.1687696,-0.6157519,3.0946422,3.2241457,16.23528801,4.511216656,crawl
27/03/2021, 15:25:36,-15.804734,-3.5254688,-1.1687696,-0.918741,3.0799813,3.561343,16.23528801,4.797242293,crawl
27/03/2021, 15:25:36,-12.887601,-3.7122805,-2.8476784,-0.918741,3.0799813,3.561343,13.71060013,4.797242293,crawl
27/03/2021, 15:25:37,-2.179468,-15.285015,-0.28740236,1.1020005,2.5130987,-8.069527,15.44229152,8.523340362,crawl
27/03/2021, 15:25:37,-3.6021094,-17.07649,-1.1496094,1.1020005,2.5130987,-8.069527,17.49009202,8.523340362,crawl
27/03/2021, 15:25:37,-3.6021094,-17.07649,-1.1496094,1.2315038,2.6364934,-8.257673,17.49009202,8.755390747,crawl
27/03/2021, 15:25:37,-5.6498513,-14.664705,-0.49337405,1.2315038,2.6364934,-8.257673,15.72316186,8.755390747,crawl
27/03/2021, 15:25:37,-5.6498513,-14.664705,-0.49337405,1.8093822,2.737897,-8.197808,15.72316186,8.830289001,crawl
27/03/2021, 15:25:37,-6.215076,-9.321417,-1.5711329,1.8093822,2.737897,-8.197808,11.31302082,8.830289001,crawl
27/03/2021, 15:25:37,-6.215076,-9.321417,-1.5711329,2.5729635,2.7672186,-8.179482,11.31302082,9.010081747,crawl
27/03/2021, 15:25:37,-3.4847536,-4.8594947,-4.567302,2.5729635,2.7672186,-8.179482,7.524522972,9.010081747,crawl
27/03/2021, 15:25:37,-3.4847536,-4.8594947,-4.567302,3.534465,2.602285,-8.567992,7.524522972,9.626776232,crawl
27/03/2021, 15:25:37,-0.13651612,-5.1852174,-4.366121,3.534465,2.602285,-8.567992,6.779979861,9.626776232,crawl
27/03/2021, 15:25:37,-0.13651612,-5.1852174,-4.366121,4.4776406,2.366491,-8.93329,6.779979861,10.26904121,crawl
27/03/2021, 15:25:37,1.949546,-9.759705,-1.3268409,4.4776406,2.366491,-8.93329,10.04057119,10.26904121,crawl
27/03/2021, 15:25:37,1.949546,-9.759705,-1.3268409,5.5808625,2.4239123,-9.070124,10.04057119,10.92192843,crawl
27/03/2021, 15:25:37,2.9650342,-12.17628,1.4034815,5.5808625,2.4239123,-9.070124,12.61043154,10.92192843,crawl
27/03/2021, 15:25:37,2.9650342,-12.17628,1.4034815,6.706076,2.8441875,-9.381665,12.61043154,11.87756298,crawl
27/03/2021, 15:25:37,2.1243825,-10.322535,1.2046949,6.706076,2.8441875,-9.381665,10.60749784,11.87756298,crawl
27/03/2021, 15:25:37,2.1243825,-10.322535,1.2046949,7.331602,3.2119281,-9.947326,10.60749784,12.76785653,crawl
27/03/2021, 15:25:37,-0.23231691,-6.615044,-1.9136207,7.331602,3.2119281,-9.947326,6.890190421,12.76785653,crawl
27/03/2021, 15:25:37,-0.23231691,-6.615044,-1.9136207,7.073817,3.104416,-10.417692,6.890190421,12.96937131,crawl
27/03/2021, 15:25:37,-2.3016138,-3.652405,-5.0343313,7.073817,3.104416,-10.417692,6.631891166,12.96937131,crawl
27/03/2021, 15:25:38,-3.3602126,-0.033530276,7.288045,-0.9688319,1.5662578,1.0238098,8.025444016,2.107127271,crawl
27/03/2021, 15:25:38,-3.3602126,-0.033530276,7.288045,-1.0531312,1.6432269,1.1789695,8.025444016,2.280186172,crawl
27/03/2021, 15:25:38,-3.0296998,-0.6442603,7.4030056,-1.0531312,1.6432269,1.1789695,8.02487658,2.280186172,crawl
27/03/2021, 15:25:38,-3.0296998,-0.6442603,7.4030056,-1.0702355,1.7189741,1.2339473,8.02487658,2.371265884,crawl
27/03/2021, 15:25:38,-3.3793726,-0.8214917,7.5179667,-1.0702355,1.7189741,1.2339473,8.283407017,2.371265884,crawl
27/03/2021, 15:25:38,-3.3793726,-0.8214917,7.5179667,-1.0177011,1.7544043,1.3316858,8.283407017,2.426321726,crawl
27/03/2021, 15:25:38,-4.2200246,-1.6597486,7.1084185,-1.0177011,1.7544043,1.3316858,8.431665662,2.426321726,crawl
27/03/2021, 15:25:38,-4.2200246,-1.6597486,7.1084185,-1.0115925,1.7861693,1.330464,8.431665662,2.446191858,crawl
27/03/2021, 15:25:38,-4.2248144,-2.308799,8.53106,-1.0115925,1.7861693,1.330464,9.795845969,2.446191858,crawl
27/03/2021, 15:25:38,-4.2248144,-2.308799,8.53106,-0.8515458,1.8423688,1.1801912,9.795845969,2.347829718,crawl
27/03/2021, 15:25:38,-4.4595265,-2.7135572,8.871153,-0.8515458,1.8423688,1.1801912,10.29311047,2.347829718,crawl
27/03/2021, 15:25:38,-4.4595265,-2.7135572,8.871153,-0.7501422,1.8875729,1.1032223,10.29311047,2.311437664,crawl
27/03/2021, 15:25:38,-4.528982,-1.092129,8.420889,-0.7501422,1.8875729,1.1032223,9.623710046,2.311437664,crawl
27/03/2021, 15:25:38,-4.528982,-1.092129,8.420889,-0.91141057,1.9523246,0.9688319,9.623710046,2.36238776,crawl
27/03/2021, 15:25:38,-4.6678934,-0.34488282,7.699988,-0.91141057,1.9523246,0.9688319,9.010992538,2.36238776,crawl
27/03/2021, 15:25:38,-4.6678934,-0.34488282,7.699988,-1.1838564,1.9840896,0.89674985,9.010992538,2.478363935,crawl
27/03/2021, 15:25:38,-5.743257,-1.2525953,7.9969707,-1.1838564,1.9840896,0.89674985,9.924995523,2.478363935,crawl
27/03/2021, 15:25:38,-5.743257,-1.2525953,7.9969707,-1.4428631,2.0207415,0.81245047,9.924995523,2.612532443,crawl
27/03/2021, 15:25:38,-6.327642,-1.1328443,8.983719,-1.4428631,2.0207415,0.81245047,11.04670059,2.612532443,crawl
27/03/2021, 15:25:38,-6.327642,-1.1328443,8.983719,-1.538158,2.0439544,0.84543717,11.04670059,2.694149903,crawl
27/03/2021, 15:25:39,-6.3084817,7.038963,-4.358936,-6.686528,-0.46181396,2.0720541,10.40885492,7.015435836,crawl
27/03/2021, 15:25:39,-4.8571,6.715635,-4.2152348,-6.686528,-0.46181396,2.0720541,9.298353383,7.015435836,crawl
27/03/2021, 15:25:39,-4.8571,6.715635,-4.2152348,-7.06893,-0.5400047,1.9950851,9.298353383,7.364899397,crawl
27/03/2021, 15:25:39,-4.038003,5.637876,-4.0835085,-7.06893,-0.5400047,1.9950851,8.047742276,7.364899397,crawl
27/03/2021, 15:25:39,-4.038003,5.637876,-4.0835085,-7.254633,-0.5302308,1.9718722,8.047742276,7.536519354,crawl
27/03/2021, 15:25:39,-4.378096,5.362449,-3.3721876,-7.254633,-0.5302308,1.9718722,7.700339985,7.536519354,crawl
27/03/2021, 15:25:39,-4.378096,5.362449,-3.3721876,-7.177664,-0.4679226,1.9889765,7.700339985,7.462830338,crawl
27/03/2021, 15:25:39,-5.103787,5.7983427,-2.938689,-7.177664,-0.4679226,1.9889765,8.264702796,7.462830338,crawl
27/03/2021, 15:25:39,-5.103787,5.7983427,-2.938689,-6.936983,-0.38606668,2.0097458,8.264702796,7.232555596,crawl
27/03/2021, 15:25:39,-6.8521514,5.989944,-2.8740237,-6.936983,-0.38606668,2.0097458,9.544182506,7.232555596,crawl
27/03/2021, 15:25:39,-6.8521514,5.989944,-2.8740237,-6.784267,-0.3139846,1.9755374,9.544182506,7.073020038,crawl
27/03/2021, 15:25:39,-7.7071733,6.3899126,-4.0044727,-6.784267,-0.3139846,1.9755374,10.78273184,7.073020038,crawl
27/03/2021, 15:25:39,-7.7071733,6.3899126,-4.0044727,-6.7317324,-0.30298904,1.8069386,10.78273184,6.976607364,crawl
27/03/2021, 15:25:39,-7.793394,6.471343,-4.24637,-6.7317324,-0.30298904,1.8069386,10.98393959,6.976607364,crawl
27/03/2021, 15:25:39,-7.793394,6.471343,-4.24637,-6.6474333,-0.3579669,1.6530007,10.98393959,6.859221594,crawl
27/03/2021, 15:25:39,-7.175479,5.122947,-3.8224514,-6.6474333,-0.3579669,1.6530007,9.609537995,6.859221594,crawl
27/03/2021, 15:25:39,-7.175479,5.122947,-3.8224514,-6.504491,-0.42882723,1.57481,9.609537995,6.706140519,crawl
27/03/2021, 15:25:39,-5.8103175,4.7157936,-2.339934,-6.504491,-0.42882723,1.57481,7.840522346,6.706140519,crawl
27/03/2021, 15:25:39,-5.8103175,4.7157936,-2.339934,-6.2234926,-0.5009093,1.484402,7.840522346,6.417649079,crawl
27/03/2021, 15:25:39,-4.3565407,4.526587,-1.5376027,-6.2234926,-0.5009093,1.484402,6.467894449,6.417649079,crawl
27/03/2021, 15:25:40,6.07856,1.9830762,2.5890162,2.6658149,1.92789,-2.1160364,6.898150934,3.911641433,crawl
27/03/2021, 15:25:40,5.374424,2.9889846,2.440525,2.6658149,1.92789,-2.1160364,6.616239454,3.911641433,crawl
27/03/2021, 15:25:40,5.374424,2.9889846,2.440525,2.3628259,2.063502,-2.0073025,6.616239454,3.724278496,crawl
27/03/2021, 15:25:40,4.6199927,3.6691701,2.3998096,2.3628259,2.063502,-2.0073025,6.369162307,3.724278496,crawl
27/03/2021, 15:25:40,4.6199927,3.6691701,2.3998096,1.7348566,2.131919,-1.9975286,6.369162307,3.39778251,crawl
27/03/2021, 15:25:40,3.8008962,4.387676,1.5232325,1.7348566,2.131919,-1.9975286,6.00156208,3.39778251,crawl
27/03/2021, 15:25:40,3.8008962,4.387676,1.5232325,1.0067055,1.9987503,-2.0158546,6.00156208,3.011997451,crawl
27/03/2021, 15:25:40,2.4069948,4.751719,2.3806496,1.0067055,1.9987503,-2.0158546,5.834376561,3.011997451,crawl
27/03/2021, 15:25:40,2.4069948,4.751719,2.3806496,0.52045697,1.7861693,-1.9339986,5.834376561,2.683584677,crawl
27/03/2021, 15:25:40,1.6765138,4.7133985,3.027305,0.52045697,1.7861693,-1.9339986,5.847341138,2.683584677,crawl
27/03/2021, 15:25:40,1.6765138,4.7133985,3.027305,0.16982047,1.6371182,-1.7898345,5.847341138,2.431563817,crawl
27/03/2021, 15:25:40,1.3867164,4.3469605,4.064348,0.16982047,1.6371182,-1.7898345,6.110480727,2.431563817,crawl
27/03/2021, 15:25:40,1.3867164,4.3469605,4.064348,0.08429937,1.5906925,-1.5833621,6.110480727,2.245984111,crawl
27/03/2021, 15:25:40,1.1232642,3.9326222,5.743257,0.08429937,1.5906925,-1.5833621,7.050690836,2.245984111,crawl
27/03/2021, 15:25:40,1.1232642,3.9326222,5.743257,0.22235486,1.6212357,-1.3720028,7.050690836,2.135471555,crawl
27/03/2021, 15:25:40,0.5388794,3.2404616,6.6988697,0.22235486,1.6212357,-1.3720028,7.460954204,2.135471555,crawl
27/03/2021, 15:25:40,0.5388794,3.2404616,6.6988697,0.35185826,1.6505573,-1.1594218,7.460954204,2.047535709,crawl
27/03/2021, 15:25:40,-0.17723145,3.0033545,6.983877,0.35185826,1.6505573,-1.1594218,7.604346785,2.047535709,crawl
27/03/2021, 15:25:40,-0.17723145,3.0033545,6.983877,0.49968758,1.6224575,-0.93340176,7.604346785,1.937342222,crawl
27/03/2021, 15:25:40,-0.76161623,3.3865578,7.424561,0.49968758,1.6224575,-0.93340176,8.195909927,1.937342222,crawl
27/03/2021, 15:25:41,2.2632935,-8.847202,5.910908,0.733038,-0.7843507,1.8435906,10.87815803,2.133395672,crawl
27/03/2021, 15:25:41,1.8753004,-8.859178,5.6594315,0.733038,-0.7843507,1.8435906,10.67852722,2.133395672,crawl
27/03/2021, 15:25:41,1.8753004,-8.859178,5.6594315,0.7134903,-0.8344416,1.8680252,10.67852722,2.166767014,crawl
27/03/2021, 15:25:41,1.7771046,-8.844808,5.345684,0.7134903,-0.8344416,1.8680252,10.48642268,2.166767014,crawl
27/03/2021, 15:25:41,1.7771046,-8.844808,5.345684,0.6438517,-0.8723152,1.92789,10.48642268,2.211840523,crawl
27/03/2021, 15:25:41,1.9208057,-8.650811,5.110972,0.6438517,-0.8723152,1.92789,10.22976358,2.211840523,crawl
27/03/2021, 15:25:41,1.9208057,-8.650811,5.110972,0.51923525,-0.8881977,1.9926417,10.22976358,2.242570251,crawl
27/03/2021, 15:25:41,1.9782863,-8.57417,4.8259645,0.51923525,-0.8881977,1.9926417,10.03593257,2.242570251,crawl
27/03/2021, 15:25:41,1.9782863,-8.57417,4.8259645,0.34697133,-0.89308465,2.063502,10.03593257,2.27508903,crawl
27/03/2021, 15:25:41,1.9830762,-8.619676,4.5649076,0.34697133,-0.89308465,2.063502,9.953380345,2.27508903,crawl
27/03/2021, 15:25:41,1.9830762,-8.619676,4.5649076,0.13316858,-0.87353694,2.1624622,9.953380345,2.336031588,crawl
27/03/2021, 15:25:41,1.7914747,-8.732242,4.3182206,0.13316858,-0.87353694,2.1624622,9.904971215,2.336031588,crawl
27/03/2021, 15:25:41,1.7914747,-8.732242,4.3182206,-0.07941245,-0.8344416,2.285857,9.904971215,2.434695294,crawl
27/03/2021, 15:25:41,1.4849122,-9.029224,4.282295,-0.07941245,-0.8344416,2.285857,10.10296539,2.434695294,crawl
27/03/2021, 15:25:41,1.4849122,-9.029224,4.282295,-0.27733272,-0.8136722,2.4263558,10.10296539,2.574136461,crawl
27/03/2021, 15:25:41,1.1472144,-9.369317,4.1888895,-0.27733272,-0.8136722,2.4263558,10.32700335,2.574136461,crawl
27/03/2021, 15:25:41,1.1472144,-9.369317,4.1888895,-0.43982282,-0.8222243,2.5729635,10.32700335,2.736720299,crawl
27/03/2021, 15:25:41,0.73527104,-9.692644,4.0930886,-0.43982282,-0.8222243,2.5729635,10.5471014,2.736720299,crawl
27/03/2021, 15:25:41,0.73527104,-9.692644,4.0930886,-0.57543486,-0.82833296,2.715906,10.5471014,2.897137494,crawl
27/03/2021, 15:25:41,0.39517823,-10.054293,3.9445972,-0.57543486,-0.82833296,2.715906,10.80762761,2.897137494,crawl
27/03/2021, 15:25:42,-0.9963282,-5.6570363,5.872588,-1.2632688,-0.4923572,0.53756124,8.214744138,1.458504653,crawl
27/03/2021, 15:25:42,0.6945557,-5.831873,6.706055,-1.2632688,-0.4923572,0.53756124,8.914276498,1.458504653,crawl
27/03/2021, 15:25:42,0.6945557,-5.831873,6.706055,-0.8356633,0.054977853,-0.27000234,8.914276498,0.879918751,crawl
27/03/2021, 15:25:42,0.9388477,-6.119275,8.01613,-0.8356633,0.054977853,-0.27000234,10.12844065,0.879918751,crawl
27/03/2021, 15:25:42,0.9388477,-6.119275,8.01613,-0.00366519,0.9358452,-0.70860344,10.12844065,1.173856253,crawl
27/03/2021, 15:25:42,0.100590825,-5.774392,8.8951025,-0.00366519,0.9358452,-0.70860344,10.60549723,1.173856253,crawl
27/03/2021, 15:25:42,0.100590825,-5.774392,8.8951025,1.1753043,1.7055352,-0.9016368,10.60549723,2.259012902,crawl
27/03/2021, 15:25:42,-1.9639161,-5.0894165,8.392149,1.1753043,1.7055352,-0.9016368,10.00936017,2.259012902,crawl
27/03/2021, 15:25:42,-1.9639161,-5.0894165,8.392149,2.3530521,2.0427327,-1.0286967,10.00936017,3.2814369,crawl
27/03/2021, 15:25:42,-4.751719,-4.430786,7.168294,2.3530521,2.0427327,-1.0286967,9.674457989,3.2814369,crawl
27/03/2021, 15:25:42,-4.751719,-4.430786,7.168294,3.2607975,2.0463977,-1.0604616,9.674457989,3.993134448,crawl
27/03/2021, 15:25:42,-7.2688847,-3.2500417,6.574329,3.2607975,2.0463977,-1.0604616,10.32575691,3.993134448,crawl
27/03/2021, 15:25:42,-7.2688847,-3.2500417,6.574329,3.8679972,1.9156727,-0.9969317,10.32575691,4.430019932,crawl
27/03/2021, 15:25:42,-8.552615,-1.4058765,6.1935205,3.8679972,1.9156727,-0.9969317,10.65285932,4.430019932,crawl
27/03/2021, 15:25:42,-8.552615,-1.4058765,6.1935205,4.131891,1.7470739,-0.9688319,10.65285932,4.58949058,crawl
27/03/2021, 15:25:42,-9.067544,0.3161426,5.9372535,4.131891,1.7470739,-0.9688319,10.84302904,4.58949058,crawl
27/03/2021, 15:25:42,-9.067544,0.3161426,5.9372535,4.0708046,1.4770716,-1.0519096,10.84302904,4.456422829,crawl
27/03/2021, 15:25:42,-9.285491,1.5543678,5.839058,4.0708046,1.4770716,-1.0519096,11.07840239,4.456422829,crawl
27/03/2021, 15:25:42,-9.285491,1.5543678,5.839058,3.7824762,1.1301003,-1.2180648,11.07840239,4.13133568,crawl
27/03/2021, 15:25:42,-9.302257,1.9998415,5.712122,3.7824762,1.1301003,-1.2180648,11.09773313,4.13133568,crawl
27/03/2021, 15:25:43,-5.223538,-5.815108,6.0114994,-0.96150154,-1.1569784,0.6462952,9.860981315,1.637309264,crawl
27/03/2021, 15:25:43,-4.543352,-5.9133034,6.327642,-0.96150154,-1.1569784,0.6462952,9.77999275,1.637309264,crawl
27/03/2021, 15:25:43,-4.543352,-5.9133034,6.327642,-0.67195153,-1.1508697,0.64263,9.77999275,1.479524682,crawl
27/03/2021, 15:25:43,-3.9422023,-5.9707837,6.6342044,-0.67195153,-1.1508697,0.64263,9.757247828,1.479524682,crawl
27/03/2021, 15:25:43,-3.9422023,-5.9707837,6.6342044,-0.3995057,-1.0885614,0.6316344,9.757247828,1.32042902,crawl
27/03/2021, 15:25:43,-3.551814,-5.9300685,6.8832865,-0.3995057,-1.0885614,0.6316344,9.755036048,1.32042902,crawl
27/03/2021, 15:25:43,-3.551814,-5.9300685,6.8832865,-0.12583819,-0.9676102,0.629191,9.755036048,1.161027994,crawl
27/03/2021, 15:25:43,-3.523074,-5.855823,7.223379,-0.12583819,-0.9676102,0.629191,9.943838263,1.161027994,crawl
27/03/2021, 15:25:43,-3.523074,-5.855823,7.223379,0.14416414,-0.8148939,0.61941713,9.943838263,1.033689002,crawl
27/03/2021, 15:25:43,-3.8416114,-5.8175025,7.1395535,0.14416414,-0.8148939,0.61941713,9.978704235,1.033689002,crawl
27/03/2021, 15:25:43,-3.8416114,-5.8175025,7.1395535,0.3652973,-0.6670646,0.6120867,9.978704235,0.976251731,crawl
27/03/2021, 15:25:43,-4.406836,-5.7001467,7.0078273,0.3652973,-0.6670646,0.6120867,10.05094618,0.976251731,crawl
27/03/2021, 15:25:43,-4.406836,-5.7001467,7.0078273,0.51923525,-0.533896,0.60719985,10.05094618,0.960906797,crawl
27/03/2021, 15:25:43,-5.087022,-5.50136,6.8042507,0.51923525,-0.533896,0.60719985,10.1212934,0.960906797,crawl
27/03/2021, 15:25:43,-5.087022,-5.50136,6.8042507,0.6157519,-0.37751457,0.60109115,10.1212934,0.939669222,crawl
27/03/2021, 15:25:43,-5.942044,-5.3863993,6.6605496,0.6157519,-0.37751457,0.60109115,10.4251668,0.939669222,crawl
27/03/2021, 15:25:43,-5.942044,-5.3863993,6.6605496,0.7171555,-0.15393798,0.64140826,10.4251668,0.974378519,crawl
27/03/2021, 15:25:43,-7.436536,-5.49178,6.825806,0.7171555,-0.15393798,0.64140826,11.49144639,0.974378519,crawl
27/03/2021, 15:25:43,-7.436536,-5.49178,6.825806,0.8820891,0.09407321,0.77457684,11.49144639,1.177667269,crawl
27/03/2021, 15:25:43,-9.287886,-5.5612354,7.096443,0.8820891,0.09407321,0.77457684,12.94417496,1.177667269,crawl
27/03/2021, 15:25:44,-4.2080493,-9.592053,1.839375,2.1392493,0.5119049,-1.6102402,10.63477635,2.726042528,crawl
27/03/2021, 15:25:44,-4.4619217,-9.872271,1.2813355,2.1392493,0.5119049,-1.6102402,10.90927552,2.726042528,crawl
27/03/2021, 15:25:44,-4.4619217,-9.872271,1.2813355,1.7959431,0.7305946,-1.6236792,10.90927552,2.528935392,crawl
27/03/2021, 15:25:44,-5.0343313,-10.164463,1.2382251,1.7959431,0.7305946,-1.6236792,11.41025864,2.528935392,crawl
27/03/2021, 15:25:44,-5.0343313,-10.164463,1.2382251,1.3597856,0.8662066,-1.5454885,11.41025864,2.233352915,crawl
27/03/2021, 15:25:44,-6.0450296,-10.540482,1.9998415,1.3597856,0.8662066,-1.5454885,12.31436157,2.233352915,crawl
27/03/2021, 15:25:44,-6.0450296,-10.540482,1.9998415,1.0360271,0.8820891,-1.3072511,12.31436157,1.886885971,crawl
27/03/2021, 15:25:44,-7.549102,-10.827884,3.4416432,1.0360271,0.8820891,-1.3072511,13.64100115,1.886885971,crawl
27/03/2021, 15:25:44,-7.549102,-10.827884,3.4416432,0.8833108,0.86498487,-0.8173374,13.64100115,1.482051686,crawl
27/03/2021, 15:25:44,-8.816068,-10.145303,4.4595265,0.8833108,0.86498487,-0.8173374,14.16112972,1.482051686,crawl
27/03/2021, 15:25:44,-8.816068,-10.145303,4.4595265,0.80389833,0.94684076,-0.26267195,14.16112972,1.269549729,crawl
27/03/2021, 15:25:44,-8.473579,-9.177715,4.3373804,0.80389833,0.94684076,-0.26267195,13.22289208,1.269549729,crawl
27/03/2021, 15:25:44,-8.473579,-9.177715,4.3373804,0.44226626,1.0396923,-0.036651902,13.22289208,1.13044365,crawl
27/03/2021, 15:25:44,-7.937095,-10.358459,3.2548318,0.44226626,1.0396923,-0.036651902,13.44950156,1.13044365,crawl
27/03/2021, 15:25:44,-7.937095,-10.358459,3.2548318,-0.30176732,0.9358452,0.03298671,13.44950156,0.983848499,crawl
27/03/2021, 15:25:44,-8.121511,-12.652888,3.3410523,-0.30176732,0.9358452,0.03298671,15.40185577,0.983848499,crawl
27/03/2021, 15:25:44,-8.121511,-12.652888,3.3410523,-0.99082303,0.60719985,0.13072512,15.40185577,1.169406255,crawl
27/03/2021, 15:25:44,-7.0365677,-14.300662,4.167334,-0.99082303,0.60719985,0.13072512,16.47388518,1.169406255,crawl
27/03/2021, 15:25:44,-7.0365677,-14.300662,4.167334,-1.3829983,0.32375845,0.025656331,16.47388518,1.420620362,crawl
27/03/2021, 15:25:44,-5.6809864,-14.760506,5.5301003,-1.3829983,0.32375845,0.025656331,16.75494387,1.420620362,crawl
27/03/2021, 15:25:45,0.16765137,-9.690249,4.0499783,0.99448824,0.8381068,-0.74036837,10.50387382,1.496521033,crawl
27/03/2021, 15:25:45,-0.11496094,-9.618399,4.054768,0.99448824,0.8381068,-0.74036837,10.43877163,1.496521033,crawl
27/03/2021, 15:25:45,-0.11496094,-9.618399,4.054768,0.9480625,0.77824205,-0.8185591,10.43877163,1.474626113,crawl
27/03/2021, 15:25:45,-0.2706372,-9.474698,3.9613624,0.9480625,0.77824205,-0.8185591,10.27304919,1.474626113,crawl
27/03/2021, 15:25:45,-0.2706372,-9.474698,3.9613624,0.87842387,0.7037165,-0.87598044,10.27304919,1.426249332,crawl
27/03/2021, 15:25:45,-0.31374758,-9.402847,3.7625759,0.87842387,0.7037165,-0.87598044,10.13256887,1.426249332,crawl
27/03/2021, 15:25:45,-0.31374758,-9.402847,3.7625759,0.7892376,0.6267475,-0.93340176,10.13256887,1.373661998,crawl
27/03/2021, 15:25:45,-0.12454102,-9.374106,3.5901344,0.7892376,0.6267475,-0.93340176,10.03884686,1.373661998,crawl
27/03/2021, 15:25:45,-0.12454102,-9.374106,3.5901344,0.6780602,0.5668827,-0.99815345,10.03884686,1.333203636,crawl
27/03/2021, 15:25:45,0.17244141,-9.211246,3.422483,0.6780602,0.5668827,-0.99815345,9.828029815,1.333203636,crawl
27/03/2021, 15:25:45,0.17244141,-9.211246,3.422483,0.6316344,0.5106832,-1.0458009,9.828029815,1.324182357,crawl
27/03/2021, 15:25:45,0.34009278,-9.206455,3.4416432,0.6316344,0.5106832,-1.0458009,9.834601628,1.324182357,crawl
27/03/2021, 15:25:45,0.34009278,-9.206455,3.4416432,0.6682863,0.43860108,-1.0775659,9.834601628,1.341687669,crawl
27/03/2021, 15:25:45,0.42152345,-9.438772,3.7386258,0.6682863,0.43860108,-1.0775659,10.16097561,1.341687669,crawl
27/03/2021, 15:25:45,0.42152345,-9.438772,3.7386258,0.68905574,0.38484496,-1.1056657,10.16097561,1.358455027,crawl
27/03/2021, 15:25:45,0.45505372,-9.683064,4.181704,0.68905574,0.38484496,-1.1056657,10.5572468,1.358455027,crawl
27/03/2021, 15:25:45,0.45505372,-9.683064,4.181704,0.6817254,0.3420844,-1.1533132,10.5572468,1.38271562,crawl
27/03/2021, 15:25:45,0.4382886,-9.570498,4.3301954,0.6817254,0.3420844,-1.1533132,10.51366398,1.38271562,crawl
27/03/2021, 15:25:45,0.4382886,-9.570498,4.3301954,0.6597342,0.27733272,-1.2058475,10.51366398,1.402223533,crawl
27/03/2021, 15:25:45,0.4263135,-9.371712,4.368516,0.6597342,0.27733272,-1.2058475,10.34865478,1.402223533,crawl
27/03/2021, 15:25:46,-0.31374758,4.385281,8.566985,0.3139846,0.00610865,1.606575,9.62924514,1.636981037,crawl
27/03/2021, 15:25:46,-0.31374758,4.385281,8.566985,0.3652973,0.10506878,1.6395617,9.62924514,1.68304604,crawl
27/03/2021, 15:25:46,-0.31374758,4.385281,8.566985,0.6059781,0.19669853,1.6591094,9.62924514,1.777229187,crawl
27/03/2021, 15:25:46,0.87178713,4.663103,8.076006,0.6059781,0.19669853,1.6591094,9.366238051,1.777229187,crawl
27/03/2021, 15:25:46,0.87178713,4.663103,8.076006,0.59131736,0.24434601,1.6236792,9.366238051,1.745192025,crawl
27/03/2021, 15:25:46,0.48618898,6.3875175,7.175479,0.59131736,0.24434601,1.6236792,9.618953003,1.745192025,crawl
27/03/2021, 15:25:46,0.48618898,6.3875175,7.175479,0.2651154,0.21258102,1.6664398,9.618953003,1.70073466,crawl
27/03/2021, 15:25:46,0.035925295,7.1611085,6.550379,0.2651154,0.21258102,1.6664398,9.705165012,1.70073466,crawl
27/03/2021, 15:25:46,0.035925295,7.1611085,6.550379,-0.16982047,0.11484262,1.5723666,9.705165012,1.585674787,crawl
27/03/2021, 15:25:46,-0.39757326,7.3862405,7.565867,-0.16982047,0.11484262,1.5723666,10.58097139,1.585674787,crawl
27/03/2021, 15:25:46,-0.39757326,7.3862405,7.565867,-0.42271858,0.07941245,1.5845839,10.58097139,1.641920646,crawl
27/03/2021, 15:25:46,-0.55803955,5.975574,7.7287283,-0.42271858,0.07941245,1.5845839,9.785301938,1.641920646,crawl
27/03/2021, 15:25:46,-0.55803955,5.975574,7.7287283,-0.25167638,0.12705992,1.606575,9.785301938,1.631124917,crawl
27/03/2021, 15:25:46,0.6562354,5.2858086,8.363408,-0.25167638,0.12705992,1.606575,9.915493529,1.631124917,crawl
27/03/2021, 15:25:46,0.6562354,5.2858086,8.363408,-0.018325951,0.15271625,1.5552623,9.915493529,1.562849641,crawl
27/03/2021, 15:25:46,1.3172607,4.974456,8.138277,-0.018325951,0.15271625,1.5552623,9.628703968,1.562849641,crawl
27/03/2021, 15:25:46,1.3172607,4.974456,8.138277,0.1710422,0.16859874,1.6126837,9.628703968,1.630469116,crawl
27/03/2021, 15:25:46,0.62989014,5.1157618,8.1071415,0.1710422,0.16859874,1.6126837,9.606951814,1.630469116,crawl
27/03/2021, 15:25:46,0.62989014,5.1157618,8.1071415,0.39706227,0.1869247,1.6310096,9.606951814,1.689020881,crawl
27/03/2021, 15:25:46,-0.6394702,4.8379397,7.831714,0.39706227,0.1869247,1.6310096,9.227693626,1.689020881,crawl
27/03/2021, 15:25:47,-2.692002,-8.3322735,7.544312,2.9981256,-1.2913686,-2.7501142,11.55812701,4.268432714,crawl
27/03/2021, 15:25:47,-1.4825171,-8.643626,6.2342362,2.9981256,-1.2913686,-2.7501142,10.75991787,4.268432714,crawl
27/03/2021, 15:25:47,-1.4825171,-8.643626,6.2342362,2.7818792,-1.099557,-2.6951365,10.75991787,4.026367905,crawl
27/03/2021, 15:25:47,-1.954336,-8.349038,7.2928348,2.7818792,-1.099557,-2.6951365,11.25661165,4.026367905,crawl
27/03/2021, 15:25:47,-1.954336,-8.349038,7.2928348,2.778214,-0.89308465,-2.5045466,11.25661165,3.845624393,crawl
27/03/2021, 15:25:47,-1.1903248,-8.054451,4.967271,2.778214,-0.89308465,-2.5045466,9.537548612,3.845624393,crawl
27/03/2021, 15:25:47,-1.1903248,-8.054451,4.967271,2.737897,-0.94561905,-2.3102915,9.537548612,3.705094043,crawl
27/03/2021, 15:25:47,0.6179151,-7.431746,6.4282327,2.737897,-0.94561905,-2.3102915,9.845549402,3.705094043,crawl
27/03/2021, 15:25:47,0.6179151,-7.431746,6.4282327,2.597398,-0.8588762,-2.2748613,9.845549402,3.55796839,crawl
27/03/2021, 15:25:47,1.8705103,-6.303692,5.5324955,2.597398,-0.8588762,-2.2748613,8.593244235,3.55796839,crawl
27/03/2021, 15:25:47,1.8705103,-6.303692,5.5324955,2.4483469,-0.855211,-2.1868968,8.593244235,3.392389397,crawl
27/03/2021, 15:25:47,1.4370118,-7.5299416,7.8197393,2.4483469,-0.855211,-2.1868968,10.95049525,3.392389397,crawl
27/03/2021, 15:25:47,1.4370118,-7.5299416,7.8197393,2.7171276,-0.71837723,-2.0647237,10.95049525,3.48739618,crawl
27/03/2021, 15:25:47,1.6190332,-7.9802055,9.376502,2.7171276,-0.71837723,-2.0647237,12.41868509,3.48739618,crawl
27/03/2021, 15:25:47,1.6190332,-7.9802055,9.376502,2.8930566,-0.38117978,-2.1294754,12.41868509,3.612442385,crawl
27/03/2021, 15:25:47,1.3555812,-8.111932,9.115445,2.8930566,-0.38117978,-2.1294754,12.27731151,3.612442385,crawl
27/03/2021, 15:25:47,1.3555812,-8.111932,9.115445,2.836857,-0.17348567,-2.0146327,12.27731151,3.483762376,crawl
27/03/2021, 15:25:47,-0.71371585,-6.3994923,8.040081,2.836857,-0.17348567,-2.0146327,10.30076669,3.483762376,crawl
27/03/2021, 15:25:47,-0.71371585,-6.3994923,8.040081,2.651154,-0.12461646,-1.696983,10.30076669,3.150221936,crawl
27/03/2021, 15:25:47,-0.5987549,-5.278623,6.222261,2.651154,-0.12461646,-1.696983,8.181619683,3.150221936,crawl
27/03/2021, 15:25:48,-14.791641,-11.876903,3.3218923,-3.6493075,3.3597577,-0.3457496,19.25846395,4.972419881,crawl
27/03/2021, 15:25:48,-13.836028,-11.132051,6.2677665,-3.6493075,3.3597577,-0.3457496,18.83197122,4.972419881,crawl
27/03/2021, 15:25:48,-13.836028,-11.132051,6.2677665,-3.9449663,3.402518,-0.36163208,18.83197122,5.22213232,crawl
27/03/2021, 15:25:48,-12.947476,-8.844808,5.8438478,-3.9449663,3.402518,-0.36163208,16.73374803,5.22213232,crawl
27/03/2021, 15:25:48,-12.947476,-8.844808,5.8438478,-4.2565074,3.4770436,-0.3420844,16.73374803,5.506787571,crawl
27/03/2021, 15:25:48,-13.313914,-11.941567,5.007986,-4.2565074,3.4770436,-0.3420844,18.57259462,5.506787571,crawl
27/03/2021, 15:25:48,-13.313914,-11.941567,5.007986,-4.366463,3.4611611,-0.44104454,18.57259462,5.589289529,crawl
27/03/2021, 15:25:48,-12.3487215,-12.961846,7.443721,-4.366463,3.4611611,-0.44104454,19.38838217,5.589289529,crawl
27/03/2021, 15:25:48,-12.3487215,-12.961846,7.443721,-4.338363,3.5540125,-0.74159014,19.38838217,5.657062493,crawl
27/03/2021, 15:25:48,-14.020445,-13.424085,7.311995,-4.338363,3.5540125,-0.74159014,20.74232857,5.657062493,crawl
27/03/2021, 15:25:48,-14.020445,-13.424085,7.311995,-4.389676,3.4941478,-0.97738403,20.74232857,5.695050873,crawl
27/03/2021, 15:25:48,-15.026353,-17.70159,6.4905033,-4.389676,3.4941478,-0.97738403,24.10942115,5.695050873,crawl
27/03/2021, 15:25:48,-15.026353,-17.70159,6.4905033,-4.376237,3.299893,-1.1508697,24.10942115,5.60046818,crawl
27/03/2021, 15:25:48,-13.704303,-17.874031,7.9562554,-4.376237,3.299893,-1.1508697,23.88704465,5.60046818,crawl
27/03/2021, 15:25:48,-13.704303,-17.874031,7.9562554,-4.630357,3.1911588,-1.5503753,23.88704465,5.833297695,crawl
27/03/2021, 15:25:48,-9.917776,-16.525635,8.176597,-4.630357,3.1911588,-1.5503753,20.93598863,5.833297695,crawl
27/03/2021, 15:25:48,-9.917776,-16.525635,8.176597,-5.2400002,2.8698437,-1.9364421,20.93598863,6.28039917,crawl
27/03/2021, 15:25:48,-9.115445,-19.380499,10.559642,-5.2400002,2.8698437,-1.9364421,23.87888425,6.28039917,crawl
27/03/2021, 15:25:48,-9.115445,-19.380499,10.559642,-5.3096385,2.7892096,-2.0561717,23.87888425,6.340330677,crawl
27/03/2021, 15:25:48,-6.1384354,-20.209175,13.055252,-5.3096385,2.7892096,-2.0561717,24.83003734,6.340330677,crawl
27/03/2021, 15:25:49,-4.239185,5.894143,7.1227884,-0.9810492,1.086118,1.760513,10.17082721,2.289435652,crawl
27/03/2021, 15:25:49,-4.239185,5.894143,7.1227884,-1.149648,1.1557566,1.7250828,10.17082721,2.37347303,crawl
27/03/2021, 15:25:49,-4.272715,4.366121,7.3311553,-1.149648,1.1557566,1.7250828,9.542795359,2.37347303,crawl
27/03/2021, 15:25:49,-4.272715,4.366121,7.3311553,-1.407433,1.0934484,1.6041316,9.542795359,2.397860561,crawl
27/03/2021, 15:25:49,-4.88584,3.182981,7.932305,-1.407433,1.0934484,1.6041316,9.845011957,2.397860561,crawl
27/03/2021, 15:25:49,-4.88584,3.182981,7.932305,-1.2095127,1.0128142,1.665218,9.845011957,2.293831838,crawl
27/03/2021, 15:25:49,-6.095325,1.3292359,8.964559,-1.2095127,1.0128142,1.665218,10.92168329,2.293831838,crawl
27/03/2021, 15:25:49,-6.095325,1.3292359,8.964559,-0.95905805,1.0042621,1.9046772,10.92168329,2.357144403,crawl
27/03/2021, 15:25:49,-5.604346,3.3793726,7.173084,-0.95905805,1.0042621,1.9046772,9.709890933,2.357144403,crawl
27/03/2021, 15:25:49,-5.604346,3.3793726,7.173084,-0.97738403,0.9896013,1.9156727,9.709890933,2.36735972,crawl
27/03/2021, 15:25:49,-5.7552323,3.9661524,6.133645,-0.97738403,0.9896013,1.9156727,9.299175555,2.36735972,crawl
27/03/2021, 15:25:49,-5.7552323,3.9661524,6.133645,-1.3439031,1.0519096,1.9083422,9.299175555,2.560148296,crawl
27/03/2021, 15:25:49,-5.7552323,3.9661524,6.133645,-1.6554441,1.0665703,2.1074843,9.299175555,2.884364355,crawl
27/03/2021, 15:25:49,-7.0916533,3.1925611,5.5157304,-1.6554441,1.0665703,2.1074843,9.534530692,2.884364355,crawl
27/03/2021, 15:25:49,-6.1815457,3.1039455,5.110972,-1.6554441,1.0665703,2.1074843,8.600466228,2.884364355,crawl
27/03/2021, 15:25:49,-6.1815457,3.1039455,5.110972,-1.9547681,1.22173,2.0598369,8.600466228,3.091386463,crawl
27/03/2021, 15:25:49,-4.742139,3.403323,4.0978785,-1.9547681,1.22173,2.0598369,7.131836778,3.091386463,crawl
27/03/2021, 15:25:49,-4.742139,3.403323,4.0978785,-2.085493,1.2461647,1.7201959,7.131836778,2.976790508,crawl
27/03/2021, 15:25:49,-5.6570363,-0.53169435,3.7625759,-2.085493,1.2461647,1.7201959,6.814817369,2.976790508,crawl
27/03/2021, 15:25:49,-5.6570363,-0.53169435,3.7625759,-2.0916018,1.1679739,1.7434088,6.814817369,2.962842471,crawl
27/03/2021, 15:25:50,-3.1925611,0.5748047,9.17053,2.068389,1.3316858,1.4184285,9.727356964,2.839640707,crawl
27/03/2021, 15:25:50,-4.4619217,0.89573735,9.721385,2.068389,1.3316858,1.4184285,10.73389104,2.839640707,crawl
27/03/2021, 15:25:50,-4.4619217,0.89573735,9.721385,2.4459035,1.434311,1.5528189,10.73389104,3.232791175,crawl
27/03/2021, 15:25:50,-2.8428884,2.8883936,9.22801,2.4459035,1.434311,1.5528189,10.07874019,3.232791175,crawl
27/03/2021, 15:25:50,-2.8428884,2.8883936,9.22801,2.7855444,1.5589275,1.6224575,10.07874019,3.58076542,crawl
27/03/2021, 15:25:50,-3.171006,4.4691067,8.377779,2.7855444,1.5589275,1.6224575,10.01076293,3.58076542,crawl
27/03/2021, 15:25:50,-3.171006,4.4691067,8.377779,2.6975799,1.5418233,1.6187923,10.01076293,3.503518887,crawl
27/03/2021, 15:25:50,-3.2308815,6.552774,7.0198026,2.6975799,1.5418233,1.6187923,10.13188381,3.503518887,crawl
27/03/2021, 15:25:50,-3.2308815,6.552774,7.0198026,2.587624,1.4782933,1.5332712,10.13188381,3.35142805,crawl
27/03/2021, 15:25:50,-3.6763551,7.185059,7.5946074,2.587624,1.4782933,1.5332712,11.08236084,3.35142805,crawl
27/03/2021, 15:25:50,-3.6763551,7.185059,7.5946074,2.6218326,1.420872,1.4697412,11.08236084,3.324608648,crawl
27/03/2021, 15:25:50,-3.642825,5.5516553,7.9155397,2.6218326,1.420872,1.4697412,10.33183522,3.324608648,crawl
27/03/2021, 15:25:50,-3.642825,5.5516553,7.9155397,2.4788902,1.3817767,1.5051714,10.33183522,3.21243589,crawl
27/03/2021, 15:25:50,-3.5925295,5.625901,8.986114,2.4788902,1.3817767,1.5051714,11.19407297,3.21243589,crawl
27/03/2021, 15:25:50,-3.5925295,5.625901,8.986114,2.5363116,1.4147633,1.5723666,11.19407297,3.302539729,crawl
27/03/2021, 15:25:50,-3.6500099,4.636758,9.558523,2.5363116,1.4147633,1.5723666,11.23331922,3.302539729,crawl
27/03/2021, 15:25:50,-3.6500099,4.636758,9.558523,2.6010633,1.4355328,1.6041316,11.23331922,3.376317907,crawl
27/03/2021, 15:25:50,-4.4643164,3.9541774,9.309442,2.6010633,1.4355328,1.6041316,11.0558284,3.376317907,crawl
27/03/2021, 15:25:50,-4.4643164,3.9541774,9.309442,2.6670365,1.4685194,1.6847657,11.0558284,3.479665026,crawl
27/03/2021, 15:25:50,-4.8666797,5.4319043,9.026829,2.6670365,1.4685194,1.6847657,11.60490384,3.479665026,crawl
27/03/2021, 15:25:51,3.0776002,-9.642349,6.4186525,2.5925112,-0.82466775,-4.3432503,11.98522518,5.124940395,crawl
27/03/2021, 15:25:51,2.0405567,-7.647298,5.7983427,2.5925112,-0.82466775,-4.3432503,9.811514368,5.124940395,crawl
27/03/2021, 15:25:51,2.0405567,-7.647298,5.7983427,2.6878061,-0.886976,-4.243068,9.811514368,5.100456462,crawl
27/03/2021, 15:25:51,3.4057178,-7.084468,4.749324,2.6878061,-0.886976,-4.243068,9.183935775,5.100456462,crawl
27/03/2021, 15:25:51,3.4057178,-7.084468,4.749324,2.5326464,-1.0201446,-3.9987223,9.183935775,4.841980276,crawl
27/03/2021, 15:25:51,5.0487013,-7.9826,6.090535,2.5326464,-1.0201446,-3.9987223,11.23859019,4.841980276,crawl
27/03/2021, 15:25:51,5.0487013,-7.9826,6.090535,2.5754068,-1.0005969,-3.6456423,11.23859019,4.574343875,crawl
27/03/2021, 15:25:51,6.4210477,-9.436378,8.303533,2.5754068,-1.0005969,-3.6456423,14.11466358,4.574343875,crawl
27/03/2021, 15:25:51,6.4210477,-9.436378,8.303533,2.6535976,-0.9358452,-3.5222476,14.11466358,4.50817194,crawl
27/03/2021, 15:25:51,5.975574,-10.102193,8.966953,2.6535976,-0.9358452,-3.5222476,14.77051241,4.50817194,crawl
27/03/2021, 15:25:51,5.975574,-10.102193,8.966953,2.4495687,-0.86131966,-3.3341012,14.77051241,4.225930599,crawl
27/03/2021, 15:25:51,5.326524,-7.7646537,6.1575956,2.4495687,-0.86131966,-3.3341012,11.25067493,4.225930599,crawl
27/03/2021, 15:25:51,5.326524,-7.7646537,6.1575956,2.4581208,-0.6585125,-2.9211564,11.25067493,3.874164608,crawl
27/03/2021, 15:25:51,6.0019193,-3.66438,5.829478,2.4581208,-0.6585125,-2.9211564,9.134195504,3.874164608,crawl
27/03/2021, 15:25:51,6.0019193,-3.66438,5.829478,2.5106552,-0.48136163,-2.7085755,9.134195504,3.724443521,crawl
27/03/2021, 15:25:51,5.374424,-4.3421707,4.488267,2.5106552,-0.48136163,-2.7085755,8.239139507,3.724443521,crawl
27/03/2021, 15:25:51,5.374424,-4.3421707,4.488267,2.2773046,-0.48747027,-2.2883003,8.239139507,3.26497502,crawl
27/03/2021, 15:25:51,4.133804,-3.3673975,3.4967287,2.2773046,-0.48747027,-2.2883003,6.376112591,3.26497502,crawl
27/03/2021, 15:25:51,4.133804,-3.3673975,3.4967287,2.131919,-0.50213104,-1.6615528,6.376112591,2.749176509,crawl
27/03/2021, 15:25:51,5.3863993,-1.0370435,5.470225,2.131919,-0.50213104,-1.6615528,7.74674875,2.749176509,crawl
27/03/2021, 15:25:52,-10.99314,-8.229287,5.6905665,-2.9797995,3.5955515,-0.85643274,14.86448272,4.74770183,crawl
27/03/2021, 15:25:52,-10.99314,-8.229287,5.6905665,-3.0897553,3.6908464,-0.8185591,14.86448272,4.882517207,crawl
27/03/2021, 15:25:52,-14.082715,-10.145303,6.9216065,-3.0897553,3.6908464,-0.8185591,18.68578787,4.882517207,crawl
27/03/2021, 15:25:52,-14.082715,-10.145303,6.9216065,-2.5729635,4.101348,-0.6120867,18.68578787,4.880148152,crawl
27/03/2021, 15:25:52,-12.997771,-4.2990603,7.7526784,-2.5729635,4.101348,-0.6120867,15.73302259,4.880148152,crawl
27/03/2021, 15:25:52,-12.997771,-4.2990603,7.7526784,-2.711019,4.0512567,-1.027475,15.73302259,4.981767719,crawl
27/03/2021, 15:25:52,-13.996494,-3.0344899,7.422166,-2.711019,4.0512567,-1.027475,16.1306704,4.981767719,crawl
27/03/2021, 15:25:52,-13.996494,-3.0344899,7.422166,-3.2204804,3.8447845,-1.189965,16.1306704,5.154597835,crawl
27/03/2021, 15:25:52,-12.485237,-7.822134,11.01709,-3.2204804,3.8447845,-1.189965,18.39682568,5.154597835,crawl
27/03/2021, 15:25:52,-12.485237,-7.822134,11.01709,-3.452609,4.0023875,-1.3988808,18.39682568,5.467767628,crawl
27/03/2021, 15:25:52,-11.024276,-7.767049,8.744217,-3.452609,4.0023875,-1.3988808,16.07243086,5.467767628,crawl
27/03/2021, 15:25:52,-11.024276,-7.767049,8.744217,-3.1166332,4.1465516,-1.569923,16.07243086,5.419589557,crawl
27/03/2021, 15:25:52,-12.645703,-9.017249,8.416099,-3.1166332,4.1465516,-1.569923,17.6650873,5.419589557,crawl
27/03/2021, 15:25:52,-12.645703,-9.017249,8.416099,-2.7916532,3.8936536,-1.7116438,17.6650873,5.087591817,crawl
27/03/2021, 15:25:52,-13.534256,-9.812395,10.672208,-2.7916532,3.8936536,-1.7116438,19.83318438,5.087591817,crawl
27/03/2021, 15:25:52,-13.534256,-9.812395,10.672208,-3.1422896,3.8460062,-2.2614222,19.83318438,5.457085091,crawl
27/03/2021, 15:25:52,-13.37858,-11.924803,9.127419,-3.1422896,3.8460062,-2.2614222,20.11211359,5.457085091,crawl
27/03/2021, 15:25:52,-13.37858,-11.924803,9.127419,-3.832567,3.7580416,-2.452012,20.11211359,5.901170189,crawl
27/03/2021, 15:25:52,-15.112574,-12.221786,7.9466753,-3.832567,3.7580416,-2.452012,20.99789446,5.901170189,crawl
27/03/2021, 15:25:52,-15.112574,-12.221786,7.9466753,-4.113565,3.6053252,-2.615724,20.99789446,6.06315093,crawl
27/03/2021, 15:25:53,-2.6297317,8.50711,5.985154,0.63652134,0.8991933,2.0781627,10.72886169,2.352119909,crawl
27/03/2021, 15:25:53,-2.7614577,9.517808,6.444998,0.63652134,0.8991933,2.0781627,11.82168826,2.352119909,crawl
27/03/2021, 15:25:53,-2.7614577,9.517808,6.444998,0.13194685,0.8222243,2.0830498,11.82168826,2.243336614,crawl
27/03/2021, 15:25:53,-2.0429518,9.79084,5.743257,0.13194685,0.8222243,2.0830498,11.53339518,2.243336614,crawl
27/03/2021, 15:25:53,-2.0429518,9.79084,5.743257,-0.4276055,0.7147121,2.0207415,11.53339518,2.185647706,crawl
27/03/2021, 15:25:53,-2.191443,8.638836,5.807923,-0.4276055,0.7147121,2.0207415,10.63785109,2.185647706,crawl
27/03/2021, 15:25:53,-2.191443,8.638836,5.807923,-0.7855724,0.6597342,2.085493,10.63785109,2.324146,crawl
27/03/2021, 15:25:53,-1.7148341,7.7502837,6.215076,-0.7855724,0.6597342,2.085493,10.08140481,2.324146,crawl
27/03/2021, 15:25:53,-1.7148341,7.7502837,6.215076,-0.86865,0.68661225,2.086715,10.08140481,2.362280393,crawl
27/03/2021, 15:25:53,-1.3052857,7.541917,5.8055277,-0.86865,0.68661225,2.086715,9.606686848,2.362280393,crawl
27/03/2021, 15:25:53,-1.3052857,7.541917,5.8055277,-0.9077454,0.7159338,2.0647237,9.606686848,2.366357335,crawl
27/03/2021, 15:25:53,-1.7747096,7.316785,4.9864306,-0.9077454,0.7159338,2.0647237,9.030472045,2.366357335,crawl
27/03/2021, 15:25:53,-1.7747096,7.316785,4.9864306,-0.91141057,0.6963861,2.0036373,9.030472045,2.308719409,crawl
27/03/2021, 15:25:53,-2.5123756,6.933582,4.636758,-0.91141057,0.6963861,2.0036373,8.711263483,2.308719409,crawl
27/03/2021, 15:25:53,-2.5123756,6.933582,4.636758,-0.8710935,0.6792819,1.914451,8.711263483,2.210282886,crawl
27/03/2021, 15:25:53,-3.3362625,6.559959,3.8008962,-0.8710935,0.6792819,1.914451,8.283146753,2.210282886,crawl
27/03/2021, 15:25:53,-3.3362625,6.559959,3.8008962,-0.6829471,0.6817254,1.8215995,8.283146753,2.061405083,crawl
27/03/2021, 15:25:53,-3.6452198,6.351592,3.6739602,-0.6829471,0.6817254,1.8215995,8.193188193,2.061405083,crawl
27/03/2021, 15:25:53,-3.6452198,6.351592,3.6739602,-0.43860108,0.687834,1.7568477,8.193188193,1.937008138,crawl
27/03/2021, 15:25:53,-3.4416432,5.0894165,3.7625759,-0.43860108,0.687834,1.7568477,7.204446243,1.937008138,crawl
27/03/2021, 15:25:54,0.46702883,-0.11496094,9.08431,0.018325951,0.44593146,1.529606,9.097033167,1.593387956,crawl
27/03/2021, 15:25:54,-0.91729254,-1.5807129,10.36325,0.018325951,0.44593146,1.529606,10.52316611,1.593387956,crawl
27/03/2021, 15:25:54,-0.91729254,-1.5807129,10.36325,-0.13439031,0.30665424,1.7201959,10.52316611,1.752475814,crawl
27/03/2021, 15:25:54,-0.488584,-2.2489235,10.851834,-0.13439031,0.30665424,1.7201959,11.09318165,1.752475814,crawl
27/03/2021, 15:25:54,-0.488584,-2.2489235,10.851834,0.12828165,0.62430406,2.0292935,11.09318165,2.127027032,crawl
27/03/2021, 15:25:54,-0.8286768,-3.5829494,14.049185,0.12828165,0.62430406,2.0292935,14.5225282,2.127027032,crawl
27/03/2021, 15:25:54,-1.947151,-2.823728,11.227852,0.12828165,0.62430406,2.0292935,11.74008069,2.127027032,crawl
27/03/2021, 15:25:54,-1.947151,-2.823728,11.227852,0.4960224,0.7305946,1.9364421,11.74008069,2.128289174,crawl
27/03/2021, 15:25:54,-1.947151,-2.823728,11.227852,0.24190255,0.33597577,2.0268502,11.74008069,2.068699685,crawl
27/03/2021, 15:25:54,-2.2513185,-0.49576905,10.669812,0.24190255,0.33597577,2.0268502,10.91600266,2.068699685,crawl
27/03/2021, 15:25:54,-2.2513185,-0.49576905,10.669812,-0.37873632,0.16615528,2.172236,10.91600266,2.211257078,crawl
27/03/2021, 15:25:54,-2.5985963,-0.9268726,9.683064,-0.37873632,0.16615528,2.172236,10.06844244,2.211257078,crawl
27/03/2021, 15:25:54,-2.5985963,-0.9268726,9.683064,-0.8820891,0.21380275,2.1783447,10.06844244,2.359868324,crawl
27/03/2021, 15:25:54,-3.7601807,-2.1555176,10.459051,-0.8820891,0.21380275,2.1783447,11.32152665,2.359868324,crawl
27/03/2021, 15:25:54,-3.7601807,-2.1555176,10.459051,-0.8051201,0.27611098,2.2650874,11.32152665,2.419726522,crawl
27/03/2021, 15:25:54,-3.6332448,-3.5757644,10.174044,-0.8051201,0.27611098,2.2650874,11.37970663,2.419726522,crawl
27/03/2021, 15:25:54,-3.6332448,-3.5757644,10.174044,-0.4593705,0.25289813,2.4385731,11.37970663,2.494317058,crawl
27/03/2021, 15:25:54,-2.8261232,-2.9817994,9.6686945,-0.4593705,0.25289813,2.4385731,10.50532024,2.494317058,crawl
27/03/2021, 15:25:54,-2.8261232,-2.9817994,9.6686945,0.00855211,0.24923292,2.502103,10.50532024,2.514499962,crawl
27/03/2021, 15:25:54,-2.2441335,-1.5399976,10.027947,0.00855211,0.24923292,2.502103,10.39073901,2.514499962,crawl
27/03/2021, 15:25:55,-1.3675562,-3.439248,12.595408,0.52045697,-3.4648263,-3.9205317,13.12794543,5.257990706,crawl
27/03/2021, 15:25:55,-1.7531544,-2.2345533,10.696157,0.52045697,-3.4648263,-3.9205317,11.06682264,5.257990706,crawl
27/03/2021, 15:25:55,-1.7531544,-2.2345533,10.696157,0.6438517,-3.4135137,-3.692068,11.06682264,5.069318236,crawl
27/03/2021, 15:25:55,-1.1112891,-1.7675245,9.970467,0.6438517,-3.4135137,-3.692068,10.18672228,5.069318236,crawl
27/03/2021, 15:25:55,-1.1112891,-1.7675245,9.970467,0.66095597,-3.4868176,-3.7531548,10.18672228,5.165358687,crawl
27/03/2021, 15:25:55,-1.4585669,-3.2452517,10.744058,0.66095597,-3.4868176,-3.7531548,11.31785539,5.165358687,crawl
27/03/2021, 15:25:55,-1.4585669,-3.2452517,10.744058,0.7892376,-3.4648263,-3.7446024,11.31785539,5.162360416,crawl
27/03/2021, 15:25:55,-1.1591895,-4.6511283,10.87818,0.7892376,-3.4648263,-3.7446024,11.88745157,5.162360416,crawl
27/03/2021, 15:25:55,-1.1591895,-4.6511283,10.87818,1.2229518,-3.2070413,-3.5002565,11.88745157,4.902297475,crawl
27/03/2021, 15:25:55,-1.4968873,-5.8989334,11.771522,1.2229518,-3.2070413,-3.5002565,13.25167186,4.902297475,crawl
27/03/2021, 15:25:55,-1.4968873,-5.8989334,11.771522,1.6896527,-3.0201166,-3.3609793,13.25167186,4.824128133,crawl
27/03/2021, 15:25:55,-1.214275,-6.480923,11.5751295,1.6896527,-3.0201166,-3.3609793,13.32142831,4.824128133,crawl
27/03/2021, 15:25:55,-1.214275,-6.480923,11.5751295,2.0781627,-2.8796177,-3.2070413,13.32142831,4.784983991,crawl
27/03/2021, 15:25:55,0.26105714,-4.406836,10.782378,2.0781627,-2.8796177,-3.2070413,11.65109584,4.784983991,crawl
27/03/2021, 15:25:55,0.26105714,-4.406836,10.782378,2.1844532,-2.602285,-2.8710656,11.65109584,4.448228919,crawl
27/03/2021, 15:25:55,1.9758912,-2.0022364,9.632769,2.1844532,-2.602285,-2.8710656,10.03510479,4.448228919,crawl
27/03/2021, 15:25:55,1.9758912,-2.0022364,9.632769,1.8032736,-2.2870786,-2.150245,10.03510479,3.62023169,crawl
27/03/2021, 15:25:55,0.4047583,-0.2921924,9.529783,1.8032736,-2.2870786,-2.150245,9.542849389,3.62023169,crawl
27/03/2021, 15:25:55,0.4047583,-0.2921924,9.529783,1.3035859,-2.547307,-1.837482,9.542849389,3.400654231,crawl
27/03/2021, 15:25:55,3.1470559,-0.4239185,9.520203,1.3035859,-2.547307,-1.837482,10.03583209,3.400654231,crawl
27/03/2021, 15:25:56,-12.360697,-16.44181,3.0201197,-2.6181674,3.53813,-0.91018885,20.79040846,4.494619951,crawl
27/03/2021, 15:25:56,-11.666141,-17.395027,3.6284547,-2.6181674,3.53813,-0.91018885,21.25679865,4.494619951,crawl
27/03/2021, 15:25:56,-11.666141,-17.395027,3.6284547,-2.3054047,3.6102123,-1.1765261,21.25679865,4.442154578,crawl
27/03/2021, 15:25:56,-13.287569,-17.447718,6.2510014,-2.3054047,3.6102123,-1.1765261,22.80476619,4.442154578,crawl
27/03/2021, 15:25:56,-13.287569,-17.447718,6.2510014,-2.4654512,3.6774073,-1.434311,22.80476619,4.653925456,crawl
27/03/2021, 15:25:56,-12.169095,-14.67189,7.096443,-2.4654512,3.6774073,-1.434311,20.33988062,4.653925456,crawl
27/03/2021, 15:25:56,-12.169095,-14.67189,7.096443,-2.8551831,3.6761856,-1.769065,20.33988062,4.97955845,crawl
27/03/2021, 15:25:56,-12.051739,-16.738792,7.676038,-2.8551831,3.6761856,-1.769065,22.00802432,4.97955845,crawl
27/03/2021, 15:25:56,-12.051739,-16.738792,7.676038,-2.9174912,3.5540125,-2.1868968,22.00802432,5.091687109,crawl
27/03/2021, 15:25:56,-12.583433,-21.662952,10.439891,-2.9174912,3.5540125,-2.1868968,27.14070041,5.091687109,crawl
27/03/2021, 15:25:56,-12.583433,-21.662952,10.439891,-2.6707017,3.6444206,-2.1734576,27.14070041,5.013817659,crawl
27/03/2021, 15:25:56,-8.384964,-16.765137,10.41115,-2.6707017,3.6444206,-2.1734576,21.44223576,5.013817659,crawl
27/03/2021, 15:25:56,-8.384964,-16.765137,10.41115,-3.0005689,3.4061832,-2.533868,21.44223576,5.198652251,crawl
27/03/2021, 15:25:56,-10.308165,-16.243023,9.836346,-3.0005689,3.4061832,-2.533868,21.60665979,5.198652251,crawl
27/03/2021, 15:25:56,-10.308165,-16.243023,9.836346,-3.4452786,3.0714293,-2.9126043,21.60665979,5.457736398,crawl
27/03/2021, 15:25:56,-7.5131764,-17.560284,13.486356,-3.4452786,3.0714293,-2.9126043,23.38147076,5.457736398,crawl
27/03/2021, 15:25:56,-7.5131764,-17.560284,13.486356,-3.470935,2.9859083,-3.0213385,23.38147076,5.485574247,crawl
27/03/2021, 15:25:56,-5.9372535,-16.892073,15.067068,-3.470935,2.9859083,-3.0213385,23.40106064,5.485574247,crawl
27/03/2021, 15:25:56,-5.9372535,-16.892073,15.067068,-3.21315,2.8441875,-3.3157754,23.40106064,5.422923757,crawl
27/03/2021, 15:25:56,-5.1612673,-18.475182,15.651453,-3.21315,2.8441875,-3.3157754,24.75760481,5.422923757,crawl
27/03/2021, 15:25:57,-2.926714,5.807923,7.6425076,1.420872,1.0079273,1.8997902,10.03521519,2.577595252,crawl
27/03/2021, 15:25:57,-2.3854396,5.6833816,7.1874537,1.420872,1.0079273,1.8997902,9.468402164,2.577595252,crawl
27/03/2021, 15:25:57,-2.3854396,5.6833816,7.1874537,1.3952156,1.091005,1.8289299,9.468402164,2.545958185,crawl
27/03/2021, 15:25:57,-2.912344,5.0031962,7.6185575,1.3952156,1.091005,1.8289299,9.568497151,2.545958185,crawl
27/03/2021, 15:25:57,-2.912344,5.0031962,7.6185575,1.317025,1.1887434,1.7763954,9.568497151,2.51062666,crawl
27/03/2021, 15:25:57,-3.1614258,5.688172,8.258028,1.317025,1.1887434,1.7763954,10.51403535,2.51062666,crawl
27/03/2021, 15:25:57,-3.1614258,5.688172,8.258028,1.1191047,1.2632688,1.7470739,10.51403535,2.42909669,crawl
27/03/2021, 15:25:57,-3.5542092,7.0150127,8.140672,1.1191047,1.2632688,1.7470739,11.3187165,2.42909669,crawl
27/03/2021, 15:25:57,-3.5542092,7.0150127,8.140672,0.55344373,1.3023642,1.6200141,11.3187165,2.151022581,crawl
27/03/2021, 15:25:57,-4.047583,6.9958525,6.4426026,0.55344373,1.3023642,1.6200141,10.33595711,2.151022581,crawl
27/03/2021, 15:25:57,-4.047583,6.9958525,6.4426026,-0.0977384,1.194852,1.4782933,10.33595711,1.903306377,crawl
27/03/2021, 15:25:57,-4.390071,6.0114994,6.935977,-0.0977384,1.194852,1.4782933,10.17441027,1.903306377,crawl
27/03/2021, 15:25:57,-4.390071,6.0114994,6.935977,-0.43371415,1.1142178,1.457524,10.17441027,1.885196334,crawl
27/03/2021, 15:25:57,-3.3889527,5.2858086,7.6353226,-0.43371415,1.1142178,1.457524,9.885490557,1.885196334,crawl
27/03/2021, 15:25:57,-3.3889527,5.2858086,7.6353226,-0.49357894,1.1533132,1.4746281,9.885490557,1.936047371,crawl
27/03/2021, 15:25:57,-3.3602126,6.5096636,7.5323367,-0.49357894,1.1533132,1.4746281,10.5072758,1.936047371,crawl
27/03/2021, 15:25:57,-3.3602126,6.5096636,7.5323367,-0.37995803,1.2999208,1.4477501,10.5072758,1.982458704,crawl
27/03/2021, 15:25:57,-3.9853127,6.2941117,6.210286,-0.37995803,1.2999208,1.4477501,9.698773825,1.982458704,crawl
27/03/2021, 15:25:57,-3.9853127,6.2941117,6.210286,-0.58520865,1.4269806,1.3634508,9.698773825,2.058577381,crawl
27/03/2021, 15:25:57,-4.9145803,5.6857767,5.824688,-0.58520865,1.4269806,1.3634508,9.508319861,2.058577381,crawl
27/03/2021, 15:25:58,-0.97956306,1.8010547,9.553733,1.9779809,0.9541711,0.44715318,9.771241153,2.241159688,crawl
27/03/2021, 15:25:58,0.45026368,4.0739284,10.054293,1.9779809,0.9541711,0.44715318,10.85764389,2.241159688,crawl
27/03/2021, 15:25:58,0.45026368,4.0739284,10.054293,1.8423688,0.9566146,0.4349359,10.85764389,2.120991207,crawl
27/03/2021, 15:25:58,0.3281177,3.293152,9.800421,1.8423688,0.9566146,0.4349359,10.34411712,2.120991207,crawl
27/03/2021, 15:25:58,0.3281177,3.293152,9.800421,1.8142691,0.9676102,0.5436699,10.34411712,2.126833008,crawl
27/03/2021, 15:25:58,0.51013917,2.924319,10.403965,1.8142691,0.9676102,0.5436699,10.81916685,2.126833008,crawl
27/03/2021, 15:25:58,0.51013917,2.924319,10.403965,1.9291117,1.1032223,0.62430406,10.81916685,2.308316901,crawl
27/03/2021, 15:25:58,-0.3305127,3.180586,10.916499,1.9291117,1.1032223,0.62430406,11.37520637,2.308316901,crawl
27/03/2021, 15:25:58,-0.3305127,3.180586,10.916499,2.172236,1.3084729,0.7354815,11.37520637,2.640386976,crawl
27/03/2021, 15:25:58,-1.2789404,3.8631666,11.211087,2.172236,1.3084729,0.7354815,11.92678588,2.640386976,crawl
27/03/2021, 15:25:58,-1.2789404,3.8631666,11.211087,2.235766,1.3732245,0.9199627,11.92678588,2.780418351,crawl
27/03/2021, 15:25:58,-2.8716285,4.4427614,11.57992,2.235766,1.3732245,0.9199627,12.73102205,2.780418351,crawl
27/03/2021, 15:25:58,-2.8716285,4.4427614,11.57992,2.1514666,1.2828165,1.0812311,12.73102205,2.728275562,crawl
27/03/2021, 15:25:58,-2.5291407,5.5372853,10.981165,2.1514666,1.2828165,1.0812311,12.55563877,2.728275562,crawl
27/03/2021, 15:25:58,-2.5291407,5.5372853,10.981165,1.8765774,1.1337655,1.0531312,12.55563877,2.432293597,crawl
27/03/2021, 15:25:58,-2.2465284,6.183941,10.008787,1.8765774,1.1337655,1.0531312,11.97763896,2.432293597,crawl
27/03/2021, 15:25:58,-2.2465284,6.183941,10.008787,1.543045,0.99082303,1.149648,11.97763896,2.164349486,crawl
27/03/2021, 15:25:58,-1.3028907,5.5708156,9.261541,1.543045,0.99082303,1.149648,10.88612229,2.164349486,crawl
27/03/2021, 15:25:58,-1.3028907,5.5708156,9.261541,1.4721847,0.97494054,1.2889252,10.88612229,2.186130101,crawl
27/03/2021, 15:25:58,-1.0226734,4.643943,9.292676,1.4721847,0.97494054,1.2889252,10.43867293,2.186130101,crawl
27/03/2021, 15:25:59,6.8976564,-11.790682,11.558365,0.4520401,-0.49480066,-6.847797,17.89395543,6.880515283,crawl
27/03/2021, 15:25:59,6.8976564,-11.790682,11.558365,0.77579856,0.84421545,-6.7537236,17.89395543,6.850353705,crawl
27/03/2021, 15:25:59,2.1028273,-9.204061,10.30577,0.77579856,0.84421545,-6.7537236,13.97660571,6.850353705,crawl
