DATE,TIME,ax,ay,az,gx,gy,gz,ma,mg,label
16/03/2021, 14:46:33,0.39996827,4.232,8.964559,0.22409663,0.14216553,0.19769159,9.921346102,0.330926426,crawl
16/03/2021, 14:46:33,0.19878663,4.2080493,8.856783,0.22409663,0.14216553,0.19769159,9.807639807,0.330926426,crawl
16/03/2021, 14:46:33,0.19878663,4.2080493,8.856783,0.20210548,0.13972206,0.21357408,9.807639807,0.325549946,crawl
16/03/2021, 14:46:33,0.13172609,4.018843,8.703502,0.20210548,0.13972206,0.21357408,9.587460252,0.325549946,crawl
16/03/2021, 14:46:33,0.13172609,4.018843,8.703502,0.57717663,0.007775217,0.29420826,9.587460252,0.647882564,crawl
16/03/2021, 14:46:33,-0.06227051,3.9350173,8.55501,0.57717663,0.007775217,0.29420826,9.416816476,0.647882564,crawl
16/03/2021, 14:46:33,-0.06227051,3.9350173,8.55501,0.27052236,0.23379527,0.24411733,9.416816476,0.432938618,crawl
16/03/2021, 14:46:33,-0.07424561,3.9709425,9.606423,0.27052236,0.23379527,0.24411733,10.39505973,0.432938618,crawl
16/03/2021, 14:46:33,-0.07424561,3.9709425,9.606423,0.674915,0.19592164,0.23923041,10.39505973,0.74237912,crawl
16/03/2021, 14:46:33,-0.8430469,3.7074904,10.5764065,0.674915,0.19592164,0.23923041,11.23906524,0.74237912,crawl
16/03/2021, 14:46:33,-0.8430469,3.7074904,10.5764065,0.1300234,0.1494959,0.27710402,11.23906524,0.34064901,crawl
16/03/2021, 14:46:33,1.8824854,4.5792775,5.5803957,0.1300234,0.1494959,0.27710402,7.460184311,0.34064901,crawl
16/03/2021, 14:46:33,1.8824854,4.5792775,5.5803957,0.101923615,0.16293493,0.21357408,7.460184311,0.287315337,crawl
16/03/2021, 14:46:33,-1.9112257,4.145779,4.296665,0.101923615,0.16293493,0.21357408,6.269098817,0.287315337,crawl
16/03/2021, 14:46:33,-1.9112257,4.145779,4.296665,0.03472847,0.2386822,0.14393547,6.269098817,0.280878403,crawl
16/03/2021, 14:46:33,-2.6057813,4.1002736,4.9169755,0.03472847,0.2386822,0.14393547,6.91223466,0.280878403,crawl
16/03/2021, 14:46:33,-2.6057813,4.1002736,4.9169755,0.11536265,0.23746046,0.124387786,6.91223466,0.291836144,crawl
16/03/2021, 14:46:33,-1.8872755,4.167334,2.6345215,0.11536265,0.23746046,0.124387786,5.279127337,0.291836144,crawl
16/03/2021, 14:46:33,-1.8872755,4.167334,2.6345215,0.04083712,0.22524317,0.1207226,5.279127337,0.258797412,crawl
16/03/2021, 14:46:33,1.829795,4.641548,1.4873072,0.04083712,0.22524317,0.1207226,5.206169583,0.258797412,crawl
16/03/2021, 14:46:34,-0.11256592,4.6511283,8.4448395,-0.3867684,0.05664442,0.12805298,9.641627418,0.411334355,crawl
16/03/2021, 14:46:34,-0.11256592,4.6511283,8.4448395,-0.40020743,-0.037428793,0.15004411,9.641627418,0.429045612,crawl
16/03/2021, 14:46:34,0.3281177,4.1170387,8.085587,-0.40020743,-0.037428793,0.15004411,9.079338022,0.429045612,crawl
16/03/2021, 14:46:34,0.3281177,4.1170387,8.085587,-0.40631607,-0.1107326,0.21968272,9.079338022,0.474989429,crawl
16/03/2021, 14:46:34,0.7113208,3.9517825,8.044871,-0.40631607,-0.1107326,0.21968272,8.99124667,0.474989429,crawl
16/03/2021, 14:46:34,0.7113208,3.9517825,8.044871,-0.37699455,-0.11806298,0.24900426,8.99124667,0.466976316,crawl
16/03/2021, 14:46:34,1.5376027,4.24637,7.9706254,-0.37699455,-0.11806298,0.24900426,9.161154296,0.466976316,crawl
16/03/2021, 14:46:34,1.5376027,4.24637,7.9706254,-0.34767303,-0.025211494,0.18791775,9.161154296,0.396011662,crawl
16/03/2021, 14:46:34,1.6789087,4.143384,8.387359,-0.34767303,-0.025211494,0.18791775,9.504427949,0.396011662,crawl
16/03/2021, 14:46:34,1.6789087,4.143384,8.387359,-0.3269036,0.14216553,0.11950087,9.504427949,0.375975352,crawl
16/03/2021, 14:46:34,1.0657837,3.63564,8.854387,-0.3269036,0.14216553,0.11950087,9.630885041,0.375975352,crawl
16/03/2021, 14:46:34,1.0657837,3.63564,8.854387,-0.29880384,0.2851079,0.075518586,9.630885041,0.419849151,crawl
16/03/2021, 14:46:34,0.81909674,3.182981,9.19448,-0.29880384,0.2851079,0.075518586,9.764258754,0.419849151,crawl
16/03/2021, 14:46:34,0.81909674,3.182981,9.19448,-0.22672176,0.34863788,0.051083982,9.764258754,0.418999644,crawl
16/03/2021, 14:46:34,0.1460962,2.6704469,9.208851,-0.22672176,0.34863788,0.051083982,9.58934642,0.418999644,crawl
16/03/2021, 14:46:34,0.1460962,2.6704469,9.208851,-0.09599665,0.33397713,0.16470487,9.58934642,0.384556598,crawl
16/03/2021, 14:46:34,-1.1615845,2.3135889,9.127419,-0.09599665,0.33397713,0.16470487,9.48745267,0.384556598,crawl
16/03/2021, 14:46:34,-1.1615845,2.3135889,9.127419,0.067715175,0.16904359,0.49701542,9.48745267,0.529325423,crawl
16/03/2021, 14:46:34,-2.2417383,2.7015822,8.566985,0.067715175,0.16904359,0.49701542,9.258356834,0.529325423,crawl
16/03/2021, 14:46:34,-2.2417383,2.7015822,8.566985,0.19599684,-0.25856194,0.6521751,9.258356834,0.728423938,crawl
16/03/2021, 14:46:35,2.2177882,2.2441335,9.211246,0.34260443,-0.22435348,0.28687787,9.73661974,0.50001119,crawl
16/03/2021, 14:46:35,2.3519094,2.574646,9.005274,0.34260443,-0.22435348,0.28687787,9.656875084,0.50001119,crawl
16/03/2021, 14:46:35,2.3519094,2.574646,9.005274,0.37681288,-0.14127584,0.30153862,9.656875084,0.502864139,crawl
16/03/2021, 14:46:35,2.4644752,2.8859987,8.686736,0.37681288,-0.14127584,0.30153862,9.479557512,0.502864139,crawl
16/03/2021, 14:46:35,2.4644752,2.8859987,8.686736,0.3413827,-0.0740807,0.29665172,9.479557512,0.458292864,crawl
16/03/2021, 14:46:35,2.4525,3.0296998,8.4304695,0.3413827,-0.0740807,0.29665172,9.287984381,0.458292864,crawl
16/03/2021, 14:46:35,2.4525,3.0296998,8.4304695,0.26685718,-0.041093983,0.2844344,9.287984381,0.392179042,crawl
16/03/2021, 14:46:35,2.3303542,3.0296998,8.382568,0.26685718,-0.041093983,0.2844344,9.212875987,0.392179042,crawl
16/03/2021, 14:46:35,2.3303542,3.0296998,8.382568,0.16056666,-0.037428793,0.2673302,9.212875987,0.314082794,crawl
16/03/2021, 14:46:35,2.179468,2.931504,8.267608,0.16056666,-0.037428793,0.2673302,9.038646639,0.314082794,crawl
16/03/2021, 14:46:35,2.179468,2.931504,8.267608,0.087262854,-0.061863393,0.24411733,9.038646639,0.266524217,crawl
16/03/2021, 14:46:35,2.1315675,2.823728,8.349038,0.087262854,-0.061863393,0.24411733,9.067715137,0.266524217,crawl
16/03/2021, 14:46:35,2.1315675,2.823728,8.349038,0.0848194,-0.086298,0.22579138,9.067715137,0.256170689,crawl
16/03/2021, 14:46:35,2.186653,2.8668385,8.514295,0.0848194,-0.086298,0.22579138,9.246265548,0.256170689,crawl
16/03/2021, 14:46:35,2.186653,2.8668385,8.514295,0.13124514,-0.078967616,0.20990889,9.246265548,0.25985171,crawl
16/03/2021, 14:46:35,2.3327491,2.816543,8.50711,0.13124514,-0.078967616,0.20990889,9.2598892,0.25985171,crawl
16/03/2021, 14:46:35,2.3327491,2.816543,8.50711,0.19110991,-0.027654955,0.19036122,9.2598892,0.271155283,crawl
16/03/2021, 14:46:35,2.4453151,2.7662477,8.614885,0.19110991,-0.027654955,0.19036122,9.372723292,0.271155283,crawl
16/03/2021, 14:46:35,2.4453151,2.7662477,8.614885,0.24608776,0.05542269,0.18547429,9.372723292,0.313099941,crawl
16/03/2021, 14:46:35,2.440525,2.7710378,8.650811,0.24608776,0.05542269,0.18547429,9.405920873,0.313099941,crawl
16/03/2021, 14:46:36,0.12454102,-0.78556645,8.396939,-1.9908999,-0.89752674,-0.1969272,8.43452514,2.192719104,crawl
16/03/2021, 14:46:36,-0.13172609,-1.0753639,8.55501,-1.9908999,-0.89752674,-0.1969272,8.623337673,2.192719104,crawl
16/03/2021, 14:46:36,-0.13172609,-1.0753639,8.55501,-2.2071462,-0.9561697,-0.084528044,8.623337673,2.406844353,crawl
16/03/2021, 14:46:36,-0.15088624,-1.2382251,8.198153,-2.2071462,-0.9561697,-0.084528044,8.292507049,2.406844353,crawl
16/03/2021, 14:46:36,-0.15088624,-1.2382251,8.198153,-2.2682328,-0.9182961,0.059636094,8.292507049,2.44779581,crawl
16/03/2021, 14:46:36,-0.035925295,-1.4465919,7.8987746,-2.2682328,-0.9182961,0.059636094,8.030227841,2.44779581,crawl
16/03/2021, 14:46:36,-0.035925295,-1.4465919,7.8987746,-2.3403149,-0.7851275,0.124387786,8.030227841,2.471633309,crawl
16/03/2021, 14:46:36,0.19160157,-2.1052222,7.5083866,-2.3403149,-0.7851275,0.124387786,7.800291103,2.471633309,crawl
16/03/2021, 14:46:36,0.19160157,-2.1052222,7.5083866,-2.3916276,-0.5994246,0.15493104,7.800291103,2.470464697,crawl
16/03/2021, 14:46:36,-0.016765138,-2.2273684,7.7478886,-2.3916276,-0.5994246,0.15493104,8.061713718,2.470464697,crawl
16/03/2021, 14:46:36,-0.016765138,-2.2273684,7.7478886,-2.3879623,-0.44304317,0.17570046,8.061713718,2.435060994,crawl
16/03/2021, 14:46:36,-0.43589357,-2.42376,7.094048,-2.3879623,-0.44304317,0.17570046,7.509336375,2.435060994,crawl
16/03/2021, 14:46:36,-0.43589357,-2.42376,7.094048,-2.3879623,-0.3636307,0.18058737,7.509336375,2.422231045,crawl
16/03/2021, 14:46:36,-0.39996827,-2.7662477,7.180269,-2.3879623,-0.3636307,0.18058737,7.705086681,2.422231045,crawl
16/03/2021, 14:46:36,-0.39996827,-2.7662477,7.180269,-2.3452017,-0.30865288,0.18058737,7.705086681,2.372308908,crawl
16/03/2021, 14:46:36,-0.28740236,-3.8248463,6.5072684,-2.3452017,-0.30865288,0.18058737,7.553581369,2.372308908,crawl
16/03/2021, 14:46:36,-0.28740236,-3.8248463,6.5072684,-2.2560153,-0.26467058,0.19036122,7.553581369,2.279450141,crawl
16/03/2021, 14:46:36,-0.045505375,-4.87147,6.3851223,-2.2560153,-0.26467058,0.19036122,8.03138078,2.279450141,crawl
16/03/2021, 14:46:36,-0.045505375,-4.87147,6.3851223,-2.044656,-0.30743113,0.21723928,8.03138078,2.07902023,crawl
16/03/2021, 14:46:36,0.021555176,-5.9204884,5.2834134,-2.044656,-0.30743113,0.21723928,7.935181427,2.07902023,crawl
16/03/2021, 14:47:28,0.6562354,5.132527,8.514295,-2.3268757,3.4017413,1.8018231,9.963267033,4.498084118,crawl
16/03/2021, 14:47:28,0.613125,4.976851,8.48316,-2.3268757,3.4017413,1.8018231,9.854388461,4.498084118,crawl
16/03/2021, 14:47:28,0.613125,4.976851,8.48316,0.087262854,0.28755137,0.36751205,9.854388461,0.474726977,crawl
16/03/2021, 14:47:28,0.613125,4.976851,8.48316,0.0359502,0.266782,0.35407302,9.854388461,0.444783933,crawl
16/03/2021, 14:47:28,0.613125,4.976851,8.48316,-0.009253813,0.2472343,0.33086014,9.854388461,0.413132985,crawl
16/03/2021, 14:47:28,0.5508545,4.91937,8.566985,-0.009253813,0.2472343,0.33086014,9.894285109,0.413132985,crawl
16/03/2021, 14:47:28,0.5508545,4.91937,8.566985,-0.023914574,0.23990393,0.30153862,9.894285109,0.386071675,crawl
16/03/2021, 14:47:28,0.5292993,4.8355446,8.57417,-0.023914574,0.23990393,0.30153862,9.857943109,0.386071675,crawl
16/03/2021, 14:47:28,0.5292993,4.8355446,8.57417,-0.010475542,0.23135182,0.26244327,9.857943109,0.350014107,crawl
16/03/2021, 14:47:28,0.62749517,4.878655,8.533455,-0.010475542,0.23135182,0.26244327,9.849613029,0.350014107,crawl
16/03/2021, 14:47:28,0.62749517,4.878655,8.533455,0.002963488,0.22402143,0.22701311,9.849613029,0.318950369,crawl
16/03/2021, 14:47:28,0.63707525,4.8499146,8.53106,0.002963488,0.22402143,0.22701311,9.833947553,0.318950369,crawl
16/03/2021, 14:47:28,0.63707525,4.8499146,8.53106,0.009072138,0.21302587,0.20502196,9.833947553,0.295797784,crawl
16/03/2021, 14:47:28,0.68018556,4.893025,8.56459,0.009072138,0.21302587,0.20502196,9.887191458,0.295797784,crawl
16/03/2021, 14:47:28,0.68018556,4.893025,8.56459,0.016402518,0.19714338,0.19280466,9.887191458,0.276239374,crawl
16/03/2021, 14:47:28,0.62510014,4.8906302,8.519085,0.016402518,0.19714338,0.19280466,9.842958012,0.276239374,crawl
16/03/2021, 14:47:28,0.62510014,4.8906302,8.519085,0.023732899,0.17515224,0.18791775,9.842958012,0.257981861,crawl
16/03/2021, 14:47:28,0.62749517,4.8427296,8.600515,0.023732899,0.17515224,0.18791775,9.890128635,0.257981861,crawl
16/03/2021, 14:47:28,0.62749517,4.8427296,8.600515,0.03961539,0.16049148,0.19036122,9.890128635,0.25211959,crawl
16/03/2021, 14:47:28,0.74724615,4.792434,8.55501,0.03961539,0.16049148,0.19036122,9.834327425,0.25211959,crawl
16/03/2021, 14:47:29,1.1112891,4.591253,8.200547,0.16667531,-0.004442084,0.2062437,9.463801591,0.265210961,crawl
16/03/2021, 14:47:29,1.1112891,4.591253,8.200547,0.15690146,-0.004442084,0.18913949,9.463801591,0.245787604,crawl
16/03/2021, 14:47:29,1.2789404,4.648733,8.183782,0.15690146,-0.004442084,0.18913949,9.498457249,0.245787604,crawl
16/03/2021, 14:47:29,1.2789404,4.648733,8.183782,0.13979726,-0.015437653,0.14882238,9.498457249,0.204767417,crawl
16/03/2021, 14:47:29,1.4082716,4.761299,8.217313,0.13979726,-0.015437653,0.14882238,9.600907669,0.204767417,crawl
16/03/2021, 14:47:29,1.4082716,4.761299,8.217313,0.11780611,-0.028876685,0.088957615,9.600907669,0.150418081,crawl
16/03/2021, 14:47:29,1.4968873,4.9289503,8.262817,0.11780611,-0.028876685,0.088957615,9.737010523,0.150418081,crawl
16/03/2021, 14:47:29,1.4968873,4.9289503,8.262817,0.056719612,-0.026433224,0.03275803,9.737010523,0.070632276,crawl
16/03/2021, 14:47:29,1.5711329,5.118157,8.224498,0.056719612,-0.026433224,0.03275803,9.813580016,0.070632276,crawl
16/03/2021, 14:47:29,1.5711329,5.118157,8.224498,-0.06789686,4.45E-04,-0.005115598,9.813580016,0.068090752,crawl
16/03/2021, 14:47:29,1.3723463,5.1947975,8.270002,-0.06789686,4.45E-04,-0.005115598,9.862159736,0.068090752,crawl
16/03/2021, 14:47:29,1.3723463,5.1947975,8.270002,-0.20839581,-0.003220353,-0.014889438,9.862159736,0.208951859,crawl
16/03/2021, 14:47:29,0.86939216,4.926555,8.272398,-0.20839581,-0.003220353,-0.014889438,9.667437976,0.208951859,crawl
16/03/2021, 14:47:29,0.86939216,4.926555,8.272398,-0.32079497,-0.049646094,0.003436513,9.667437976,0.324632033,crawl
16/03/2021, 14:47:29,0.59156984,4.543352,8.344249,-0.32079497,-0.049646094,0.003436513,9.519374506,0.324632033,crawl
16/03/2021, 14:47:29,0.59156984,4.543352,8.344249,-0.3672207,-0.09607184,0.035201494,9.519374506,0.381208586,crawl
16/03/2021, 14:47:29,0.7113208,4.382886,8.571775,-0.3672207,-0.09607184,0.035201494,9.653548598,0.381208586,crawl
16/03/2021, 14:47:29,0.7113208,4.382886,8.571775,-0.35744688,-0.10218049,0.048640523,9.653548598,0.37493336,crawl
16/03/2021, 14:47:29,1.0130934,4.2918754,8.737032,-0.35744688,-0.10218049,0.048640523,9.786842153,0.37493336,crawl
16/03/2021, 14:47:29,1.0130934,4.2918754,8.737032,-0.30857766,-0.060641665,0.03275803,9.786842153,0.316181388,crawl
16/03/2021, 14:47:30,0.6011499,4.514612,8.775352,0.09337151,0.001666567,-0.023441548,9.886854854,0.096283553,crawl
16/03/2021, 14:47:30,0.5556446,4.495452,8.768167,0.09337151,0.001666567,-0.023441548,9.869071559,0.096283553,crawl
16/03/2021, 14:47:30,0.5556446,4.495452,8.768167,0.088484585,0.012662137,0.015653813,9.869071559,0.090746314,crawl
16/03/2021, 14:47:30,0.7041358,4.6822634,8.708291,0.088484585,0.012662137,0.015653813,9.912301982,0.090746314,crawl
16/03/2021, 14:47:30,0.7041358,4.6822634,8.708291,0.075045556,0.015105596,0.042531874,9.912301982,0.087572683,crawl
16/03/2021, 14:47:30,0.6682105,4.7014236,8.693921,0.075045556,0.015105596,0.042531874,9.906268393,0.087572683,crawl
16/03/2021, 14:47:30,0.6682105,4.7014236,8.693921,0.067715175,0.002888297,0.049862254,9.906268393,0.08414233,crawl
16/03/2021, 14:47:30,0.6586304,4.5529323,8.698711,0.067715175,0.002888297,0.049862254,9.840252339,0.08414233,crawl
16/03/2021, 14:47:30,0.6586304,4.5529323,8.698711,0.081154205,-0.015437653,0.0437536,9.840252339,0.093481034,crawl
16/03/2021, 14:47:30,0.732876,4.4403663,8.720266,0.081154205,-0.015437653,0.0437536,9.813103735,0.093481034,crawl
16/03/2021, 14:47:30,0.732876,4.4403663,8.720266,0.10436708,-0.020324575,0.03642322,9.813103735,0.112393177,crawl
16/03/2021, 14:47:30,0.7664063,4.4762917,8.758587,0.10436708,-0.020324575,0.03642322,9.865972319,0.112393177,crawl
16/03/2021, 14:47:30,0.7664063,4.4762917,8.758587,0.11536265,-0.005663814,0.0437536,9.865972319,0.123511124,crawl
16/03/2021, 14:47:30,0.86939216,4.641548,8.825647,0.11536265,-0.005663814,0.0437536,10.00958856,0.123511124,crawl
16/03/2021, 14:47:30,0.86939216,4.641548,8.825647,0.10681054,0.010218676,0.06330129,10.00958856,0.124579155,crawl
16/03/2021, 14:47:30,0.8334668,4.6678934,8.880733,0.10681054,0.010218676,0.06330129,10.06733859,0.124579155,crawl
16/03/2021, 14:47:30,0.8334668,4.6678934,8.880733,0.0970367,0.011440408,0.07918378,10.06733859,0.125765951,crawl
16/03/2021, 14:47:30,0.75203615,4.624783,8.875943,0.0970367,0.011440408,0.07918378,10.03675963,0.125765951,crawl
16/03/2021, 14:47:30,0.75203615,4.624783,8.875943,0.11780611,0.013883866,0.09873146,10.03675963,0.154333863,crawl
16/03/2021, 14:47:30,0.6179151,4.605623,8.875943,0.11780611,0.013883866,0.09873146,10.01877974,0.154333863,crawl
16/03/2021, 14:47:31,0.6730005,4.6583133,8.509504,-0.078892425,-0.020324575,-0.03688058,9.72442677,0.089427513,crawl
16/03/2021, 14:47:31,0.6490503,4.641548,8.504715,-0.078892425,-0.020324575,-0.03688058,9.710582486,0.089427513,crawl
16/03/2021, 14:47:31,0.6490503,4.641548,8.504715,-0.06667513,-0.012994194,-0.027106738,9.710582486,0.073138204,crawl
16/03/2021, 14:47:31,0.65384036,4.6583133,8.490345,-0.06667513,-0.012994194,-0.027106738,9.706356063,0.073138204,crawl
16/03/2021, 14:47:31,0.65384036,4.6583133,8.490345,-0.045905713,-0.006885544,-0.024663277,9.706356063,0.05256446,crawl
16/03/2021, 14:47:31,0.62510014,4.617598,8.547825,-0.045905713,-0.006885544,-0.024663277,9.735413285,0.05256446,crawl
16/03/2021, 14:47:31,0.62510014,4.617598,8.547825,-0.027579764,-0.001998623,-0.011224248,9.735413285,0.029843284,crawl
16/03/2021, 14:47:31,0.49097902,4.5481424,8.475974,-0.027579764,-0.001998623,-0.011224248,9.631655966,0.029843284,crawl
16/03/2021, 14:47:31,0.49097902,4.5481424,8.475974,-0.026358033,-0.004442084,0.005879973,9.631655966,0.027368816,crawl
16/03/2021, 14:47:31,0.65384036,4.6942387,8.504715,-0.026358033,-0.004442084,0.005879973,9.736198462,0.027368816,crawl
16/03/2021, 14:47:31,0.65384036,4.6942387,8.504715,-0.016584193,0.010218676,-0.002672137,9.736198462,0.019662073,crawl
16/03/2021, 14:47:31,0.7879615,4.7397437,8.56938,-0.016584193,0.010218676,-0.002672137,9.824475762,0.019662073,crawl
16/03/2021, 14:47:31,0.7879615,4.7397437,8.56938,-0.012919003,0.05542269,-0.005115598,9.824475762,0.057137943,crawl
16/03/2021, 14:47:31,0.77359134,4.7804594,8.586145,-0.012919003,0.05542269,-0.005115598,9.857643152,0.057137943,crawl
16/03/2021, 14:47:31,0.77359134,4.7804594,8.586145,-0.021471113,0.083522476,0.002214783,9.857643152,0.086266552,crawl
16/03/2021, 14:47:31,0.57959473,4.7229786,8.363408,-0.021471113,0.083522476,0.002214783,9.622320494,0.086266552,crawl
16/03/2021, 14:47:31,0.57959473,4.7229786,8.363408,-0.048349172,0.067639984,0.005879973,9.622320494,0.083350969,crawl
16/03/2021, 14:47:31,0.48379397,4.636758,8.327483,-0.048349172,0.067639984,0.005879973,9.543613364,0.083350969,crawl
16/03/2021, 14:47:31,0.48379397,4.636758,8.327483,-0.06911859,0.04076193,0.005879973,9.543613364,0.080457991,crawl
16/03/2021, 14:47:31,0.5939649,4.679868,8.394544,-0.06911859,0.04076193,0.005879973,9.629243163,0.080457991,crawl
16/03/2021, 14:47:32,0.6394702,4.6774735,8.856783,0.2350922,0.05420096,-0.20670106,10.0364478,0.31769704,crawl
16/03/2021, 14:47:32,0.7568262,4.8379397,8.6627865,0.2350922,0.05420096,-0.20670106,9.950995755,0.31769704,crawl
16/03/2021, 14:47:32,0.7568262,4.8379397,8.6627865,0.31816983,0.05786615,-0.22014008,9.950995755,0.391206071,crawl
16/03/2021, 14:47:32,0.79754156,4.785249,8.571775,0.31816983,0.05786615,-0.22014008,9.849366319,0.391206071,crawl
16/03/2021, 14:47:32,0.79754156,4.785249,8.571775,0.46477744,0.046870578,-0.25190508,9.849366319,0.530726946,crawl
16/03/2021, 14:47:32,0.7711963,4.7157936,8.190968,0.46477744,0.046870578,-0.25190508,9.482900541,0.530726946,crawl
16/03/2021, 14:47:32,0.7711963,4.7157936,8.190968,0.70423657,0.05297923,-0.301996,9.482900541,0.768086923,crawl
16/03/2021, 14:47:32,0.6658155,4.521797,7.9682302,0.70423657,0.05297923,-0.301996,9.186003117,0.768086923,crawl
16/03/2021, 14:47:32,0.6658155,4.521797,7.9682302,1.0060039,0.08474421,-0.34842175,9.186003117,1.067999559,crawl
16/03/2021, 14:47:32,0.4239185,4.488267,7.951465,1.0060039,0.08474421,-0.34842175,9.140571359,1.067999559,crawl
16/03/2021, 14:47:32,0.4239185,4.488267,7.951465,1.2259153,0.13361341,-0.36063904,9.140571359,1.284827386,crawl
16/03/2021, 14:47:32,0.39996827,4.768484,7.9730206,1.2259153,0.13361341,-0.36063904,9.298788745,1.284827386,crawl
16/03/2021, 14:47:32,0.39996827,4.768484,7.9730206,1.2698976,0.16293493,-0.33620444,9.298788745,1.323714879,crawl
16/03/2021, 14:47:32,0.49097902,5.0343313,7.9562554,1.2698976,0.16293493,-0.33620444,9.428019559,1.323714879,crawl
16/03/2021, 14:47:32,0.49097902,5.0343313,7.9562554,1.168494,0.17759569,-0.27023104,9.428019559,1.212412157,crawl
16/03/2021, 14:47:32,0.5484595,5.144502,8.140672,1.168494,0.17759569,-0.27023104,9.645581709,1.212412157,crawl
16/03/2021, 14:47:32,0.5484595,5.144502,8.140672,1.0353254,0.18126088,-0.19081856,9.645581709,1.068253684,crawl
16/03/2021, 14:47:32,0.6706055,5.247488,8.349038,1.0353254,0.18126088,-0.19081856,9.883940502,1.068253684,crawl
16/03/2021, 14:47:32,0.6706055,5.247488,8.349038,0.90704376,0.17148705,-0.15172319,9.883940502,0.935497786,crawl
16/03/2021, 14:47:32,0.69216067,5.261858,8.629255,0.90704376,0.17148705,-0.15172319,10.13066053,0.935497786,crawl
16/03/2021, 14:47:33,0.46942386,3.9901028,8.749006,-0.42219856,-0.18525812,0.3980553,9.627377088,0.609114282,crawl
16/03/2021, 14:47:33,0.4406836,4.0691385,8.705896,-0.42219856,-0.18525812,0.3980553,9.620016743,0.609114282,crawl
16/03/2021, 14:47:33,0.4406836,4.0691385,8.705896,-0.36111206,-0.17426255,0.42371163,9.620016743,0.583353152,crawl
16/03/2021, 14:47:33,0.44786867,4.1314087,8.816068,-0.36111206,-0.17426255,0.42371163,9.746392858,0.583353152,crawl
16/03/2021, 14:47:33,0.44786867,4.1314087,8.816068,-0.33301228,-0.1803712,0.4469245,9.746392858,0.585809239,crawl
16/03/2021, 14:47:33,0.37601808,4.3158255,8.804092,-0.33301228,-0.1803712,0.4469245,9.812226156,0.585809239,crawl
16/03/2021, 14:47:33,0.37601808,4.3158255,8.804092,-0.3501165,-0.20114061,0.4591418,9.812226156,0.611432979,crawl
16/03/2021, 14:47:33,0.4742139,4.4595265,8.859178,-0.3501165,-0.20114061,0.4591418,9.929616475,0.611432979,crawl
16/03/2021, 14:47:33,0.4742139,4.4595265,8.859178,-0.4038726,-0.23046213,0.4554766,9.929616475,0.650910765,crawl
16/03/2021, 14:47:33,0.5460645,4.4834766,8.890313,-0.4038726,-0.23046213,0.4554766,9.97183118,0.650910765,crawl
16/03/2021, 14:47:33,0.5460645,4.4834766,8.890313,-0.4808416,-0.2524533,0.46036354,9.97183118,0.711952179,crawl
16/03/2021, 14:47:33,0.5724097,4.404441,8.873548,-0.4808416,-0.2524533,0.46036354,9.923033735,0.711952179,crawl
16/03/2021, 14:47:33,0.5724097,4.404441,8.873548,-0.5553671,-0.2683358,0.47502428,9.923033735,0.778514479,crawl
16/03/2021, 14:47:33,0.5891748,4.25595,8.8951025,-0.5553671,-0.2683358,0.47502428,9.878415138,0.778514479,crawl
16/03/2021, 14:47:33,0.5891748,4.25595,8.8951025,-0.60912323,-0.27933136,0.49457198,9.878415138,0.832861671,crawl
16/03/2021, 14:47:33,0.5125342,4.095484,8.974138,-0.60912323,-0.27933136,0.49457198,9.877795109,0.832861671,crawl
16/03/2021, 14:47:33,0.5125342,4.095484,8.974138,-0.6250057,-0.2939921,0.5104545,9.877795109,0.858852304,crawl
16/03/2021, 14:47:33,0.47900394,3.8751419,9.036409,-0.6250057,-0.2939921,0.5104545,9.843925215,0.858852304,crawl
16/03/2021, 14:47:33,0.47900394,3.8751419,9.036409,-0.623784,-0.30376595,0.52633697,9.843925215,0.870867868,crawl
16/03/2021, 14:47:33,0.49576905,3.7194655,8.945398,-0.623784,-0.30376595,0.52633697,9.700534099,0.870867868,crawl
16/03/2021, 14:47:34,3.4009278,2.9746144,8.648416,1.0670904,0.45126322,-0.51946396,9.757547453,1.269709888,crawl
16/03/2021, 14:47:34,3.2524366,2.9602442,8.701106,1.0670904,0.45126322,-0.51946396,9.749391599,1.269709888,crawl
16/03/2021, 14:47:34,3.2524366,2.9602442,8.701106,1.096412,0.4720326,-0.51702046,9.749391599,1.300862826,crawl
16/03/2021, 14:47:34,3.0656252,3.1063404,8.789722,1.096412,0.4720326,-0.51702046,9.8135941,1.300862826,crawl
16/03/2021, 14:47:34,3.0656252,3.1063404,8.789722,1.1074075,0.47447607,-0.5060249,9.8135941,1.306728739,crawl
16/03/2021, 14:47:34,2.9602442,3.2260914,8.634046,1.1074075,0.47447607,-0.5060249,9.680777585,1.306728739,crawl
16/03/2021, 14:47:34,2.9602442,3.2260914,8.634046,1.091525,0.47325435,-0.4852555,9.680777585,1.284861599,crawl
16/03/2021, 14:47:34,2.8692336,3.4775686,8.667576,1.091525,0.47325435,-0.4852555,9.769997744,1.284861599,crawl
16/03/2021, 14:47:34,2.8692336,3.4775686,8.667576,1.0585382,0.4671457,-0.45471227,9.769997744,1.243177977,crawl
16/03/2021, 14:47:34,2.8285182,3.8487966,8.631651,1.0585382,0.4671457,-0.45471227,9.865046778,1.243177977,crawl
16/03/2021, 14:47:34,2.8285182,3.8487966,8.631651,1.0145559,0.4561501,-0.43394285,9.865046778,1.194028084,crawl
16/03/2021, 14:47:34,2.7830129,4.0882983,8.804092,1.0145559,0.4561501,-0.43394285,10.09808828,1.194028084,crawl
16/03/2021, 14:47:34,2.7830129,4.0882983,8.804092,0.9473608,0.4378242,-0.424169,10.09808828,1.126544218,crawl
16/03/2021, 14:47:34,2.5985963,4.1960745,8.950189,0.9473608,0.4378242,-0.424169,10.22084246,1.126544218,crawl
16/03/2021, 14:47:34,2.5985963,4.1960745,8.950189,0.84717894,0.40361574,-0.41072997,10.22084246,1.024361718,crawl
16/03/2021, 14:47:34,2.4572902,4.2343946,9.026829,0.84717894,0.40361574,-0.41072997,10.2689829,1.024361718,crawl
16/03/2021, 14:47:34,2.4572902,4.2343946,9.026829,0.73233634,0.34985963,-0.38507366,10.2689829,0.898331788,crawl
16/03/2021, 14:47:34,2.3016138,4.3134303,9.251961,0.73233634,0.34985963,-0.38507366,10.46431483,0.898331788,crawl
16/03/2021, 14:47:34,2.3016138,4.3134303,9.251961,0.61871547,0.2838862,-0.35208693,10.46431483,0.766397681,crawl
16/03/2021, 14:47:34,2.2632935,4.1984696,9.417217,0.61871547,0.2838862,-0.35208693,10.55621266,0.766397681,crawl
16/03/2021, 14:47:35,2.2824538,3.803291,8.799302,0.09214978,0.030988088,-0.024663277,9.854051743,0.100300153,crawl
16/03/2021, 14:47:35,2.2824538,3.803291,8.799302,0.09825843,0.030988088,-0.023441548,9.854051743,0.105662134,crawl
16/03/2021, 14:47:35,2.3135889,3.8272414,8.770562,0.09825843,0.030988088,-0.023441548,9.84495968,0.105662134,crawl
16/03/2021, 14:47:35,2.3135889,3.8272414,8.770562,0.09337151,0.026101166,-0.025885006,9.84495968,0.100347115,crawl
16/03/2021, 14:47:35,2.327959,3.9014869,8.715476,0.09337151,0.026101166,-0.025885006,9.828556138,0.100347115,crawl
16/03/2021, 14:47:35,2.327959,3.9014869,8.715476,0.082375936,0.017549057,-0.027106738,9.828556138,0.088479034,crawl
16/03/2021, 14:47:35,2.3686745,3.894302,8.770562,0.082375936,0.017549057,-0.027106738,9.88427878,0.088479034,crawl
16/03/2021, 14:47:35,2.3686745,3.894302,8.770562,0.07015864,0.012662137,-0.014889438,9.88427878,0.072830348,crawl
16/03/2021, 14:47:35,2.3375392,3.8751419,8.691526,0.07015864,0.012662137,-0.014889438,9.799155336,0.072830348,crawl
16/03/2021, 14:47:35,2.3375392,3.8751419,8.691526,0.06527172,0.008996947,-0.006337327,9.799155336,0.066192932,crawl
16/03/2021, 14:47:35,2.3590944,3.8775368,8.734636,0.06527172,0.008996947,-0.006337327,9.843499842,0.066192932,crawl
16/03/2021, 14:47:35,2.3590944,3.8775368,8.734636,0.05916307,0.007775217,-0.007559057,9.843499842,0.060148669,crawl
16/03/2021, 14:47:35,2.335144,3.8847218,8.720266,0.05916307,0.007775217,-0.007559057,9.827868838,0.060148669,crawl
16/03/2021, 14:47:35,2.335144,3.8847218,8.720266,0.056719612,-0.001998623,-0.014889438,9.827868838,0.058675415,crawl
16/03/2021, 14:47:35,2.3734643,3.9422023,8.725057,0.056719612,-0.001998623,-0.014889438,9.864122147,0.058675415,crawl
16/03/2021, 14:47:35,2.3734643,3.9422023,8.725057,0.05183269,-0.010550734,-0.023441548,9.864122147,0.057857169,crawl
16/03/2021, 14:47:35,2.44771,3.8775368,8.677156,0.05183269,-0.010550734,-0.023441548,9.814255952,0.057857169,crawl
16/03/2021, 14:47:35,2.44771,3.8775368,8.677156,0.04328058,-0.015437653,-0.025885006,9.814255952,0.052740527,crawl
16/03/2021, 14:47:35,2.5291407,3.8895118,8.624466,0.04328058,-0.015437653,-0.025885006,9.793174549,0.052740527,crawl
16/03/2021, 14:47:35,2.5291407,3.8895118,8.624466,0.05061096,-0.020324575,-0.019776357,9.793174549,0.058014325,crawl
16/03/2021, 14:47:36,2.069297,3.056045,8.703502,-0.042240523,-0.16082352,-0.06864556,9.453694708,0.179890746,crawl
16/03/2021, 14:47:36,1.9758912,3.0033545,8.581355,-0.042240523,-0.16082352,-0.06864556,9.303974418,0.179890746,crawl
16/03/2021, 14:47:36,1.9758912,3.0033545,8.581355,-0.060566474,-0.16693217,-0.085749775,9.303974418,0.197199568,crawl
16/03/2021, 14:47:36,1.9327809,3.056045,8.53106,-0.060566474,-0.16693217,-0.085749775,9.265745609,0.197199568,crawl
16/03/2021, 14:47:36,1.9327809,3.056045,8.53106,-0.092331454,-0.18647985,-0.09796707,9.265745609,0.229994304,crawl
16/03/2021, 14:47:36,1.9830762,3.1542408,8.58854,-0.092331454,-0.18647985,-0.09796707,9.361882677,0.229994304,crawl
16/03/2021, 14:47:36,1.9830762,3.1542408,8.58854,-0.1387572,-0.20236234,-0.11018438,9.361882677,0.268969656,crawl
16/03/2021, 14:47:36,2.088457,3.1997461,8.641231,-0.1387572,-0.20236234,-0.11018438,9.448327598,0.268969656,crawl
16/03/2021, 14:47:36,2.088457,3.1997461,8.641231,-0.1998437,-0.20969272,-0.13217552,9.448327598,0.318400549,crawl
16/03/2021, 14:47:36,2.1148024,3.1398706,8.758587,-0.1998437,-0.20969272,-0.13217552,9.541699056,0.318400549,crawl
16/03/2021, 14:47:36,2.1148024,3.1398706,8.758587,-0.2487129,-0.20969272,-0.15294492,9.541699056,0.359473629,crawl
16/03/2021, 14:47:36,2.1507277,2.9985645,8.830438,-0.2487129,-0.20969272,-0.15294492,9.570457046,0.359473629,crawl
16/03/2021, 14:47:36,2.1507277,2.9985645,8.830438,-0.2694823,-0.20602754,-0.17860126,9.570457046,0.383362069,crawl
16/03/2021, 14:47:36,2.196233,2.8620484,8.950189,-0.2694823,-0.20602754,-0.17860126,9.649903479,0.383362069,crawl
16/03/2021, 14:47:36,2.196233,2.8620484,8.950189,-0.24626943,-0.19258851,-0.19081856,9.649903479,0.366265876,crawl
16/03/2021, 14:47:36,2.1243825,2.823728,8.964559,-0.24626943,-0.19258851,-0.19081856,9.635857627,0.366265876,crawl
16/03/2021, 14:47:36,2.1243825,2.823728,8.964559,-0.19862197,-0.16937563,-0.1920403,9.635857627,0.324065219,crawl
16/03/2021, 14:47:36,2.0285816,2.8979738,8.928633,-0.19862197,-0.16937563,-0.1920403,9.603847038,0.324065219,crawl
16/03/2021, 14:47:36,2.0285816,2.8979738,8.928633,-0.15219623,-0.1437193,-0.19814894,9.603847038,0.288239363,crawl
16/03/2021, 14:47:36,1.9878663,3.0823903,8.871153,-0.15219623,-0.1437193,-0.19814894,9.59948414,0.288239363,crawl
16/03/2021, 14:47:37,4.7229786,-0.09340577,9.285491,0.31694812,0.03343155,0.26122153,10.41804177,0.412080651,crawl
16/03/2021, 14:47:37,4.679868,0.047900394,9.254355,0.31694812,0.03343155,0.26122153,10.37046554,0.412080651,crawl
16/03/2021, 14:47:37,4.679868,0.047900394,9.254355,0.35482174,0.06275307,0.20013505,10.37046554,0.412177698,crawl
16/03/2021, 14:47:37,4.687053,0.14130616,8.988508,0.35482174,0.06275307,0.20013505,10.13813174,0.412177698,crawl
16/03/2021, 14:47:37,4.687053,0.14130616,8.988508,0.29862216,0.110400535,0.11583568,10.13813174,0.338794006,crawl
16/03/2021, 14:47:37,4.6104126,0.102985844,8.681946,0.29862216,0.110400535,0.11583568,9.830701567,0.338794006,crawl
16/03/2021, 14:47:37,4.6104126,0.102985844,8.681946,0.07993248,0.14705245,0.020540735,9.830701567,0.168628429,crawl
16/03/2021, 14:47:37,4.2918754,-0.13891114,8.56459,0.07993248,0.14705245,0.020540735,9.580798509,0.168628429,crawl
16/03/2021, 14:47:37,4.2918754,-0.13891114,8.56459,-0.28292134,0.1531611,-0.0417675,9.580798509,0.324418451,crawl
16/03/2021, 14:47:37,3.923042,-0.4239185,8.377779,-0.28292134,0.1531611,-0.0417675,9.260515481,0.324418451,crawl
16/03/2021, 14:47:37,3.923042,-0.4239185,8.377779,-0.7056399,0.12994823,-0.071089014,9.260515481,0.721018624,crawl
16/03/2021, 14:47:37,3.6284547,-0.57959473,8.289163,-0.7056399,0.12994823,-0.071089014,9.067073985,0.721018624,crawl
16/03/2021, 14:47:37,3.6284547,-0.57959473,8.289163,-1.1405758,0.089631125,-0.09430189,9.067073985,1.147971979,crawl
16/03/2021, 14:47:37,3.4560134,-0.6394702,8.339458,-1.1405758,0.089631125,-0.09430189,9.049835278,1.147971979,crawl
16/03/2021, 14:47:37,3.4560134,-0.6394702,8.339458,-1.4985427,0.030988088,-0.12606686,9.049835278,1.504155324,crawl
16/03/2021, 14:47:37,3.3745828,-0.7807764,8.722662,-1.4985427,0.030988088,-0.12606686,9.385214568,1.504155324,crawl
16/03/2021, 14:47:37,3.3745828,-0.7807764,8.722662,-1.6940194,-0.026433224,-0.14561455,9.385214568,1.700471748,crawl
16/03/2021, 14:47:37,3.2500417,-0.95561284,9.347761,-1.6940194,-0.026433224,-0.14561455,9.942665925,1.700471748,crawl
16/03/2021, 14:47:37,3.2500417,-0.95561284,9.347761,-1.6488155,-0.038650524,-0.13461898,9.942665925,1.654753374,crawl
16/03/2021, 14:47:37,3.2404616,-1.2382251,10.042317,-1.6488155,-0.038650524,-0.13461898,10.62459088,1.654753374,crawl
16/03/2021, 14:47:38,0.7807764,-1.214275,9.510623,-0.080114156,-0.16326699,-0.16638395,9.619564698,0.246491392,crawl
16/03/2021, 14:47:38,0.6706055,-1.1448194,9.845925,-0.080114156,-0.16326699,-0.16638395,9.934916645,0.246491392,crawl
16/03/2021, 14:47:38,0.6706055,-1.1448194,9.845925,-0.04468398,-0.17181909,-0.15050147,9.934916645,0.232742674,crawl
16/03/2021, 14:47:38,0.5292993,-1.0035132,9.908196,-0.04468398,-0.17181909,-0.15050147,9.972941062,0.232742674,crawl
16/03/2021, 14:47:38,0.5292993,-1.0035132,9.908196,-0.031244954,-0.19503196,-0.16027531,9.972941062,0.254365654,crawl
16/03/2021, 14:47:38,0.5843848,-1.092129,9.874666,-0.031244954,-0.19503196,-0.16027531,9.952049245,0.254365654,crawl
16/03/2021, 14:47:38,0.5843848,-1.092129,9.874666,-0.06911859,-0.24023597,-0.1761578,9.952049245,0.305814113,crawl
16/03/2021, 14:47:38,0.60594,-1.1112891,9.74294,-0.06911859,-0.24023597,-0.1761578,9.824815809,0.305814113,crawl
16/03/2021, 14:47:38,0.60594,-1.1112891,9.74294,-0.12776163,-0.2927704,-0.16516222,9.824815809,0.359605468,crawl
16/03/2021, 14:47:38,0.7376661,-1.1280543,9.656719,-0.12776163,-0.2927704,-0.16516222,9.750327354,0.359605468,crawl
16/03/2021, 14:47:38,0.7376661,-1.1280543,9.656719,-0.16807872,-0.3257571,-0.12240168,9.750327354,0.386458673,crawl
16/03/2021, 14:47:38,0.91729254,-1.2789404,9.383687,-0.16807872,-0.3257571,-0.12240168,9.514762021,0.386458673,crawl
16/03/2021, 14:47:38,0.91729254,-1.2789404,9.383687,-0.22183484,-0.33553094,-0.09552362,9.514762021,0.413420448,crawl
16/03/2021, 14:47:38,1.0035132,-1.4082716,9.302257,-0.22183484,-0.33553094,-0.09552362,9.461619581,0.413420448,crawl
16/03/2021, 14:47:38,1.0035132,-1.4082716,9.302257,-0.22550003,-0.3343092,-0.079641126,9.461619581,0.411042101,crawl
16/03/2021, 14:47:38,0.8885523,-1.1088941,9.577683,-0.22550003,-0.3343092,-0.079641126,9.682519899,0.411042101,crawl
16/03/2021, 14:47:38,0.8885523,-1.1088941,9.577683,-0.13631374,-0.32820055,-0.093080156,9.682519899,0.367370318,crawl
16/03/2021, 14:47:38,0.86220706,-1.0322535,9.716595,-0.13631374,-0.32820055,-0.093080156,9.809238543,0.367370318,crawl
16/03/2021, 14:47:38,0.86220706,-1.0322535,9.716595,-0.108213946,-0.32942227,-0.13217552,9.809238543,0.371079042,crawl
16/03/2021, 14:47:38,0.7927515,-1.0083033,9.678274,-0.108213946,-0.32942227,-0.13217552,9.762895116,0.371079042,crawl
16/03/2021, 14:47:39,4.967271,-0.8047266,8.614885,0.11414092,0.189813,0.17692217,9.976853906,0.283475891,crawl
16/03/2021, 14:47:39,4.873865,-0.77359134,8.406519,0.11414092,0.189813,0.17692217,9.74795186,0.283475891,crawl
16/03/2021, 14:47:39,4.873865,-0.77359134,8.406519,0.06893691,0.19714338,0.19280466,9.74795186,0.284238362,crawl
16/03/2021, 14:47:39,4.782854,-0.7376661,8.329878,0.06893691,0.19714338,0.19280466,9.633623899,0.284238362,crawl
16/03/2021, 14:47:39,4.782854,-0.7376661,8.329878,0.03472847,0.189813,0.20746543,9.633623899,0.283331864,crawl
16/03/2021, 14:47:39,4.7133985,-0.68737066,8.375383,0.03472847,0.189813,0.20746543,9.63512585,0.283331864,crawl
16/03/2021, 14:47:39,4.7133985,-0.68737066,8.375383,0.002963488,0.16660012,0.218461,9.63512585,0.274753698,crawl
16/03/2021, 14:47:39,4.6846585,-0.8334668,8.4304695,0.002963488,0.16660012,0.218461,9.680573778,0.274753698,crawl
16/03/2021, 14:47:39,4.6846585,-0.8334668,8.4304695,-0.008032082,0.13483514,0.22456965,9.680573778,0.262062123,crawl
16/03/2021, 14:47:39,4.6271777,-0.9364527,8.504715,-0.008032082,0.13483514,0.22456965,9.727172965,0.262062123,crawl
16/03/2021, 14:47:39,4.6271777,-0.9364527,8.504715,0.015180789,0.112844,0.2306783,9.727172965,0.257248333,crawl
16/03/2021, 14:47:39,4.5840673,-1.0394385,8.629255,0.015180789,0.112844,0.2306783,9.826400802,0.257248333,crawl
16/03/2021, 14:47:39,4.5840673,-1.0394385,8.629255,0.06893691,0.10673535,0.2306783,9.826400802,0.263357575,crawl
16/03/2021, 14:47:39,4.536167,-1.0154883,8.789722,0.06893691,0.10673535,0.2306783,9.943201165,0.263357575,crawl
16/03/2021, 14:47:39,4.536167,-1.0154883,8.789722,0.13613206,0.12261783,0.22456965,9.943201165,0.289825117,crawl
16/03/2021, 14:47:39,4.5792775,-0.90052736,8.746612,0.13613206,0.12261783,0.22456965,9.913826026,0.289825117,crawl
16/03/2021, 14:47:39,4.5792775,-0.90052736,8.746612,0.20088375,0.17393051,0.218461,9.913826026,0.343993188,crawl
16/03/2021, 14:47:39,4.749324,-0.82388675,8.863968,0.20088375,0.17393051,0.218461,10.08983613,0.343993188,crawl
16/03/2021, 14:47:39,4.749324,-0.82388675,8.863968,0.2228749,0.1983651,0.18303083,10.08983613,0.35003174,crawl
16/03/2021, 14:47:39,4.749324,-0.7927515,8.679551,0.2228749,0.1983651,0.18303083,9.925680815,0.35003174,crawl
16/03/2021, 14:47:40,3.9445972,-3.3218923,8.595725,0.03350674,0.004110027,-0.017332897,10.02403636,0.037947638,crawl
16/03/2021, 14:47:40,3.9422023,-3.2548318,8.705896,0.03350674,0.004110027,-0.017332897,10.09591605,0.037947638,crawl
16/03/2021, 14:47:40,3.9422023,-3.2548318,8.705896,0.05061096,0.015105596,-0.011224248,10.09591605,0.053996592,crawl
16/03/2021, 14:47:40,3.9398074,-3.1566358,8.626861,0.05061096,0.015105596,-0.011224248,9.995456764,0.053996592,crawl
16/03/2021, 14:47:40,3.9398074,-3.1566358,8.626861,0.053054422,0.022435976,-0.012445978,9.995456764,0.058932564,crawl
16/03/2021, 14:47:40,3.9278321,-3.1159205,8.586145,0.053054422,0.022435976,-0.012445978,9.942772194,0.058932564,crawl
16/03/2021, 14:47:40,3.9278321,-3.1159205,8.586145,0.027398089,0.029766357,-0.008780788,9.942772194,0.041397989,crawl
16/03/2021, 14:47:40,3.8272414,-3.1135256,8.624466,0.027398089,0.029766357,-0.008780788,9.935956498,0.041397989,crawl
16/03/2021, 14:47:40,3.8272414,-3.1135256,8.624466,-0.005588622,0.028544627,-0.002672137,9.935956498,0.029209053,crawl
16/03/2021, 14:47:40,3.7649708,-3.0752053,8.631651,-0.005588622,0.028544627,-0.002672137,9.906426725,0.029209053,crawl
16/03/2021, 14:47:40,3.7649708,-3.0752053,8.631651,-0.03368841,0.022435976,0.009545163,9.906426725,0.041585962,crawl
16/03/2021, 14:47:40,3.661985,-3.1422658,8.612491,-0.03368841,0.022435976,0.009545163,9.872130629,0.041585962,crawl
16/03/2021, 14:47:40,3.661985,-3.1422658,8.612491,-0.059344742,0.021214247,0.014432083,9.872130629,0.064653907,crawl
16/03/2021, 14:47:40,3.6955154,-3.2380664,8.677156,-0.059344742,0.021214247,0.014432083,9.971707592,0.064653907,crawl
16/03/2021, 14:47:40,3.6955154,-3.2380664,8.677156,-0.100883566,0.022435976,0.009545163,9.971707592,0.103788135,crawl
16/03/2021, 14:47:40,3.8368216,-3.173401,8.844808,-0.100883566,0.022435976,0.009545163,10.14998996,0.103788135,crawl
16/03/2021, 14:47:40,3.8368216,-3.173401,8.844808,-0.17052218,0.035875008,-0.007559057,10.14998996,0.174418951,crawl
16/03/2021, 14:47:40,3.911067,-2.955454,9.137,-0.17052218,0.035875008,-0.007559057,10.3689886,0.174418951,crawl
16/03/2021, 14:47:40,3.911067,-2.955454,9.137,-0.25482154,-0.053311285,-0.001450407,10.3689886,0.260342493,crawl
16/03/2021, 14:47:40,4.071533,-2.8644435,8.8879175,-0.25482154,-0.053311285,-0.001450407,10.18712409,0.260342493,crawl
16/03/2021, 14:47:41,3.9805226,-3.8200562,8.121511,-0.17052218,-0.17059736,0.029092845,9.818163687,0.242956102,crawl
16/03/2021, 14:47:41,4.006868,-3.8344264,8.131092,-0.17052218,-0.17059736,0.029092845,9.842381539,0.242956102,crawl
16/03/2021, 14:47:41,4.006868,-3.8344264,8.131092,-0.19129159,-0.17914948,0.030314574,9.842381539,0.263829452,crawl
16/03/2021, 14:47:41,3.9709425,-3.8559816,8.145462,-0.19129159,-0.17914948,0.030314574,9.848123177,0.263829452,crawl
16/03/2021, 14:47:41,3.9709425,-3.8559816,8.145462,-0.18273948,-0.18403639,0.030314574,9.848123177,0.261116993,crawl
16/03/2021, 14:47:41,3.9278321,-3.8248463,8.188572,-0.18273948,-0.18403639,0.030314574,9.854441863,0.261116993,crawl
16/03/2021, 14:47:41,3.9278321,-3.8248463,8.188572,-0.13997893,-0.17548428,0.024205925,9.854441863,0.225775911,crawl
16/03/2021, 14:47:41,3.8392165,-3.786526,8.3322735,-0.13997893,-0.17548428,0.024205925,9.924925359,0.225775911,crawl
16/03/2021, 14:47:41,3.8392165,-3.786526,8.3322735,-0.078892425,-0.15838006,0.005879973,9.924925359,0.177039071,crawl
16/03/2021, 14:47:41,3.8464015,-3.7338357,8.337064,-0.078892425,-0.15838006,0.005879973,9.911758965,0.177039071,crawl
16/03/2021, 14:47:41,3.8464015,-3.7338357,8.337064,-0.020249384,-0.14982796,-0.018554626,9.911758965,0.152324418,crawl
16/03/2021, 14:47:41,3.7290456,-3.7098854,8.341853,-0.020249384,-0.14982796,-0.018554626,9.861822576,0.152324418,crawl
16/03/2021, 14:47:41,3.7290456,-3.7098854,8.341853,0.027398089,-0.1437193,-0.028328467,9.861822576,0.149024812,crawl
16/03/2021, 14:47:41,3.7338357,-3.65959,8.217313,0.027398089,-0.1437193,-0.028328467,9.739525547,0.149024812,crawl
16/03/2021, 14:47:41,3.7338357,-3.65959,8.217313,0.03961539,-0.14494103,-0.024663277,9.739525547,0.15226805,crawl
16/03/2021, 14:47:41,3.8296363,-3.6308498,8.140672,0.03961539,-0.14494103,-0.024663277,9.701531901,0.15226805,crawl
16/03/2021, 14:47:41,3.8296363,-3.6308498,8.140672,0.023732899,-0.14616276,-0.013667707,9.701531901,0.148706456,crawl
16/03/2021, 14:47:41,3.9445972,-3.6116896,8.145462,0.023732899,-0.14616276,-0.013667707,9.744367642,0.148706456,crawl
16/03/2021, 14:47:41,3.9445972,-3.6116896,8.145462,-0.008032082,-0.14127584,-0.001450407,9.744367642,0.141511414,crawl
16/03/2021, 14:47:41,4.145779,-3.7218604,8.181387,-0.008032082,-0.14127584,-0.001450407,9.898223169,0.141511414,crawl
16/03/2021, 14:47:42,3.9565725,-4.0763235,8.423284,-0.43808106,-0.08751973,0.102396645,10.15985166,0.458322798,crawl
16/03/2021, 14:47:42,3.9350173,-4.1936793,8.250843,-0.43808106,-0.08751973,0.102396645,10.05722222,0.458322798,crawl
16/03/2021, 14:47:42,3.9350173,-4.1936793,8.250843,-0.37210763,-0.048424363,0.13416162,10.05722222,0.398507646,crawl
16/03/2021, 14:47:42,3.9733377,-4.150569,7.9778104,-0.37210763,-0.048424363,0.13416162,9.83158651,0.398507646,crawl
16/03/2021, 14:47:42,3.9733377,-4.150569,7.9778104,-0.2926952,-0.022768034,0.12683125,9.83158651,0.319804668,crawl
16/03/2021, 14:47:42,4.0523734,-4.2918754,8.796907,-0.2926952,-0.022768034,0.12683125,10.59374837,0.319804668,crawl
16/03/2021, 14:47:42,4.0523734,-4.2918754,8.796907,-0.2768127,-0.005663814,0.088957615,10.59374837,0.290810606,crawl
16/03/2021, 14:47:42,4.014053,-4.1936793,8.131092,-0.2768127,-0.005663814,0.088957615,9.990706934,0.290810606,crawl
16/03/2021, 14:47:42,4.014053,-4.1936793,8.131092,-0.1998437,0.012662137,0.057192635,9.990706934,0.208251851,crawl
16/03/2021, 14:47:42,4.0787187,-4.390071,7.8604546,-0.1998437,0.012662137,0.057192635,9.884099071,0.208251851,crawl
16/03/2021, 14:47:42,4.0787187,-4.390071,7.8604546,-0.14120066,0.04442712,0.042531874,9.884099071,0.154014142,crawl
16/03/2021, 14:47:42,4.1553593,-4.404441,7.7335186,-0.14120066,0.04442712,0.042531874,9.822088375,0.154014142,crawl
16/03/2021, 14:47:42,4.1553593,-4.404441,7.7335186,-0.12409644,0.05297923,0.031536303,9.822088375,0.138568623,crawl
16/03/2021, 14:47:42,4.28948,-4.28948,7.7167535,-0.12409644,0.05297923,0.031536303,9.815679561,0.138568623,crawl
16/03/2021, 14:47:42,4.28948,-4.28948,7.7167535,-0.099661835,0.04198366,0.004658243,9.815679561,0.108244206,crawl
16/03/2021, 14:47:42,4.390071,-4.3325906,7.704778,-0.099661835,0.04198366,0.004658243,9.869532451,0.108244206,crawl
16/03/2021, 14:47:42,4.390071,-4.3325906,7.704778,-0.080114156,0.04198366,-0.023441548,9.869532451,0.093436673,crawl
16/03/2021, 14:47:42,4.4834766,-4.4451566,7.767049,-0.080114156,0.04198366,-0.023441548,10.00939695,0.093436673,crawl
16/03/2021, 14:47:42,4.4834766,-4.4451566,7.767049,-0.045905713,0.05420096,-0.030771928,10.00939695,0.077407945,crawl
16/03/2021, 14:47:42,4.4427614,-4.5002418,7.814949,-0.045905713,0.05420096,-0.030771928,10.05304597,0.077407945,crawl
16/03/2021, 14:47:43,4.4762917,-5.50136,7.1060233,-0.4319724,-0.049646094,0.041310143,10.03980655,0.436773888,crawl
16/03/2021, 14:47:43,4.380491,-5.4534597,6.998247,-0.4319724,-0.049646094,0.041310143,9.894664508,0.436773888,crawl
16/03/2021, 14:47:43,4.380491,-5.4534597,6.998247,-0.44663316,-0.04353744,0.0437536,9.894664508,0.450878106,crawl
16/03/2021, 14:47:43,4.3182206,-5.4271145,6.933582,-0.44663316,-0.04353744,0.0437536,9.806893388,0.450878106,crawl
16/03/2021, 14:47:43,4.3182206,-5.4271145,6.933582,-0.44663316,-0.033763602,0.044975333,9.806893388,0.450159906,crawl
16/03/2021, 14:47:43,4.3325906,-5.52052,6.9168167,-0.44663316,-0.033763602,0.044975333,9.853417577,0.450159906,crawl
16/03/2021, 14:47:43,4.3325906,-5.52052,6.9168167,-0.4319724,-0.023989765,0.0437536,9.853417577,0.434844861,crawl
16/03/2021, 14:47:43,4.2296047,-5.647456,6.9216065,-0.4319724,-0.023989765,0.0437536,9.883924038,0.434844861,crawl
16/03/2021, 14:47:43,4.2296047,-5.647456,6.9216065,-0.3831032,-0.011772463,0.041310143,9.883924038,0.385503793,crawl
16/03/2021, 14:47:43,4.26553,-5.6785917,6.928792,-0.3831032,-0.011772463,0.041310143,9.922162552,0.385503793,crawl
16/03/2021, 14:47:43,4.26553,-5.6785917,6.928792,-0.29636037,4.45E-04,0.025427654,9.922162552,0.297449549,crawl
16/03/2021, 14:47:43,4.26553,-5.8198977,6.828201,-0.29636037,4.45E-04,0.025427654,9.934298274,0.297449549,crawl
16/03/2021, 14:47:43,4.26553,-5.8198977,6.828201,-0.23160867,0.017549057,0.010766893,9.934298274,0.232521984,crawl
16/03/2021, 14:47:43,4.2080493,-5.8821683,6.8832865,-0.23160867,0.017549057,0.010766893,9.984348523,0.232521984,crawl
16/03/2021, 14:47:43,4.2080493,-5.8821683,6.8832865,-0.15341796,0.03343155,9.93E-04,9.984348523,0.157021416,crawl
16/03/2021, 14:47:43,4.1553593,-5.848638,6.9886675,-0.15341796,0.03343155,9.93E-04,10.01574016,0.157021416,crawl
16/03/2021, 14:47:43,4.1553593,-5.848638,6.9886675,-0.004366892,0.03465328,-0.016111167,10.01574016,0.03846413,crawl
16/03/2021, 14:47:43,3.9901028,-5.103787,9.493857,-0.004366892,0.03465328,-0.016111167,11.4936021,0.03846413,crawl
16/03/2021, 14:47:43,3.9901028,-5.103787,9.493857,-0.07400551,-0.012994194,-0.007559057,11.4936021,0.075516909,crawl
16/03/2021, 14:47:43,3.7362306,-6.0043144,6.7228203,-0.07400551,-0.012994194,-0.007559057,9.757434264,0.075516909,crawl
16/03/2021, 14:47:44,4.0906935,-7.7526784,5.927674,-0.77772194,-0.27077925,-0.046654418,10.58182934,0.824832987,crawl
16/03/2021, 14:47:44,4.0906935,-7.7526784,5.927674,-0.71541375,-0.18647985,-0.06009345,10.58182934,0.741756557,crawl
16/03/2021, 14:47:44,3.9781277,-7.7862086,6.0258694,-0.71541375,-0.18647985,-0.06009345,10.61892869,0.741756557,crawl
16/03/2021, 14:47:44,3.9781277,-7.7862086,6.0258694,-0.6445534,-0.07530243,-0.05642826,10.61892869,0.651385999,crawl
16/03/2021, 14:47:44,3.3530276,-7.9466753,6.0019193,-0.6445534,-0.07530243,-0.05642826,10.50787691,0.651385999,crawl
16/03/2021, 14:47:44,3.3530276,-7.9466753,6.0019193,-0.6042363,0.13483514,0.051083982,10.50787691,0.621201738,crawl
16/03/2021, 14:47:44,3.2524366,-7.8412943,5.7887626,-0.6042363,0.13483514,0.051083982,10.27492152,0.621201738,crawl
16/03/2021, 14:47:44,3.2524366,-7.8412943,5.7887626,-0.6079015,0.1250613,-0.027106738,10.27492152,0.621224078,crawl
16/03/2021, 14:47:44,3.7074904,-7.793394,5.6714063,-0.6079015,0.1250613,-0.027106738,10.32701922,0.621224078,crawl
16/03/2021, 14:47:44,3.7074904,-7.793394,5.6714063,-0.6543272,-0.17914948,-0.30810466,10.32701922,0.745095378,crawl
16/03/2021, 14:47:44,3.432063,-8.337064,5.8103175,-0.6543272,-0.17914948,-0.30810466,10.72592557,0.745095378,crawl
16/03/2021, 14:47:44,3.432063,-8.337064,5.8103175,-0.6763184,-0.3990609,-0.4730382,10.72592557,0.916744964,crawl
16/03/2021, 14:47:44,3.04886,-8.53106,5.7791824,-0.6763184,-0.3990609,-0.4730382,10.74585901,0.916744964,crawl
16/03/2021, 14:47:44,3.04886,-8.53106,5.7791824,-0.6017929,-0.45037356,-0.49136415,10.74585901,0.898014328,crawl
16/03/2021, 14:47:44,3.3650026,-8.4376545,5.5444703,-0.6017929,-0.45037356,-0.49136415,10.64229332,0.898014328,crawl
16/03/2021, 14:47:44,3.3650026,-8.4376545,5.5444703,-0.4649591,-0.45281702,-0.5243509,10.64229332,0.83437047,crawl
16/03/2021, 14:47:44,3.8344264,-8.404124,5.6761966,-0.4649591,-0.45281702,-0.5243509,10.84210948,0.83437047,crawl
16/03/2021, 14:47:44,3.8344264,-8.404124,5.6761966,-0.3415644,-0.43082586,-0.5939895,10.84210948,0.809382893,crawl
16/03/2021, 14:47:44,4.064348,-8.305928,5.757627,-0.3415644,-0.43082586,-0.5939895,10.89300872,0.809382893,crawl
16/03/2021, 14:47:44,4.064348,-8.305928,5.757627,-0.17052218,-0.35996553,-0.6489673,10.89300872,0.761453603,crawl
16/03/2021, 14:47:45,5.589976,-5.654641,7.0078273,0.095814966,0.11895265,0.2465608,10.5986999,0.290038733,crawl
16/03/2021, 14:47:45,5.7624173,-5.513335,6.8425713,0.095814966,0.11895265,0.2465608,10.50823963,0.290038733,crawl
16/03/2021, 14:47:45,5.7624173,-5.513335,6.8425713,0.10070189,0.11895265,0.23923041,10.50823963,0.285520212,crawl
16/03/2021, 14:47:45,5.407954,-5.726492,6.6102543,0.10070189,0.11895265,0.23923041,10.28271075,0.285520212,crawl
16/03/2021, 14:47:45,5.407954,-5.726492,6.6102543,0.082375936,0.12628303,0.23312177,10.28271075,0.277630975,crawl
16/03/2021, 14:47:45,5.4582496,-5.6977515,6.7659307,0.082375936,0.12628303,0.23312177,10.39397317,0.277630975,crawl
16/03/2021, 14:47:45,5.4582496,-5.6977515,6.7659307,0.14712763,0.109178804,0.19158293,10.39397317,0.265085968,crawl
16/03/2021, 14:47:45,5.5708156,-5.6977515,6.595884,0.14712763,0.109178804,0.19158293,10.34427582,0.265085968,crawl
16/03/2021, 14:47:45,5.5708156,-5.6977515,6.595884,0.22654007,0.095739774,0.13904855,10.34427582,0.282526119,crawl
16/03/2021, 14:47:45,5.6714063,-5.815108,6.6533647,0.22654007,0.095739774,0.13904855,10.49988521,0.282526119,crawl
16/03/2021, 14:47:45,5.6714063,-5.815108,6.6533647,0.3120612,0.109178804,0.11583568,10.49988521,0.350314292,crawl
16/03/2021, 14:47:45,5.757627,-5.8031325,6.7731156,0.3120612,0.109178804,0.11583568,10.61610623,0.350314292,crawl
16/03/2021, 14:47:45,5.757627,-5.8031325,6.7731156,0.4220169,0.1531611,0.11583568,10.61610623,0.463653405,crawl
16/03/2021, 14:47:45,5.7935524,-5.8438478,6.7563505,0.4220169,0.1531611,0.11583568,10.64725684,0.463653405,crawl
16/03/2021, 14:47:45,5.7935524,-5.8438478,6.7563505,0.54418993,0.19225645,0.10484011,10.64725684,0.586597537,crawl
16/03/2021, 14:47:45,5.7312818,-5.7552323,6.835386,0.54418993,0.19225645,0.10484011,10.61568598,0.586597537,crawl
16/03/2021, 14:47:45,5.7312818,-5.7552323,6.835386,0.66269773,0.21302587,0.07674032,10.61568598,0.700312346,crawl
16/03/2021, 14:47:45,5.6833816,-5.640271,6.8928666,0.66269773,0.21302587,0.07674032,10.56527781,0.700312346,crawl
16/03/2021, 14:47:45,5.6833816,-5.640271,6.8928666,0.78609246,0.2179128,0.049862254,10.56527781,0.817259803,crawl
16/03/2021, 14:47:45,5.6785917,-5.527705,7.0509377,0.78609246,0.2179128,0.049862254,10.60743374,0.817259803,crawl
16/03/2021, 14:47:46,1.5567628,3.915857,8.792117,-0.1509745,0.16904359,0.059636094,9.749808744,0.234361892,crawl
16/03/2021, 14:47:46,1.5687379,3.8895118,8.696317,-0.1509745,0.16904359,0.059636094,9.654800111,0.234361892,crawl
16/03/2021, 14:47:46,1.5687379,3.8895118,8.696317,-0.16074833,0.18614781,0.046197064,9.654800111,0.250250279,crawl
16/03/2021, 14:47:46,1.5088624,3.8200562,8.780142,-0.16074833,0.18614781,0.046197064,9.693316543,0.250250279,crawl
16/03/2021, 14:47:46,1.5088624,3.8200562,8.780142,-0.14364412,0.20691721,0.037644953,9.693316543,0.254687081,crawl
16/03/2021, 14:47:46,1.6214283,3.8775368,8.760982,-0.14364412,0.20691721,0.037644953,9.716950082,0.254687081,crawl
16/03/2021, 14:47:46,1.6214283,3.8775368,8.760982,-0.12409644,0.23135182,0.005879973,9.716950082,0.262598869,crawl
16/03/2021, 14:47:46,1.6884888,3.8727467,8.780142,-0.12409644,0.23135182,0.005879973,9.743718601,0.262598869,crawl
16/03/2021, 14:47:46,1.6884888,3.8727467,8.780142,-0.113100864,0.27411234,-0.027106738,9.743718601,0.297765273,crawl
16/03/2021, 14:47:46,1.7028589,3.8344264,8.737032,-0.113100864,0.27411234,-0.027106738,9.692176299,0.297765273,crawl
16/03/2021, 14:47:46,1.7028589,3.8344264,8.737032,-0.1021053,0.325425,-0.039324038,9.692176299,0.343326815,crawl
16/03/2021, 14:47:46,1.5519727,3.7601807,8.840017,-0.1021053,0.325425,-0.039324038,9.731057732,0.343326815,crawl
16/03/2021, 14:47:46,1.5519727,3.7601807,8.840017,-0.1021053,0.3608552,-0.042989228,9.731057732,0.377478523,crawl
16/03/2021, 14:47:46,1.5519727,3.7601807,8.840017,-0.10943568,0.37307248,-0.05276307,9.731057732,0.392355937,crawl
16/03/2021, 14:47:46,1.4346168,3.5566041,8.744217,-0.10943568,0.37307248,-0.05276307,9.548240045,0.392355937,crawl
16/03/2021, 14:47:46,1.3124708,3.4368532,8.746612,-0.10943568,0.37307248,-0.05276307,9.488822566,0.392355937,crawl
16/03/2021, 14:47:46,1.3124708,3.4368532,8.746612,-0.0984401,0.38040286,-0.05520653,9.488822566,0.396792834,crawl
16/03/2021, 14:47:46,1.2597803,3.4751735,8.784932,-0.0984401,0.38040286,-0.05520653,9.530944848,0.396792834,crawl
16/03/2021, 14:47:46,1.2597803,3.4751735,8.784932,-0.061788205,0.3901767,-0.05031961,9.530944848,0.398230728,crawl
16/03/2021, 14:47:46,1.2597803,3.542234,8.816068,-0.061788205,0.3901767,-0.05031961,9.584232744,0.398230728,crawl
16/03/2021, 14:47:47,0.78556645,-2.672842,9.503438,0.4146865,-0.001998623,1.6100115,9.903359677,1.662560009,crawl
16/03/2021, 14:47:47,0.6394702,-2.543511,9.975257,0.4146865,-0.001998623,1.6100115,10.31426781,1.662560009,crawl
16/03/2021, 14:47:47,0.6394702,-2.543511,9.975257,0.5319726,-0.001998623,1.6173419,10.31426781,1.70258438,crawl
16/03/2021, 14:47:47,0.46702883,-2.5387208,10.116563,0.5319726,-0.001998623,1.6173419,10.44069266,1.70258438,crawl
16/03/2021, 14:47:47,0.46702883,-2.5387208,10.116563,0.6358197,-0.042315714,1.6210071,10.44069266,1.741758091,crawl
16/03/2021, 14:47:47,0.5460645,-2.2848487,9.80521,0.6358197,-0.042315714,1.6210071,10.08270129,1.741758091,crawl
16/03/2021, 14:47:47,0.5460645,-2.2848487,9.80521,0.6590325,-0.044759173,1.6136767,10.08270129,1.743639767,crawl
16/03/2021, 14:47:47,0.732876,-1.9926564,9.637559,0.6590325,-0.044759173,1.6136767,9.868653851,1.743639767,crawl
16/03/2021, 14:47:47,0.732876,-1.9926564,9.637559,0.6565891,-0.003220353,1.6051246,9.868653851,1.734227368,crawl
16/03/2021, 14:47:47,0.7544312,-1.7363893,9.704619,0.6565891,-0.003220353,1.6051246,9.887560467,1.734227368,crawl
16/03/2021, 14:47:47,0.7544312,-1.7363893,9.704619,0.6382631,0.05297923,1.6136767,9.887560467,1.736127581,crawl
16/03/2021, 14:47:47,0.7041358,-1.4968873,9.716595,0.6382631,0.05297923,1.6136767,9.856403571,1.736127581,crawl
16/03/2021, 14:47:47,0.7041358,-1.4968873,9.716595,0.5722897,0.09451804,1.6503285,9.856403571,1.74929511,crawl
16/03/2021, 14:47:47,0.73048097,-1.2741505,9.673484,0.5722897,0.09451804,1.6503285,9.784342169,1.74929511,crawl
16/03/2021, 14:47:47,0.73048097,-1.2741505,9.673484,0.42446035,0.10795708,1.6894239,9.784342169,1.745272041,crawl
16/03/2021, 14:47:47,0.68737066,-1.1376343,9.570498,0.42446035,0.10795708,1.6894239,9.662356393,1.745272041,crawl
16/03/2021, 14:47:47,0.68737066,-1.1376343,9.570498,0.1947751,0.09940497,1.7236323,9.662356393,1.73744845,crawl
16/03/2021, 14:47:47,0.6011499,-1.0011182,9.527389,0.1947751,0.09940497,1.7236323,9.598684902,1.73744845,crawl
16/03/2021, 14:47:47,0.6011499,-1.0011182,9.527389,-0.089888,0.07741383,1.7492887,9.598684902,1.753306486,crawl
16/03/2021, 14:47:47,0.52690434,-0.8861573,9.405242,-0.089888,0.07741383,1.7492887,9.461579115,1.753306486,crawl
16/03/2021, 14:47:48,-0.47181886,-9.3309965,5.48699,1.2100328,-0.52123386,0.49701542,10.83499737,1.408150732,crawl
16/03/2021, 14:47:48,-0.6322852,-9.24717,5.8917484,1.2100328,-0.52123386,0.49701542,10.98283412,1.408150732,crawl
16/03/2021, 14:47:48,-0.6322852,-9.24717,5.8917484,1.2747844,-0.561551,0.46158525,10.98283412,1.467472598,crawl
16/03/2021, 14:47:48,-0.8334668,-9.350157,6.2270513,1.2747844,-0.561551,0.46158525,11.26482429,1.467472598,crawl
16/03/2021, 14:47:48,-0.8334668,-9.350157,6.2270513,1.3419796,-0.62141573,0.42982027,11.26482429,1.540068923,crawl
16/03/2021, 14:47:48,-0.96758795,-9.323812,6.2893214,1.3419796,-0.62141573,0.42982027,11.2882794,1.540068923,crawl
16/03/2021, 14:47:48,-0.96758795,-9.323812,6.2893214,1.3786315,-0.6690632,0.39927703,11.2882794,1.583569533,crawl
16/03/2021, 14:47:48,-1.0490186,-9.304651,6.3060865,1.3786315,-0.6690632,0.39927703,11.28909662,1.583569533,crawl
16/03/2021, 14:47:48,-1.0490186,-9.304651,6.3060865,1.3822967,-0.683724,0.37606415,11.28909662,1.587339551,crawl
16/03/2021, 14:47:48,-1.089734,-9.172925,6.1073003,1.3822967,-0.683724,0.37606415,11.07380647,1.587339551,crawl
16/03/2021, 14:47:48,-1.089734,-9.172925,6.1073003,1.3603055,-0.6678415,0.3736207,11.07380647,1.56078053,crawl
16/03/2021, 14:47:48,-1.094524,-9.005274,5.894143,1.3603055,-0.6678415,0.3736207,10.818219,1.56078053,crawl
16/03/2021, 14:47:48,-1.094524,-9.005274,5.894143,1.3065494,-0.6446286,0.37484244,10.818219,1.504368398,crawl
16/03/2021, 14:47:48,-1.0250684,-8.653206,5.7312818,1.3065494,-0.6446286,0.37484244,10.42958905,1.504368398,crawl
16/03/2021, 14:47:48,-1.0250684,-8.653206,5.7312818,1.2198067,-0.6275244,0.3614034,10.42958905,1.418565324,crawl
16/03/2021, 14:47:48,-1.0106983,-8.459209,5.606741,1.2198067,-0.6275244,0.3614034,10.19878814,1.418565324,crawl
16/03/2021, 14:47:48,-1.0106983,-8.459209,5.606741,1.0951902,-0.6311896,0.34307745,10.19878814,1.309787743,crawl
16/03/2021, 14:47:48,-1.0274634,-8.274793,5.5612354,1.0951902,-0.6311896,0.34307745,10.02273487,1.309787743,crawl
16/03/2021, 14:47:48,-1.0274634,-8.274793,5.5612354,0.9253697,-0.6605111,0.33941227,10.02273487,1.186500997,crawl
16/03/2021, 14:47:48,-1.1352394,-8.095166,5.4342995,0.9253697,-0.6605111,0.33941227,9.815910301,1.186500997,crawl
16/03/2021, 14:47:49,0.9196875,2.5962012,9.369317,0.011515599,0.12628303,0.04741879,9.765766112,0.135382996,crawl
16/03/2021, 14:47:49,0.9196875,2.5962012,9.369317,0.002963488,0.1531611,0.06940994,9.765766112,0.16818098,crawl
16/03/2021, 14:47:49,0.85023195,2.9698243,9.283096,0.002963488,0.1531611,0.06940994,9.783589729,0.16818098,crawl
16/03/2021, 14:47:49,0.85023195,2.9698243,9.283096,-0.05079263,0.15804802,0.0840707,9.783589729,0.18608318,crawl
16/03/2021, 14:47:49,0.8310718,3.163821,9.172925,-0.05079263,0.15804802,0.0840707,9.738736905,0.18608318,crawl
16/03/2021, 14:47:49,0.8310718,3.163821,9.172925,-0.1509745,0.13605687,0.09384454,9.738736905,0.223856133,crawl
16/03/2021, 14:47:49,0.85741705,3.2692018,9.16574,-0.1509745,0.13605687,0.09384454,9.769013978,0.223856133,crawl
16/03/2021, 14:47:49,0.85741705,3.2692018,9.16574,-0.27436924,0.10795708,0.087735884,9.769013978,0.307621189,crawl
16/03/2021, 14:47:49,0.8646021,3.2021413,9.10347,-0.27436924,0.10795708,0.087735884,9.688880682,0.307621189,crawl
16/03/2021, 14:47:49,0.8646021,3.2021413,9.10347,-0.37577283,0.07863556,0.082848966,9.688880682,0.392750207,crawl
16/03/2021, 14:47:49,0.9364527,2.9985645,9.273516,-0.37577283,0.07863556,0.082848966,9.791140181,0.392750207,crawl
16/03/2021, 14:47:49,0.9364527,2.9985645,9.273516,-0.4075378,0.06519653,0.081627235,9.791140181,0.420714442,crawl
16/03/2021, 14:47:49,0.93405765,2.6967921,9.290281,-0.4075378,0.06519653,0.081627235,9.718769368,0.420714442,crawl
16/03/2021, 14:47:49,0.93405765,2.6967921,9.290281,-0.38432494,0.07741383,0.081627235,9.718769368,0.4004517,crawl
16/03/2021, 14:47:49,0.9268726,2.4261549,9.352551,-0.38432494,0.07741383,0.081627235,9.706468926,0.4004517,crawl
16/03/2021, 14:47:49,0.9268726,2.4261549,9.352551,-0.30369076,0.112844,0.09873146,9.706468926,0.338688274,crawl
16/03/2021, 14:47:49,0.7759864,2.2369483,9.21364,-0.30369076,0.112844,0.09873146,9.513004694,0.338688274,crawl
16/03/2021, 14:47:49,0.7759864,2.2369483,9.21364,-0.20228715,0.15682629,0.13416162,9.513004694,0.288987746,crawl
16/03/2021, 14:47:49,0.6682105,2.2345533,9.129815,-0.20228715,0.15682629,0.13416162,9.423017441,0.288987746,crawl
16/03/2021, 14:47:49,0.6682105,2.2345533,9.129815,-0.11554433,0.19347818,0.17447872,9.423017441,0.285003726,crawl
16/03/2021, 14:47:50,0.83586186,-2.5985963,10.059082,-0.40142915,-0.57254654,0.12805298,10.42288344,0.710881472,crawl
16/03/2021, 14:47:50,0.83586186,-2.5985963,10.059082,-0.3623338,-0.6128636,0.117057405,10.42288344,0.721519241,crawl
16/03/2021, 14:47:50,0.87178713,-2.7135572,10.020762,-0.3623338,-0.6128636,0.117057405,10.41820933,0.721519241,crawl
16/03/2021, 14:47:50,0.87178713,-2.7135572,10.020762,-0.34522957,-0.65806764,0.09384454,10.41820933,0.74902822,crawl
16/03/2021, 14:47:50,0.78556645,-2.8955786,10.205178,-0.34522957,-0.65806764,0.09384454,10.63706508,0.74902822,crawl
16/03/2021, 14:47:50,0.78556645,-2.8955786,10.205178,-0.32812536,-0.70449334,0.07307513,10.63706508,0.780587661,crawl
16/03/2021, 14:47:50,0.8214917,-2.924319,10.253079,-0.32812536,-0.70449334,0.07307513,10.69355544,0.780587661,crawl
16/03/2021, 14:47:50,0.8214917,-2.924319,10.253079,-0.29636037,-0.75824946,0.048640523,10.69355544,0.815559696,crawl
16/03/2021, 14:47:50,0.98195803,-2.8692336,10.284214,-0.29636037,-0.75824946,0.048640523,10.72202411,0.815559696,crawl
16/03/2021, 14:47:50,0.98195803,-2.8692336,10.284214,-0.27070403,-0.81200564,0.011988623,10.72202411,0.856024274,crawl
16/03/2021, 14:47:50,1.2525953,-2.7758276,10.274634,-0.27070403,-0.81200564,0.011988623,10.71645116,0.856024274,crawl
16/03/2021, 14:47:50,1.2525953,-2.7758276,10.274634,-0.25359982,-0.8523227,-0.030771928,10.71645116,0.889782986,crawl
16/03/2021, 14:47:50,1.5040723,-2.7183473,10.116563,-0.25359982,-0.8523227,-0.030771928,10.58283938,0.889782986,crawl
16/03/2021, 14:47:50,1.5040723,-2.7183473,10.116563,-0.25970846,-0.87553555,-0.0417675,10.58283938,0.914196645,crawl
16/03/2021, 14:47:50,1.7794995,-2.560276,10.0063925,-0.25970846,-0.87553555,-0.0417675,10.48091229,0.914196645,crawl
16/03/2021, 14:47:50,1.7794995,-2.560276,10.0063925,-0.27070403,-0.8767573,-0.039324038,10.48091229,0.918439142,crawl
16/03/2021, 14:47:50,2.0142114,-2.3614893,9.989627,-0.27070403,-0.8767573,-0.039324038,10.46070383,0.918439142,crawl
16/03/2021, 14:47:50,2.0142114,-2.3614893,9.989627,-0.27436924,-0.87431383,-0.011224248,10.46070383,0.916421922,crawl
16/03/2021, 14:47:50,2.1579127,-2.323169,10.008787,-0.27436924,-0.87431383,-0.011224248,10.4990248,0.916421922,crawl
16/03/2021, 14:47:50,2.1579127,-2.323169,10.008787,-0.2694823,-0.8804225,0.018097274,10.4990248,0.920919084,crawl
16/03/2021, 14:47:51,9.453142,-2.7375073,4.960086,3.6229494,-0.025211494,0.15615277,11.02081191,3.62640061,crawl
16/03/2021, 14:47:51,9.503438,-2.3974147,4.756509,3.6229494,-0.025211494,0.15615277,10.89437043,3.62640061,crawl
16/03/2021, 14:47:51,9.503438,-2.3974147,4.756509,3.6913664,0.1372786,-0.084528044,10.89437043,3.694885188,crawl
16/03/2021, 14:47:51,9.414823,-1.6238233,4.533772,3.6913664,0.1372786,-0.084528044,10.57500708,3.694885188,crawl
16/03/2021, 14:47:51,9.414823,-1.6238233,4.533772,3.547202,0.23746046,-0.15294492,10.57500708,3.558429771,crawl
16/03/2021, 14:47:51,9.036409,-0.47181886,4.517007,3.547202,0.23746046,-0.15294492,10.11348894,3.558429771,crawl
16/03/2021, 14:47:51,9.036409,-0.47181886,4.517007,3.2796433,0.26433852,-0.04787615,10.11348894,3.290627165,crawl
16/03/2021, 14:47:51,8.657996,0.6610254,4.3182206,3.2796433,0.26433852,-0.04787615,9.697674035,3.290627165,crawl
16/03/2021, 14:47:51,8.657996,0.6610254,4.3182206,2.852038,0.2264649,0.14027028,9.697674035,2.864451487,crawl
16/03/2021, 14:47:51,8.475974,1.6549586,4.023633,2.852038,0.2264649,0.14027028,9.527363076,2.864451487,crawl
16/03/2021, 14:47:51,8.475974,1.6549586,4.023633,2.2753813,0.14827417,0.31375593,9.527363076,2.301692463,crawl
16/03/2021, 14:47:51,8.289163,2.44771,3.5781593,2.2753813,0.14827417,0.31375593,9.35439607,2.301692463,crawl
16/03/2021, 14:47:51,8.289163,2.44771,3.5781593,1.6193123,0.074970365,0.43226373,9.35439607,1.677690308,crawl
16/03/2021, 14:47:51,8.413704,2.7734327,3.293152,1.6193123,0.074970365,0.43226373,9.451306442,1.677690308,crawl
16/03/2021, 14:47:51,8.413704,2.7734327,3.293152,0.9779041,0.022435976,0.4884633,9.451306442,1.093341746,crawl
16/03/2021, 14:47:51,8.557405,2.6560767,2.9626393,0.9779041,0.022435976,0.4884633,9.437222234,1.093341746,crawl
16/03/2021, 14:47:51,8.557405,2.6560767,2.9626393,0.45744705,0.03831847,0.52267176,9.437222234,0.695637749,crawl
16/03/2021, 14:47:51,8.614885,2.203418,3.2213013,0.45744705,0.03831847,0.52267176,9.457699635,0.695637749,crawl
16/03/2021, 14:47:51,8.614885,2.203418,3.2213013,0.1422407,0.123839565,0.55077153,9.457699635,0.58216659,crawl
16/03/2021, 14:47:51,8.868757,1.6525636,3.8320315,0.1422407,0.123839565,0.55077153,9.801545124,0.58216659,crawl
16/03/2021, 14:47:52,9.041199,0.17244141,3.4584084,-1.8858311,0.30709907,0.022984194,9.681611378,1.910810592,crawl
16/03/2021, 14:47:52,8.780142,1.0083033,3.3266823,-1.8858311,0.30709907,0.022984194,9.443218805,1.910810592,crawl
16/03/2021, 14:47:52,8.780142,1.0083033,3.3266823,-2.3671927,0.33519885,0.11217049,9.443218805,2.393437273,crawl
16/03/2021, 14:47:52,8.533455,1.6381935,3.3386574,-2.3671927,0.33519885,0.11217049,9.308606955,2.393437273,crawl
16/03/2021, 14:47:52,8.533455,1.6381935,3.3386574,-2.9157495,0.34863788,0.24045214,9.308606955,2.946347067,crawl
16/03/2021, 14:47:52,8.459209,1.8106349,3.1949563,-2.9157495,0.34863788,0.24045214,9.221950375,2.946347067,crawl
16/03/2021, 14:47:52,8.459209,1.8106349,3.1949563,-3.4728584,0.32786846,0.3931684,9.221950375,3.510388124,crawl
16/03/2021, 14:47:52,7.8652444,1.4154567,2.1459377,-3.4728584,0.32786846,0.3931684,8.274698506,3.510388124,crawl
16/03/2021, 14:47:52,7.8652444,1.4154567,2.1459377,-3.555936,0.26189506,0.630184,8.274698506,3.620828969,crawl
16/03/2021, 14:47:52,7.9538603,1.1831397,1.5567628,-3.555936,0.26189506,0.630184,8.190679054,3.620828969,crawl
16/03/2021, 14:47:52,7.9538603,1.1831397,1.5567628,-3.1881955,0.26189506,0.7486918,8.190679054,3.285379547,crawl
16/03/2021, 14:47:52,8.49753,-0.8095166,2.2393434,-3.1881955,0.26189506,0.7486918,8.824850811,3.285379547,crawl
16/03/2021, 14:47:52,8.49753,-0.8095166,2.2393434,-2.7630334,0.3779594,0.7560222,8.824850811,2.889424928,crawl
16/03/2021, 14:47:52,8.875943,-2.7710378,2.7494826,-2.7630334,0.3779594,0.7560222,9.696425771,2.889424928,crawl
16/03/2021, 14:47:52,8.875943,-2.7710378,2.7494826,-1.999452,0.4989107,0.71326166,9.696425771,2.180702264,crawl
16/03/2021, 14:47:52,8.940608,-4.26074,3.6260598,-1.999452,0.4989107,0.71326166,10.54688034,2.180702264,crawl
16/03/2021, 14:47:52,8.940608,-4.26074,3.6260598,-0.9731988,0.6137533,0.5605454,10.54688034,1.279851598,crawl
16/03/2021, 14:47:52,8.744217,-5.0846267,4.4691067,-0.9731988,0.6137533,0.5605454,11.05837567,1.279851598,crawl
16/03/2021, 14:47:52,8.744217,-5.0846267,4.4691067,0.04205885,0.7017179,0.28321266,11.05837567,0.757882833,crawl
16/03/2021, 14:47:52,8.389753,-4.773274,5.0654664,0.04205885,0.7017179,0.28321266,10.90096579,0.757882833,crawl
16/03/2021, 14:47:53,9.041199,-2.1195924,3.661985,-1.2896268,0.26556024,-0.06986728,9.98228832,1.318537469,crawl
16/03/2021, 14:47:53,8.813672,-2.5051906,4.0906935,-1.2896268,0.26556024,-0.06986728,10.03446901,1.318537469,crawl
16/03/2021, 14:47:53,8.813672,-2.5051906,4.0906935,-1.1711191,0.2557864,-0.035658848,10.03446901,1.199257338,crawl
16/03/2021, 14:47:53,8.715476,-2.9458742,4.4188113,-1.1711191,0.2557864,-0.035658848,10.20605658,1.199257338,crawl
16/03/2021, 14:47:53,8.715476,-2.9458742,4.4188113,-1.0110724,0.20569548,-0.030771928,10.20605658,1.032242672,crawl
16/03/2021, 14:47:53,8.689131,-3.1039455,4.30385,-1.0110724,0.20569548,-0.030771928,10.18128664,1.032242672,crawl
16/03/2021, 14:47:53,8.689131,-3.1039455,4.30385,-0.8070435,0.10184842,-0.07719766,10.18128664,0.817099614,crawl
16/03/2021, 14:47:53,8.650811,-3.1183155,3.9517825,-0.8070435,0.10184842,-0.07719766,10.0088466,0.817099614,crawl
16/03/2021, 14:47:53,8.650811,-3.1183155,3.9517825,-0.5749148,-0.009329004,-0.10407573,10.0088466,0.584333663,crawl
16/03/2021, 14:47:53,8.751402,-3.0752053,3.7601807,-0.5749148,-0.009329004,-0.10407573,10.00913992,0.584333663,crawl
16/03/2021, 14:47:53,8.751402,-3.0752053,3.7601807,-0.37332937,-0.070415504,-0.09063669,10.00913992,0.390574158,crawl
16/03/2021, 14:47:53,8.954978,-2.8548634,3.422483,-0.37332937,-0.070415504,-0.09063669,10.00276289,0.390574158,crawl
16/03/2021, 14:47:53,8.954978,-2.8548634,3.422483,-0.22916523,-0.07285897,-0.08330631,10.00276289,0.254489826,crawl
16/03/2021, 14:47:53,9.206455,-2.3590944,3.1470559,-0.22916523,-0.07285897,-0.08330631,10.01139874,0.254489826,crawl
16/03/2021, 14:47:53,9.206455,-2.3590944,3.1470559,-0.17785256,-0.016659385,-0.11140611,10.01139874,0.21052408,crawl
16/03/2021, 14:47:53,9.371712,-1.829795,2.9410841,-0.17785256,-0.016659385,-0.11140611,9.991351584,0.21052408,crawl
16/03/2021, 14:47:53,9.371712,-1.829795,2.9410841,-0.21816964,0.05786615,-0.14561455,9.991351584,0.268607673,crawl
16/03/2021, 14:47:53,9.249566,-1.453777,2.3974147,-0.21816964,0.05786615,-0.14561455,9.665171351,0.268607673,crawl
16/03/2021, 14:47:53,9.249566,-1.453777,2.3974147,-0.33301228,0.112844,-0.13584071,9.665171351,0.376939847,crawl
16/03/2021, 14:47:53,8.935819,-1.334026,2.083667,-0.33301228,0.112844,-0.13584071,9.272008897,0.376939847,crawl
16/03/2021, 14:47:54,1.4465919,2.5027955,7.8652444,0.68224543,0.65895736,-0.732045,8.379658847,1.19815421,crawl
16/03/2021, 14:47:54,1.2741505,2.3471193,7.9394903,0.68224543,0.65895736,-0.732045,8.376630298,1.19815421,crawl
16/03/2021, 14:47:54,1.2741505,2.3471193,7.9394903,0.616272,0.6614008,-0.67340195,8.376630298,1.127258774,crawl
16/03/2021, 14:47:54,1.22625,2.311194,7.8724294,0.616272,0.6614008,-0.67340195,8.295809233,1.127258774,crawl
16/03/2021, 14:47:54,1.22625,2.311194,7.8724294,0.56495935,0.67117465,-0.6110937,8.295809233,1.069153861,crawl
16/03/2021, 14:47:54,1.1543995,2.3782544,7.9849954,0.56495935,0.67117465,-0.6110937,8.411235538,1.069153861,crawl
16/03/2021, 14:47:54,1.1543995,2.3782544,7.9849954,0.5270857,0.7029396,-0.55245066,8.411235538,1.037856064,crawl
16/03/2021, 14:47:54,1.2022998,2.550696,7.8484793,0.5270857,0.7029396,-0.55245066,8.339676331,1.037856064,crawl
16/03/2021, 14:47:54,1.2022998,2.550696,7.8484793,0.50875974,0.72004384,-0.501138,8.339676331,1.014119749,crawl
16/03/2021, 14:47:54,1.1112891,2.5770411,7.999366,0.50875974,0.72004384,-0.501138,8.477379191,1.014119749,crawl
16/03/2021, 14:47:54,1.1112891,2.5770411,7.999366,0.48554686,0.7188221,-0.4486036,8.477379191,0.976578816,crawl
16/03/2021, 14:47:54,0.95561284,2.4860303,7.8484793,0.48554686,0.7188221,-0.4486036,8.288073939,0.976578816,crawl
16/03/2021, 14:47:54,0.95561284,2.4860303,7.8484793,0.44889495,0.7151569,-0.3826302,8.288073939,0.927017774,crawl
16/03/2021, 14:47:54,0.84065187,2.5315359,7.817344,0.44889495,0.7151569,-0.3826302,8.259917649,0.927017774,crawl
16/03/2021, 14:47:54,0.84065187,2.5315359,7.817344,0.40369093,0.7127135,-0.31176984,8.259917649,0.876428725,crawl
16/03/2021, 14:47:54,0.7568262,2.7015822,7.8676395,0.40369093,0.7127135,-0.31176984,8.352908729,0.876428725,crawl
16/03/2021, 14:47:54,0.7568262,2.7015822,7.8676395,0.33405232,0.7176004,-0.22624873,8.352908729,0.823243453,crawl
16/03/2021, 14:47:54,0.68976563,2.8979738,7.7478886,0.33405232,0.7176004,-0.22624873,8.300831636,0.823243453,crawl
16/03/2021, 14:47:54,0.68976563,2.8979738,7.7478886,0.21676624,0.728596,-0.12606686,8.300831636,0.770540425,crawl
16/03/2021, 14:47:54,0.68018556,3.3147073,7.563472,0.21676624,0.728596,-0.12606686,8.285894177,0.770540425,crawl
16/03/2021, 14:47:55,-6.576724,-5.9540186,4.2104445,1.2075893,0.58687526,0.84520847,9.819953113,1.586528211,crawl
16/03/2021, 14:47:55,-6.6294146,-5.7312818,4.150569,1.2075893,0.58687526,0.84520847,9.696594798,1.586528211,crawl
16/03/2021, 14:47:55,-6.6294146,-5.7312818,4.150569,1.2210283,0.60520124,0.79145235,9.696594798,1.575936402,crawl
16/03/2021, 14:47:55,-6.6988697,-5.6690116,4.102669,1.2210283,0.60520124,0.79145235,9.687333934,1.575936402,crawl
16/03/2021, 14:47:55,-6.6988697,-5.6690116,4.102669,1.227137,0.61497504,0.7401397,9.687333934,1.55944421,crawl
16/03/2021, 14:47:55,-6.7779055,-5.616321,4.0427933,1.227137,0.61497504,0.7401397,9.686446329,1.55944421,crawl
16/03/2021, 14:47:55,-6.7779055,-5.616321,4.0427933,1.2369108,0.6247489,0.6961574,9.686446329,1.550772281,crawl
16/03/2021, 14:47:55,-6.8761015,-5.5061502,3.9877076,1.2369108,0.6247489,0.6961574,9.669553987,1.550772281,crawl
16/03/2021, 14:47:55,-6.8761015,-5.5061502,3.9877076,1.2417978,0.633301,0.661949,9.669553987,1.543148865,crawl
16/03/2021, 14:47:55,-6.8761015,-5.5732107,3.9613624,1.2417978,0.633301,0.661949,9.697104785,1.543148865,crawl
16/03/2021, 14:47:55,-6.8761015,-5.5732107,3.9613624,1.2540151,0.63940966,0.62774056,9.697104785,1.541251689,crawl
16/03/2021, 14:47:55,-6.969507,-5.52052,3.9254372,1.2540151,0.63940966,0.62774056,9.719013919,1.541251689,crawl
16/03/2021, 14:47:55,-6.969507,-5.52052,3.9254372,1.2650106,0.6479618,0.58986694,9.719013919,1.538846743,crawl
16/03/2021, 14:47:55,-7.0126176,-5.4223247,3.9733377,1.2650106,0.6479618,0.58986694,9.714207235,1.538846743,crawl
16/03/2021, 14:47:55,-7.0126176,-5.4223247,3.9733377,1.2979974,0.65529215,0.5519933,9.714207235,1.555281825,crawl
16/03/2021, 14:47:55,-7.031778,-5.221143,3.9757326,1.2979974,0.65529215,0.5519933,9.618351267,1.555281825,crawl
16/03/2021, 14:47:55,-7.031778,-5.221143,3.9757326,1.344423,0.66750944,0.5251152,9.618351267,1.590216389,crawl
16/03/2021, 14:47:55,-7.055728,-5.113367,3.9901028,1.344423,0.66750944,0.5251152,9.583879174,1.590216389,crawl
16/03/2021, 14:47:55,-7.055728,-5.113367,3.9901028,1.3725228,0.68827885,0.50434583,9.583879174,1.616140904,crawl
16/03/2021, 14:47:55,-7.084468,-5.000801,3.906277,1.3725228,0.68827885,0.50434583,9.510872531,1.616140904,crawl
16/03/2021, 14:47:56,-7.937095,-3.908672,3.7937112,-0.3586686,-0.5187904,0.28932133,9.626392978,0.693897326,crawl
16/03/2021, 14:47:56,-7.937095,-3.7985013,3.7601807,-0.3586686,-0.5187904,0.28932133,9.568962871,0.693897326,crawl
16/03/2021, 14:47:56,-7.937095,-3.7985013,3.7601807,-0.41608992,-0.50412965,0.29542997,9.568962871,0.717325864,crawl
16/03/2021, 14:47:56,-7.90117,-3.7625759,3.7146754,-0.41608992,-0.50412965,0.29542997,9.507064453,0.717325864,crawl
16/03/2021, 14:47:56,-7.90117,-3.7625759,3.7146754,-0.47717643,-0.49435583,0.3003169,9.507064453,0.749850164,crawl
16/03/2021, 14:47:56,-7.9083548,-3.8344264,3.7386258,-0.47717643,-0.49435583,0.3003169,9.551032585,0.749850164,crawl
16/03/2021, 14:47:56,-7.9083548,-3.8344264,3.7386258,-0.53215426,-0.49069065,0.30642554,9.551032585,0.786042037,crawl
16/03/2021, 14:47:56,-7.932305,-3.9972878,3.7338357,-0.53215426,-0.49069065,0.30642554,9.635418971,0.786042037,crawl
16/03/2021, 14:47:56,-7.932305,-3.9972878,3.7338357,-0.5712496,-0.4967993,0.31009075,9.635418971,0.818102633,crawl
16/03/2021, 14:47:56,-7.9682302,-4.129014,3.8128712,-0.5712496,-0.4967993,0.31009075,9.750868522,0.818102633,crawl
16/03/2021, 14:47:56,-7.9682302,-4.129014,3.8128712,-0.5822452,-0.52123386,0.308869,9.750868522,0.840294136,crawl
16/03/2021, 14:47:56,-7.8484793,-4.26074,3.8008962,-0.5822452,-0.52123386,0.308869,9.70563456,0.840294136,crawl
16/03/2021, 14:47:56,-7.8484793,-4.26074,3.8008962,-0.5822452,-0.55422056,0.30276036,9.70563456,0.858972469,crawl
16/03/2021, 14:47:56,-7.726333,-4.373306,3.8152664,-0.5822452,-0.55422056,0.30276036,9.663244015,0.858972469,crawl
16/03/2021, 14:47:56,-7.726333,-4.373306,3.8152664,-0.58102345,-0.56888133,0.3174211,9.663244015,0.872909151,crawl
16/03/2021, 14:47:56,-7.7407036,-4.4643164,3.8392165,-0.58102345,-0.56888133,0.3174211,9.725646287,0.872909151,crawl
16/03/2021, 14:47:56,-7.7407036,-4.4643164,3.8392165,-0.5700279,-0.5517771,0.35651648,9.725646287,0.869766514,crawl
16/03/2021, 14:47:56,-7.7167535,-4.4906616,3.908672,-0.5700279,-0.5517771,0.35651648,9.746386184,0.869766514,crawl
16/03/2021, 14:47:56,-7.7167535,-4.4906616,3.908672,-0.54437155,-0.5065731,0.39194664,9.746386184,0.840582439,crawl
16/03/2021, 14:47:56,-7.7215433,-4.4595265,3.9182522,-0.54437155,-0.5065731,0.39194664,9.739728364,0.840582439,crawl
16/03/2021, 14:47:57,-6.569539,-4.021238,5.767207,-0.24260426,-0.70693684,-0.5622245,9.622363312,0.935260879,crawl
16/03/2021, 14:47:57,-6.444998,-4.0044727,5.6642213,-0.24260426,-0.70693684,-0.5622245,9.468748657,0.935260879,crawl
16/03/2021, 14:47:57,-6.444998,-4.0044727,5.6642213,-0.2658171,-0.63485473,-0.62086755,9.468748657,0.926917354,crawl
16/03/2021, 14:47:57,-6.5048733,-3.891907,5.589976,-0.2658171,-0.63485473,-0.62086755,9.418500203,0.926917354,crawl
16/03/2021, 14:47:57,-6.5048733,-3.891907,5.589976,-0.2853648,-0.5468902,-0.6672933,9.418500203,0.908736664,crawl
16/03/2021, 14:47:57,-6.686895,-3.8631666,5.640271,-0.2853648,-0.5468902,-0.6672933,9.563016173,0.908736664,crawl
16/03/2021, 14:47:57,-6.686895,-3.8631666,5.640271,-0.28658652,-0.4650343,-0.70516694,9.563016173,0.891991675,crawl
16/03/2021, 14:47:57,-6.940767,-3.9853127,5.494175,-0.28658652,-0.4650343,-0.70516694,9.707879259,0.891991675,crawl
16/03/2021, 14:47:57,-6.940767,-3.9853127,5.494175,-0.29513863,-0.407613,-0.7418188,9.707879259,0.896409664,crawl
16/03/2021, 14:47:57,-7.158714,-4.061953,5.271438,-0.29513863,-0.407613,-0.7418188,9.774185701,0.896409664,crawl
16/03/2021, 14:47:57,-7.158714,-4.061953,5.271438,-0.30613422,-0.39661744,-0.7650317,9.774185701,0.914492785,crawl
16/03/2021, 14:47:57,-7.3479204,-4.1936793,5.2594633,-0.30613422,-0.39661744,-0.7650317,9.96196944,0.914492785,crawl
16/03/2021, 14:47:57,-7.3479204,-4.1936793,5.2594633,-0.27436924,-0.4491518,-0.7674751,9.96196944,0.930609426,crawl
16/03/2021, 14:47:57,-7.3766603,-4.28469,5.247488,-0.27436924,-0.4491518,-0.7674751,10.01547882,0.930609426,crawl
16/03/2021, 14:47:57,-7.3766603,-4.28469,5.247488,-0.23038694,-0.53711635,-0.7540361,10.01547882,0.95401394,crawl
16/03/2021, 14:47:57,-7.4101906,-4.4379716,5.221143,-0.23038694,-0.53711635,-0.7540361,10.09291079,0.95401394,crawl
16/03/2021, 14:47:57,-7.4101906,-4.4379716,5.221143,-0.1998437,-0.63485473,-0.7210494,10.09291079,0.981269747,crawl
16/03/2021, 14:47:57,-7.4197707,-4.5816727,5.2882032,-0.1998437,-0.63485473,-0.7210494,10.19852026,0.981269747,crawl
16/03/2021, 14:47:57,-7.4197707,-4.5816727,5.2882032,-0.18640468,-0.72037584,-0.6795106,10.19852026,1.007681842,crawl
16/03/2021, 14:47:57,-7.230564,-4.631968,5.4295096,-0.18640468,-0.72037584,-0.6795106,10.15951574,1.007681842,crawl
16/03/2021, 14:47:58,1.4801221,-7.783814,7.110813,0.4427863,0.095739774,-0.73571014,10.64622866,0.863999556,crawl
16/03/2021, 14:47:58,1.4801221,-7.783814,7.110813,0.56129414,0.067639984,-0.7943532,10.64622866,0.974999109,crawl
16/03/2021, 14:47:58,1.4202466,-8.018526,7.3622904,0.56129414,0.067639984,-0.7943532,10.97803172,0.974999109,crawl
16/03/2021, 14:47:58,1.4202466,-8.018526,7.3622904,0.693241,0.03709674,-0.85788316,10.97803172,1.103595379,crawl
16/03/2021, 14:47:58,1.4106666,-8.380174,7.472461,0.693241,0.03709674,-0.85788316,11.3161375,1.103595379,crawl
16/03/2021, 14:47:58,1.4106666,-8.380174,7.472461,0.85817456,-0.008107273,-0.92263484,11.3161375,1.260073155,crawl
16/03/2021, 14:47:58,1.3819263,-8.679551,7.5706573,0.85817456,-0.008107273,-0.92263484,11.59996462,1.260073155,crawl
16/03/2021, 14:47:58,1.3819263,-8.679551,7.5706573,1.0841945,-0.026433224,-0.9739475,11.59996462,1.457652325,crawl
16/03/2021, 14:47:58,1.4873072,-8.919053,7.424561,1.0841945,-0.026433224,-0.9739475,11.6998161,1.457652325,crawl
16/03/2021, 14:47:58,1.4873072,-8.919053,7.424561,1.34931,0.005331757,-1.0105994,11.6998161,1.685816452,crawl
16/03/2021, 14:47:58,1.7723145,-8.978929,7.1275783,1.34931,0.005331757,-1.0105994,11.60019952,1.685816452,crawl
16/03/2021, 14:47:58,1.7723145,-8.978929,7.1275783,1.6425252,0.07130518,-1.0179298,11.60019952,1.933689352,crawl
16/03/2021, 14:47:58,1.9184108,-8.811277,7.0437527,1.6425252,0.07130518,-1.0179298,11.44261163,1.933689352,crawl
16/03/2021, 14:47:58,1.9184108,-8.811277,7.0437527,1.9748358,0.12628303,-0.9849431,11.44261163,2.210438091,crawl
16/03/2021, 14:47:58,1.9040406,-8.425679,7.27128,1.9748358,0.12628303,-0.9849431,11.29110051,2.210438091,crawl
16/03/2021, 14:47:58,1.9040406,-8.425679,7.27128,2.3022592,0.1409438,-0.9201914,11.29110051,2.483347506,crawl
16/03/2021, 14:47:58,1.9112257,-7.812554,7.5059915,2.3022592,0.1409438,-0.9201914,11.00130399,2.483347506,crawl
16/03/2021, 14:47:58,1.9112257,-7.812554,7.5059915,2.5417185,0.12628303,-0.8713222,11.00130399,2.689885249,crawl
16/03/2021, 14:47:58,1.9711012,-7.1635036,7.671248,2.5417185,0.12628303,-0.8713222,10.6793759,2.689885249,crawl
16/03/2021, 14:47:58,1.9711012,-7.1635036,7.671248,2.6797738,0.10184842,-0.88109607,10.6793759,2.822745301,crawl
16/03/2021, 14:47:59,1.2382251,3.0895753,9.402847,-0.16563526,0.29732522,0.42004645,9.974578389,0.540625884,crawl
16/03/2021, 14:47:59,1.099314,2.8979738,9.366921,-0.16563526,0.29732522,0.42004645,9.866405637,0.540625884,crawl
16/03/2021, 14:47:59,1.099314,2.8979738,9.366921,-0.11187914,0.34619442,0.4469245,9.866405637,0.576289017,crawl
16/03/2021, 14:47:59,1.2070899,2.7351124,9.290281,-0.11187914,0.34619442,0.4469245,9.759468868,0.576289017,crawl
16/03/2021, 14:47:59,1.2070899,2.7351124,9.290281,-0.019027652,0.37673768,0.45669833,9.759468868,0.592340018,crawl
16/03/2021, 14:47:59,1.0394385,2.574646,9.261541,-0.019027652,0.37673768,0.45669833,9.668783939,0.592340018,crawl
16/03/2021, 14:47:59,1.0394385,2.574646,9.261541,0.056719612,0.39872882,0.52145004,9.668783939,0.658871711,crawl
16/03/2021, 14:47:59,0.7664063,2.5770411,9.125025,0.056719612,0.39872882,0.52145004,9.512864827,0.658871711,crawl
16/03/2021, 14:47:59,0.7664063,2.5770411,9.125025,0.08604113,0.40850267,0.6387361,9.512864827,0.763060514,crawl
16/03/2021, 14:47:59,0.68976563,2.7662477,9.0076685,0.08604113,0.40850267,0.6387361,9.448068319,0.763060514,crawl
16/03/2021, 14:47:59,0.68976563,2.7662477,9.0076685,0.067715175,0.39506364,0.7303659,9.448068319,0.833123599,crawl
16/03/2021, 14:47:59,0.8167017,2.8572583,8.921448,0.067715175,0.39506364,0.7303659,9.403358805,0.833123599,crawl
16/03/2021, 14:47:59,0.8167017,2.8572583,8.921448,0.001741758,0.3694073,0.7511353,9.403358805,0.83705974,crawl
16/03/2021, 14:47:59,1.0035132,3.051255,8.938213,0.001741758,0.3694073,0.7511353,9.497834155,0.83705974,crawl
16/03/2021, 14:47:59,1.0035132,3.051255,8.938213,-0.08866627,0.35596827,0.7352528,9.497834155,0.821688378,crawl
16/03/2021, 14:47:59,1.089734,3.0129347,8.899893,-0.08866627,0.35596827,0.7352528,9.459037345,0.821688378,crawl
16/03/2021, 14:47:59,1.089734,3.0129347,8.899893,-0.18518294,0.3608552,0.720592,9.459037345,0.826899059,crawl
16/03/2021, 14:47:59,1.1160791,2.8357031,8.875943,-0.18518294,0.3608552,0.720592,9.384519818,0.826899059,crawl
16/03/2021, 14:47:59,1.1160791,2.8357031,8.875943,-0.26826057,0.37185076,0.7315876,9.384519818,0.863398587,crawl
16/03/2021, 14:47:59,1.1208692,2.6129665,9.045989,-0.26826057,0.37185076,0.7315876,9.482291888,0.863398587,crawl
16/03/2021, 14:48:00,1.1136842,-0.855022,9.285491,0.39636055,0.4231634,0.8085566,9.3910435,0.994953647,crawl
16/03/2021, 14:48:00,1.1352394,-0.7711963,9.328602,0.39636055,0.4231634,0.8085566,9.429015028,0.994953647,crawl
16/03/2021, 14:48:00,1.1352394,-0.7711963,9.328602,0.40369093,0.41583303,0.77923506,9.429015028,0.971128602,crawl
16/03/2021, 14:48:00,1.104104,-0.7664063,9.407638,0.40369093,0.41583303,0.77923506,9.503161026,0.971128602,crawl
16/03/2021, 14:48:00,1.104104,-0.7664063,9.407638,0.41346478,0.402394,0.7511353,9.503161026,0.947142165,crawl
16/03/2021, 14:48:00,1.104104,-0.78556645,9.453142,0.41346478,0.402394,0.7511353,9.54976739,0.947142165,crawl
16/03/2021, 14:48:00,1.104104,-0.78556645,9.453142,0.4269038,0.39750707,0.7340311,9.54976739,0.937582192,crawl
16/03/2021, 14:48:00,1.094524,-0.84065187,9.536968,0.4269038,0.39750707,0.7340311,9.636308497,0.937582192,crawl
16/03/2021, 14:48:00,1.094524,-0.84065187,9.536968,0.44889495,0.40483746,0.7303659,9.636308497,0.948068748,crawl
16/03/2021, 14:48:00,1.0873389,-0.8143067,9.553733,0.44889495,0.40483746,0.7303659,9.649829692,0.948068748,crawl
16/03/2021, 14:48:00,1.0873389,-0.8143067,9.553733,0.48921204,0.42560688,0.7328093,9.649829692,0.978508614,crawl
16/03/2021, 14:48:00,1.1520045,-0.71371585,9.575289,0.48921204,0.42560688,0.7328093,9.670711438,0.978508614,crawl
16/03/2021, 14:48:00,1.1520045,-0.71371585,9.575289,0.5429682,0.45004147,0.7303659,9.670711438,1.015276374,crawl
16/03/2021, 14:48:00,1.1927198,-0.6179151,9.560919,0.5429682,0.45004147,0.7303659,9.654820976,1.015276374,crawl
16/03/2021, 14:48:00,1.1927198,-0.6179151,9.560919,0.5832853,0.46958914,0.7230355,9.654820976,1.04092076,crawl
16/03/2021, 14:48:00,1.092129,-0.4742139,9.539363,0.5832853,0.46958914,0.7230355,9.613379699,1.04092076,crawl
16/03/2021, 14:48:00,1.092129,-0.4742139,9.539363,0.6003895,0.48302817,0.707153,9.613379699,1.045872431,crawl
16/03/2021, 14:48:00,1.0633887,-0.37362307,9.477093,0.6003895,0.48302817,0.707153,9.543881632,1.045872431,crawl
16/03/2021, 14:48:00,1.0633887,-0.37362307,9.477093,0.5881722,0.49402377,0.6998226,9.543881632,1.0391139,crawl
16/03/2021, 14:48:00,0.8981324,-0.2682422,9.474698,0.5881722,0.49402377,0.6998226,9.520950536,1.0391139,crawl
16/03/2021, 14:48:01,1.5328126,1.6813037,9.489068,1.41284,0.5722145,-0.035658848,9.758007421,1.524735341,crawl
16/03/2021, 14:48:01,1.3747413,1.7363893,9.759705,1.41284,0.5722145,-0.035658848,10.00783668,1.524735341,crawl
16/03/2021, 14:48:01,1.3747413,1.7363893,9.759705,1.3932923,0.5795449,-0.014889438,10.00783668,1.509091596,crawl
16/03/2021, 14:48:01,1.2454102,1.705254,9.673484,1.3932923,0.5795449,-0.014889438,9.90127403,1.509091596,crawl
16/03/2021, 14:48:01,1.2454102,1.705254,9.673484,1.3615273,0.5844318,0.005879973,9.90127403,1.481671957,crawl
16/03/2021, 14:48:01,1.1328443,1.7507594,9.539363,1.3615273,0.5844318,0.005879973,9.764626941,1.481671957,crawl
16/03/2021, 14:48:01,1.1328443,1.7507594,9.539363,1.3212103,0.58931875,0.022984194,9.764626941,1.446866072,crawl
16/03/2021, 14:48:01,1.0106983,1.9351759,9.455538,1.3212103,0.58931875,0.022984194,9.704308932,1.446866072,crawl
16/03/2021, 14:48:01,1.0106983,1.9351759,9.455538,1.2870017,0.5807666,0.035201494,9.704308932,1.41241016,crawl
16/03/2021, 14:48:01,0.8933423,2.1603076,9.469908,1.2870017,0.5807666,0.035201494,9.754185902,1.41241016,crawl
16/03/2021, 14:48:01,0.8933423,2.1603076,9.469908,1.2442412,0.56854934,0.041310143,9.754185902,1.368609196,crawl
16/03/2021, 14:48:01,0.8167017,2.2944288,9.383687,1.2442412,0.56854934,0.041310143,9.694585468,1.368609196,crawl
16/03/2021, 14:48:01,0.8167017,2.2944288,9.383687,1.1660506,0.5551103,0.0437536,9.694585468,1.292182529,crawl
16/03/2021, 14:48:01,0.7951465,2.4956105,9.371712,1.1660506,0.5551103,0.0437536,9.730843253,1.292182529,crawl
16/03/2021, 14:48:01,0.7951465,2.4956105,9.371712,1.0841945,0.53311914,0.048640523,9.730843253,1.209156616,crawl
16/03/2021, 14:48:01,0.6586304,2.5866213,9.283096,1.0841945,0.53311914,0.048640523,9.659207048,1.209156616,crawl
16/03/2021, 14:48:01,0.6586304,2.5866213,9.283096,0.9986735,0.50379765,0.06085782,9.659207048,1.120207349,crawl
16/03/2021, 14:48:01,0.5963599,2.6345215,9.101074,0.9986735,0.50379765,0.06085782,9.493466202,1.120207349,crawl
16/03/2021, 14:48:01,0.5963599,2.6345215,9.101074,0.91681755,0.46958914,0.075518586,9.493466202,1.032846278,crawl
16/03/2021, 14:48:01,0.49097902,2.6441016,9.09868,0.91681755,0.46958914,0.075518586,9.487797594,1.032846278,crawl
16/03/2021, 14:48:02,-0.56522465,-10.262659,-1.5328126,-5.4141874,-0.5187904,0.4554766,10.39187974,5.458024184,crawl
16/03/2021, 14:48:02,-0.52690434,-10.3512745,-2.0621119,-5.4141874,-0.5187904,0.4554766,10.56781988,5.458024184,crawl
16/03/2021, 14:48:02,-0.52690434,-10.3512745,-2.0621119,-5.1026464,-0.38928705,0.49335024,10.56781988,5.141200118,crawl
16/03/2021, 14:48:02,-0.57001466,-10.28661,-2.3854396,-5.1026464,-0.38928705,0.49335024,10.57495045,5.141200118,crawl
16/03/2021, 14:48:02,-0.57001466,-10.28661,-2.3854396,-4.692145,-0.27322268,0.5312239,10.57495045,4.730018282,crawl
16/03/2021, 14:48:02,-0.6227051,-10.435101,-2.7159522,-4.692145,-0.27322268,0.5312239,10.80071671,4.730018282,crawl
16/03/2021, 14:48:02,-0.6227051,-10.435101,-2.7159522,-4.2339964,-0.17792775,0.5605454,10.80071671,4.274645582,crawl
16/03/2021, 14:48:02,-0.80712163,-10.715318,-3.0177248,-4.2339964,-0.17792775,0.5605454,11.16136828,4.274645582,crawl
16/03/2021, 14:48:02,-0.80712163,-10.715318,-3.0177248,-3.7746258,-0.09485011,0.5654323,11.16136828,3.817919591,crawl
16/03/2021, 14:48:02,-0.91729254,-10.837463,-3.3147073,-3.7746258,-0.09485011,0.5654323,11.37010653,3.817919591,crawl
16/03/2021, 14:48:02,-0.91729254,-10.837463,-3.3147073,-3.3103685,-7.77E-04,0.5446629,11.37010653,3.354876768,crawl
16/03/2021, 14:48:02,-1.0274634,-10.976375,-3.5949244,-3.3103685,-7.77E-04,0.5446629,11.59568725,3.354876768,crawl
16/03/2021, 14:48:02,-1.0274634,-10.976375,-3.5949244,-2.85955,0.12017438,0.5141196,11.59568725,2.907883606,crawl
16/03/2021, 14:48:02,-1.1591895,-11.064991,-3.908672,-2.85955,0.12017438,0.5141196,11.79217807,2.907883606,crawl
16/03/2021, 14:48:02,-1.1591895,-11.064991,-3.908672,-2.4624877,0.25334296,0.50190234,11.79217807,2.525853178,crawl
16/03/2021, 14:48:02,-1.341211,-11.048225,-4.148174,-2.4624877,0.25334296,0.50190234,11.87726725,2.525853178,crawl
16/03/2021, 14:48:02,-1.341211,-11.048225,-4.148174,-2.1106296,0.370629,0.5165631,11.87726725,2.204304982,crawl
16/03/2021, 14:48:02,-1.4897022,-11.043435,-4.3445654,-2.1106296,0.370629,0.5165631,11.96043143,2.204304982,crawl
16/03/2021, 14:48:02,-1.4897022,-11.043435,-4.3445654,-1.786871,0.44148937,0.5471064,11.96043143,1.92019428,crawl
16/03/2021, 14:48:02,-1.6836988,-10.902129,-4.416416,-1.786871,0.44148937,0.5471064,11.88259205,1.92019428,crawl
16/03/2021, 14:48:03,-3.8056862,-10.207574,-1.343606,-1.7465539,-0.13761064,0.59475386,10.97647892,1.850167388,crawl
16/03/2021, 14:48:03,-3.8056862,-10.207574,-1.343606,-1.6610328,-0.11684125,0.57520616,10.97647892,1.761687814,crawl
16/03/2021, 14:48:03,-3.5949244,-10.487791,-1.4130616,-1.6610328,-0.11684125,0.57520616,11.17649258,1.761687814,crawl
16/03/2021, 14:48:03,-3.5949244,-10.487791,-1.4130616,-1.5070947,-0.085076265,0.5471064,11.17649258,1.60558336,crawl
16/03/2021, 14:48:03,-3.4895437,-10.693763,-1.3962965,-1.5070947,-0.085076265,0.5471064,11.33503954,1.60558336,crawl
16/03/2021, 14:48:03,-3.4895437,-10.693763,-1.3962965,-1.3055093,-0.056976475,0.5202283,11.33503954,1.406498645,crawl
16/03/2021, 14:48:03,-3.4009278,-10.832674,-1.3196558,-1.3055093,-0.056976475,0.5202283,11.43042553,1.406498645,crawl
16/03/2021, 14:48:03,-3.4009278,-10.832674,-1.3196558,-1.0550547,-0.032541875,0.48479813,11.43042553,1.161562977,crawl
16/03/2021, 14:48:03,-3.3314724,-10.9644,-1.2022998,-1.0550547,-0.032541875,0.48479813,11.52225269,1.161562977,crawl
16/03/2021, 14:48:03,-3.3314724,-10.9644,-1.2022998,-0.7581743,-0.006885544,0.44203758,11.52225269,0.877651927,crawl
16/03/2021, 14:48:03,-3.3697927,-11.100916,-1.1376343,-0.7581743,-0.006885544,0.44203758,11.65675978,0.877651927,crawl
16/03/2021, 14:48:03,-3.3697927,-11.100916,-1.1376343,-0.40998125,0.028544627,0.40049875,11.65675978,0.573845509,crawl
16/03/2021, 14:48:03,-3.3290772,-11.146421,-1.0514137,-0.40998125,0.028544627,0.40049875,11.68036544,0.573845509,crawl
16/03/2021, 14:48:03,-3.3290772,-11.146421,-1.0514137,-0.026358033,0.082300745,0.36751205,11.68036544,0.377535778,crawl
16/03/2021, 14:48:03,-3.3434474,-11.189531,-0.96758795,-0.026358033,0.082300745,0.36751205,11.71838208,0.377535778,crawl
16/03/2021, 14:48:03,-3.3434474,-11.189531,-0.96758795,0.37681288,0.15071763,0.33574706,11.71838208,0.526716088,crawl
16/03/2021, 14:48:03,-3.3123121,-11.199112,-0.8909473,0.37681288,0.15071763,0.33574706,11.71261315,0.526716088,crawl
16/03/2021, 14:48:03,-3.3123121,-11.199112,-0.8909473,0.80075324,0.2264649,0.29787344,11.71261315,0.88386689,crawl
16/03/2021, 14:48:03,-3.319497,-11.179952,-0.77359134,0.80075324,0.2264649,0.29787344,11.68797775,0.88386689,crawl
16/03/2021, 14:48:03,-3.319497,-11.179952,-0.77359134,1.2369108,0.29488176,0.25022596,11.68797775,1.295961674,crawl
16/03/2021, 14:48:04,-0.18920656,-7.8700347,5.142107,0.25463986,-0.10462395,-0.6123154,9.402899006,0.671355197,crawl
16/03/2021, 14:48:04,-0.10777588,-7.8436894,5.103787,0.25463986,-0.10462395,-0.6123154,9.358617466,0.671355197,crawl
16/03/2021, 14:48:04,-0.10777588,-7.8436894,5.103787,0.23387046,-0.10340222,-0.6123154,9.358617466,0.663564301,crawl
16/03/2021, 14:48:04,-0.014370117,-7.8412943,5.1564775,0.23387046,-0.10340222,-0.6123154,9.384847486,0.663564301,crawl
16/03/2021, 14:48:04,-0.014370117,-7.8412943,5.1564775,0.22531836,-0.09729357,-0.609872,9.384847486,0.657402645,crawl
16/03/2021, 14:48:04,0.06945557,-7.810159,5.2283278,0.22531836,-0.09729357,-0.609872,9.398873442,0.657402645,crawl
16/03/2021, 14:48:04,0.06945557,-7.810159,5.2283278,0.2155445,-0.08018935,-0.6062068,9.398873442,0.648364419,crawl
16/03/2021, 14:48:04,0.17004639,-7.781419,5.245093,0.2155445,-0.08018935,-0.6062068,9.385648274,0.648364419,crawl
16/03/2021, 14:48:04,0.17004639,-7.781419,5.245093,0.21432278,-0.056976475,-0.60131985,9.385648274,0.640910393,crawl
16/03/2021, 14:48:04,0.17483643,-7.7550735,5.2355127,0.21432278,-0.056976475,-0.60131985,9.358543,0.640910393,crawl
16/03/2021, 14:48:04,0.17483643,-7.7550735,5.2355127,0.20943587,-0.027654955,-0.5964329,9.358543,0.632740398,crawl
16/03/2021, 14:48:04,0.244292,-7.7335186,5.213958,0.20943587,-0.027654955,-0.5964329,9.330184582,0.632740398,crawl
16/03/2021, 14:48:04,0.244292,-7.7335186,5.213958,0.20577067,-0.004442084,-0.5927678,9.330184582,0.627483017,crawl
16/03/2021, 14:48:04,0.28740236,-7.695198,5.2355127,0.20577067,-0.004442084,-0.5927678,9.311781079,0.627483017,crawl
16/03/2021, 14:48:04,0.28740236,-7.695198,5.2355127,0.19599684,0.013883866,-0.5817722,9.311781079,0.614057346,crawl
16/03/2021, 14:48:04,0.29937744,-7.680828,5.242698,0.19599684,0.013883866,-0.5817722,9.304334012,0.614057346,crawl
16/03/2021, 14:48:04,0.29937744,-7.680828,5.242698,0.18622299,0.029766357,-0.56711143,9.304334012,0.597645725,crawl
16/03/2021, 14:48:04,0.35925296,-7.6161623,5.1804276,0.18622299,0.029766357,-0.56711143,9.218016082,0.597645725,crawl
16/03/2021, 14:48:04,0.35925296,-7.6161623,5.1804276,0.17644915,0.03831847,-0.54756373,9.218016082,0.576566256,crawl
16/03/2021, 14:48:04,0.40954837,-7.556287,5.252278,0.17644915,0.03831847,-0.54756373,9.211494063,0.576566256,crawl
16/03/2021, 14:48:05,0.24189699,-7.28565,6.8114357,0.6578108,0.029766357,-0.20181413,9.976716048,0.688716224,crawl
16/03/2021, 14:48:05,0.2083667,-7.197034,6.840176,0.6578108,0.029766357,-0.20181413,9.931199451,0.688716224,crawl
16/03/2021, 14:48:05,0.2083667,-7.197034,6.840176,0.6541456,-0.045980904,-0.16149704,9.931199451,0.675353242,crawl
16/03/2021, 14:48:05,0.20357667,-7.185059,7.0341725,0.6541456,-0.045980904,-0.16149704,10.05714177,0.675353242,crawl
16/03/2021, 14:48:05,0.20357667,-7.185059,7.0341725,0.6920192,-0.12783681,-0.12606686,10.05714177,0.714930563,crawl
16/03/2021, 14:48:05,0.26105714,-7.2521195,7.1156034,0.6920192,-0.12783681,-0.12606686,10.16332628,0.714930563,crawl
16/03/2021, 14:48:05,0.26105714,-7.2521195,7.1156034,0.7469971,-0.17548428,-0.084528044,10.16332628,0.771974364,crawl
16/03/2021, 14:48:05,0.37362307,-7.31439,7.1467385,0.7469971,-0.17548428,-0.084528044,10.23307234,0.771974364,crawl
16/03/2021, 14:48:05,0.37362307,-7.31439,7.1467385,0.80564016,-0.17059736,-0.04054577,10.23307234,0.824501963,crawl
16/03/2021, 14:48:05,0.46463382,-7.2736745,7.077283,0.80564016,-0.17059736,-0.04054577,10.15924005,0.824501963,crawl
16/03/2021, 14:48:05,0.46463382,-7.2736745,7.077283,0.8887178,-0.12661508,-0.003893867,10.15924005,0.897700293,crawl
16/03/2021, 14:48:05,0.5891748,-7.1251836,7.0916533,0.8887178,-0.12661508,-0.003893867,10.07010006,0.897700293,crawl
16/03/2021, 14:48:05,0.5891748,-7.1251836,7.0916533,1.0047821,-0.0740807,0.027871115,10.07010006,1.007894726,crawl
16/03/2021, 14:48:05,0.61073,-7.0030375,7.213799,1.0047821,-0.0740807,0.027871115,10.07245852,1.007894726,crawl
16/03/2021, 14:48:05,0.61073,-7.0030375,7.213799,1.1672722,-0.042315714,0.054749172,10.07245852,1.169321386,crawl
16/03/2021, 14:48:05,0.5891748,-6.950347,7.5155716,1.1672722,-0.042315714,0.054749172,10.25369524,1.169321386,crawl
16/03/2021, 14:48:05,0.5891748,-6.950347,7.5155716,1.41284,-0.054533012,0.087735884,10.25369524,1.416611565,crawl
16/03/2021, 14:48:05,0.43589357,-7.0126176,7.879615,1.41284,-0.054533012,0.087735884,10.55723157,1.416611565,crawl
16/03/2021, 14:48:05,0.43589357,-7.0126176,7.879615,1.6767336,-0.077745885,0.13904855,10.55723157,1.684284575,crawl
16/03/2021, 14:48:05,0.48618898,-6.835386,7.7071733,1.6767336,-0.077745885,0.13904855,10.31306937,1.684284575,crawl
16/03/2021, 14:48:06,1.1160791,-8.475974,5.872588,-0.93532515,-0.93173516,0.09750973,10.3718398,1.323809533,crawl
16/03/2021, 14:48:06,1.1951149,-8.411309,5.846243,-0.93532515,-0.93173516,0.09750973,10.31295199,1.323809533,crawl
16/03/2021, 14:48:06,1.1951149,-8.411309,5.846243,-0.9108905,-0.93540037,0.096287996,10.31295199,1.309185534,crawl
16/03/2021, 14:48:06,1.2717555,-8.3250885,5.8103175,-0.9108905,-0.93540037,0.096287996,10.23153215,1.309185534,crawl
16/03/2021, 14:48:06,1.2717555,-8.3250885,5.8103175,-0.89012116,-0.9341786,0.082848966,10.23153215,1.29300784,crawl
16/03/2021, 14:48:06,1.3196558,-8.262817,5.733677,-0.89012116,-0.9341786,0.082848966,10.14350499,1.29300784,crawl
16/03/2021, 14:48:06,1.3196558,-8.262817,5.733677,-0.8766821,-0.93051344,0.06085782,10.14350499,1.279894702,crawl
16/03/2021, 14:48:06,1.456172,-8.243657,5.738467,-0.8766821,-0.93051344,0.06085782,10.14930172,1.279894702,crawl
16/03/2021, 14:48:06,1.456172,-8.243657,5.738467,-0.86690825,-0.9219613,0.04741879,10.14930172,1.266408746,crawl
16/03/2021, 14:48:06,1.5328126,-8.241262,5.688172,-0.86690825,-0.9219613,0.04741879,10.13031195,1.266408746,crawl
16/03/2021, 14:48:06,1.5328126,-8.241262,5.688172,-0.8522475,-0.90730053,0.042531874,10.13031195,1.245523575,crawl
16/03/2021, 14:48:06,1.6381935,-8.246053,5.6785917,-0.8522475,-0.90730053,0.042531874,10.14531753,1.245523575,crawl
16/03/2021, 14:48:06,1.6381935,-8.246053,5.6785917,-0.8314781,-0.8853094,0.04741879,10.14531753,1.215474037,crawl
16/03/2021, 14:48:06,1.7315992,-8.270002,5.688172,-0.8314781,-0.8853094,0.04741879,10.18561113,1.215474037,crawl
16/03/2021, 14:48:06,1.7315992,-8.270002,5.688172,-0.8082652,-0.851101,0.049862254,10.18561113,1.17479861,crawl
16/03/2021, 14:48:06,1.7723145,-8.303533,5.6833816,-0.8082652,-0.851101,0.049862254,10.21717076,1.17479861,crawl
16/03/2021, 14:48:06,1.7723145,-8.303533,5.6833816,-0.7716133,-0.81322736,0.051083982,10.21717076,1.122201136,crawl
16/03/2021, 14:48:06,1.8465601,-8.320298,5.6426663,-0.7716133,-0.81322736,0.051083982,10.22139079,1.122201136,crawl
16/03/2021, 14:48:06,1.8465601,-8.320298,5.6426663,-0.7215224,-0.7716885,0.049862254,10.22139079,1.057631305,crawl
16/03/2021, 14:48:06,1.951941,-8.334668,5.582791,-0.7215224,-0.7716885,0.049862254,10.21980043,1.057631305,crawl
16/03/2021, 14:48:07,1.4130616,3.1398706,9.208851,3.9198298,1.2405008,-0.68684095,9.831503698,4.168412019,crawl
16/03/2021, 14:48:07,1.4801221,3.661985,8.971744,3.9198298,1.2405008,-0.68684095,9.802707681,4.168412019,crawl
16/03/2021, 14:48:07,1.4801221,3.661985,8.971744,3.6559362,1.3138046,-0.7124973,9.802707681,3.949633501,crawl
16/03/2021, 14:48:07,1.2837305,4.150569,8.883128,3.6559362,1.3138046,-0.7124973,9.888637557,3.949633501,crawl
16/03/2021, 14:48:07,1.2837305,4.150569,8.883128,3.4018164,1.3675607,-0.7283798,9.888637557,3.738062881,crawl
16/03/2021, 14:48:07,1.101709,4.608018,8.840017,3.4018164,1.3675607,-0.7283798,10.02963101,3.738062881,crawl
16/03/2021, 14:48:07,1.101709,4.608018,8.840017,3.1440313,1.3626738,-0.71982765,10.02963101,3.50142319,crawl
16/03/2021, 14:48:07,0.8646021,4.9409256,8.892708,3.1440313,1.3626738,-0.71982765,10.20982541,3.50142319,crawl
16/03/2021, 14:48:07,0.8646021,4.9409256,8.892708,2.8666985,1.3052524,-0.68806267,10.20982541,3.224139336,crawl
16/03/2021, 14:48:07,0.5987549,5.1061816,9.048384,2.8666985,1.3052524,-0.68806267,10.40696142,3.224139336,crawl
16/03/2021, 14:48:07,0.5987549,5.1061816,9.048384,2.5588226,1.2368356,-0.6514108,10.40696142,2.915762613,crawl
16/03/2021, 14:48:07,0.47900394,5.345684,8.691526,2.5588226,1.2368356,-0.6514108,10.21510715,2.915762613,crawl
16/03/2021, 14:48:07,0.47900394,5.345684,8.691526,2.1910818,1.1794143,-0.61964583,10.21510715,2.564335835,crawl
16/03/2021, 14:48:07,0.42152345,5.6905665,8.641231,2.1910818,1.1794143,-0.61964583,10.35524483,2.564335835,crawl
16/03/2021, 14:48:07,0.42152345,5.6905665,8.641231,1.8673235,1.1097757,-0.58788085,10.35524483,2.250356202,crawl
16/03/2021, 14:48:07,0.22273682,5.757627,8.823253,1.8673235,1.1097757,-0.58788085,10.53801064,2.250356202,crawl
16/03/2021, 14:48:07,0.22273682,5.757627,8.823253,1.6034298,1.0389153,-0.5414551,10.53801064,1.985826194,crawl
16/03/2021, 14:48:07,0.21315674,5.8031325,8.713081,1.6034298,1.0389153,-0.5414551,10.47089155,1.985826194,crawl
16/03/2021, 14:48:07,0.21315674,5.8031325,8.713081,1.3395362,0.98027235,-0.49625108,10.47089155,1.732499992,crawl
16/03/2021, 14:48:07,0.32572266,5.829478,8.655601,1.3395362,0.98027235,-0.49625108,10.44070531,1.732499992,crawl
16/03/2021, 14:48:08,2.3614893,-4.1242237,8.672366,-0.98908126,-0.3538569,0.815887,9.889175264,1.330100748,crawl
16/03/2021, 14:48:08,2.4069948,-4.1984696,8.6077,-0.98908126,-0.3538569,0.815887,9.874881095,1.330100748,crawl
16/03/2021, 14:48:08,2.4069948,-4.1984696,8.6077,-0.99763334,-0.31598324,0.7853437,9.874881095,1.308389246,crawl
16/03/2021, 14:48:08,2.3974147,-4.2751102,8.547825,-0.99763334,-0.31598324,0.7853437,9.85339914,1.308389246,crawl
16/03/2021, 14:48:08,2.3974147,-4.2751102,8.547825,-0.9988551,-0.2781096,0.752357,9.85339914,1.2810533,crawl
16/03/2021, 14:48:08,2.4333398,-4.366121,8.583751,-0.9988551,-0.2781096,0.752357,9.93302221,1.2810533,crawl
16/03/2021, 14:48:08,2.4333398,-4.366121,8.583751,-0.990303,-0.2414577,0.71326166,9.93302221,1.244083604,crawl
16/03/2021, 14:48:08,2.4045997,-4.519402,8.612491,-0.990303,-0.2414577,0.71326166,10.01908626,1.244083604,crawl
16/03/2021, 14:48:08,2.4045997,-4.519402,8.612491,-0.96953356,-0.20236234,0.6717228,10.01908626,1.196727791,crawl
16/03/2021, 14:48:08,2.4572902,-4.6774735,8.701106,-0.96953356,-0.20236234,0.6717228,10.17969944,1.196727791,crawl
16/03/2021, 14:48:08,2.4572902,-4.6774735,8.701106,-0.9426555,-0.16326699,0.6338492,10.17969944,1.147615058,crawl
16/03/2021, 14:48:08,2.4189699,-4.87626,8.703502,-0.9426555,-0.16326699,0.6338492,10.26548911,1.147615058,crawl
16/03/2021, 14:48:08,2.4189699,-4.87626,8.703502,-0.9011167,-0.12172817,0.598419,10.26548911,1.08854693,crawl
16/03/2021, 14:48:08,2.3135889,-5.0630717,8.753797,-0.9011167,-0.12172817,0.598419,10.37382973,1.08854693,crawl
16/03/2021, 14:48:08,2.3135889,-5.0630717,8.753797,-0.8449171,-0.08018935,0.5617671,10.37382973,1.017790521,crawl
16/03/2021, 14:48:08,2.2608986,-5.2115626,8.758587,-0.8449171,-0.08018935,0.5617671,10.43958293,1.017790521,crawl
16/03/2021, 14:48:08,2.2608986,-5.2115626,8.758587,-0.78138715,-0.038650524,0.5238935,10.43958293,0.941554096,crawl
16/03/2021, 14:48:08,2.193838,-5.360054,8.741821,-0.78138715,-0.038650524,0.5238935,10.48630264,0.941554096,crawl
16/03/2021, 14:48:08,2.193838,-5.360054,8.741821,-0.7019747,4.45E-04,0.4786895,10.48630264,0.84965422,crawl
16/03/2021, 14:48:08,2.1746778,-5.470225,8.691526,-0.7019747,4.45E-04,0.4786895,10.49739087,0.84965422,crawl
16/03/2021, 14:48:09,-0.5460645,3.3626075,8.957374,0.2558616,-0.2170231,0.12927471,9.583311413,0.359549916,crawl
16/03/2021, 14:48:09,-0.51492923,3.4608033,9.012459,0.2558616,-0.2170231,0.12927471,9.667819042,0.359549916,crawl
16/03/2021, 14:48:09,-0.51492923,3.4608033,9.012459,0.2644137,-0.19136678,0.12805298,9.667819042,0.350618627,crawl
16/03/2021, 14:48:09,-0.46463382,3.5087037,9.079519,0.2644137,-0.19136678,0.12805298,9.744975963,0.350618627,crawl
16/03/2021, 14:48:09,-0.46463382,3.5087037,9.079519,0.24853122,-0.17792775,0.11827914,9.744975963,0.327743811,crawl
16/03/2021, 14:48:09,-0.4239185,3.6212697,9.057964,0.24853122,-0.17792775,0.11827914,9.764221365,0.327743811,crawl
16/03/2021, 14:48:09,-0.4239185,3.6212697,9.057964,0.2228749,-0.18525812,0.09873146,9.764221365,0.306172648,crawl
16/03/2021, 14:48:09,-0.5005591,3.5901344,9.062755,0.2228749,-0.18525812,0.09873146,9.760796371,0.306172648,crawl
16/03/2021, 14:48:09,-0.5005591,3.5901344,9.062755,0.19110991,-0.20358407,0.07796205,9.760796371,0.289909563,crawl
16/03/2021, 14:48:09,-0.4406836,3.5709743,9.081915,0.19110991,-0.20358407,0.07796205,9.768686612,0.289909563,crawl
16/03/2021, 14:48:09,-0.4406836,3.5709743,9.081915,0.16178839,-0.21335791,0.07063167,9.768686612,0.276922215,crawl
16/03/2021, 14:48:09,-0.5939649,3.4823585,9.10347,0.16178839,-0.21335791,0.07063167,9.764874703,0.276922215,crawl
16/03/2021, 14:48:09,-0.5939649,3.4823585,9.10347,0.15690146,-0.21824484,0.103618376,9.764874703,0.288072292,crawl
16/03/2021, 14:48:09,-0.60594,3.551814,9.309442,0.15690146,-0.21824484,0.103618376,9.982396947,0.288072292,crawl
16/03/2021, 14:48:09,-0.60594,3.551814,9.309442,0.19233164,-0.2451229,0.09140108,9.982396947,0.324701172,crawl
16/03/2021, 14:48:09,-0.5245093,3.5901344,9.352551,0.19233164,-0.2451229,0.09140108,10.03166954,0.324701172,crawl
16/03/2021, 14:48:09,-0.5245093,3.5901344,9.352551,0.24486603,-0.26711404,0.07063167,10.03166954,0.369185748,crawl
16/03/2021, 14:48:09,-0.50534916,3.661985,9.431587,0.24486603,-0.26711404,0.07063167,10.13017023,0.369185748,crawl
16/03/2021, 14:48:09,-0.50534916,3.661985,9.431587,0.3132829,-0.26589233,0.06574475,10.13017023,0.41613373,crawl
16/03/2021, 14:48:09,-0.48618898,3.9134622,9.515413,0.3132829,-0.26589233,0.06574475,10.30022601,0.41613373,crawl
16/03/2021, 14:48:10,-0.23471193,4.4283915,8.308323,-2.2914455,-0.20724927,0.123166054,9.417747613,2.304093007,crawl
16/03/2021, 14:48:10,-0.1460962,3.9469924,8.392149,-2.2914455,-0.20724927,0.123166054,9.27514191,2.304093007,crawl
16/03/2021, 14:48:10,-0.1460962,3.9469924,8.392149,-2.307328,-0.24634463,0.11094876,9.27514191,2.323092279,crawl
16/03/2021, 14:48:10,-0.028740235,3.5877395,8.626861,-2.307328,-0.24634463,0.11094876,9.343202054,2.323092279,crawl
16/03/2021, 14:48:10,-0.028740235,3.5877395,8.626861,-2.2328026,-0.2524533,0.12560952,9.343202054,2.250537269,crawl
16/03/2021, 14:48:10,0.06706055,3.2452517,8.746612,-2.2328026,-0.2524533,0.12560952,9.329489258,2.250537269,crawl
16/03/2021, 14:48:10,0.06706055,3.2452517,8.746612,-2.1057427,-0.2292404,0.173257,9.329489258,2.125257969,crawl
16/03/2021, 14:48:10,0.12933107,2.8979738,8.907078,-2.1057427,-0.2292404,0.173257,9.367551082,2.125257969,crawl
16/03/2021, 14:48:10,0.12933107,2.8979738,8.907078,-1.9762391,-0.18281466,0.23923041,9.367551082,1.999043098,crawl
16/03/2021, 14:48:10,0.19639161,2.792593,9.022039,-1.9762391,-0.18281466,0.23923041,9.44639299,1.999043098,crawl
16/03/2021, 14:48:10,0.19639161,2.792593,9.022039,-1.8540661,-0.12783681,0.30520383,9.44639299,1.883362114,crawl
16/03/2021, 14:48:10,0.2203418,2.7710378,9.22801,-1.8540661,-0.12783681,0.30520383,9.637602032,1.883362114,crawl
16/03/2021, 14:48:10,0.2203418,2.7710378,9.22801,-1.755106,-0.07530243,0.35651648,9.637602032,1.792532128,crawl
16/03/2021, 14:48:10,0.19160157,2.907554,9.326206,-1.755106,-0.07530243,0.35651648,9.770808724,1.792532128,crawl
16/03/2021, 14:48:10,0.19160157,2.907554,9.326206,-1.6952412,-0.033763602,0.3699555,9.770808724,1.735468188,crawl
16/03/2021, 14:48:10,0.18441652,2.9027638,9.378897,-1.6952412,-0.033763602,0.3699555,9.81955961,1.735468188,crawl
16/03/2021, 14:48:10,0.18441652,2.9027638,9.378897,-1.6842457,-0.015437653,0.35529473,9.81955961,1.72138208,crawl
16/03/2021, 14:48:10,0.083825685,2.919529,9.402847,-1.6842457,-0.015437653,0.35529473,9.846025252,1.72138208,crawl
16/03/2021, 14:48:10,0.083825685,2.919529,9.402847,-1.7086803,-0.025211494,0.33452535,9.846025252,1.741301553,crawl
16/03/2021, 14:48:10,0.07664063,2.7901978,9.395662,-1.7086803,-0.025211494,0.33452535,9.801507436,1.741301553,crawl
16/03/2021, 14:48:11,-2.2656887,-11.187137,-2.816543,0.05183269,-1.9860883,1.793271,11.75662735,2.676388229,crawl
16/03/2021, 14:48:11,-2.339934,-11.239827,-3.1446607,0.05183269,-1.9860883,1.793271,11.90369258,2.676388229,crawl
16/03/2021, 14:48:11,-2.339934,-11.239827,-3.1446607,0.2155445,-1.9897534,1.8494706,11.90369258,2.725090723,crawl
16/03/2021, 14:48:11,-2.3566992,-11.153606,-2.9482691,0.2155445,-1.9897534,1.8494706,11.77494196,2.725090723,crawl
16/03/2021, 14:48:11,-2.3566992,-11.153606,-2.9482691,0.3694825,-1.9518797,1.883679,11.77494196,2.73762644,crawl
16/03/2021, 14:48:11,-2.3710694,-11.045831,-2.5890162,0.3694825,-1.9518797,1.883679,11.59031283,2.73762644,crawl
16/03/2021, 14:48:11,-2.3710694,-11.045831,-2.5890162,0.54663336,-1.8614718,1.875127,11.59031283,2.698144974,crawl
16/03/2021, 14:48:11,-2.2513185,-10.93087,-2.4141798,0.54663336,-1.8614718,1.875127,11.4184333,2.698144974,crawl
16/03/2021, 14:48:11,-2.2513185,-10.93087,-2.4141798,0.6724716,-1.7368553,1.8714617,11.4184333,2.640313112,crawl
16/03/2021, 14:48:11,-2.193838,-11.031461,-2.1171973,0.6724716,-1.7368553,1.8714617,11.44502405,2.640313112,crawl
16/03/2021, 14:48:11,-2.193838,-11.031461,-2.1171973,0.81785744,-1.5926912,1.8690182,11.44502405,2.588201118,crawl
16/03/2021, 14:48:11,-2.3303542,-11.033855,-1.9064356,0.81785744,-1.5926912,1.8690182,11.43726424,2.588201118,crawl
16/03/2021, 14:48:11,-2.3303542,-11.033855,-1.9064356,0.9742389,-1.4827354,1.8482488,11.43726424,2.561965926,crawl
16/03/2021, 14:48:11,-2.339934,-10.897339,-1.8968556,0.9742389,-1.4827354,1.8482488,11.30598723,2.561965926,crawl
16/03/2021, 14:48:11,-2.339934,-10.897339,-1.8968556,1.163607,-1.3630059,1.8189273,11.30598723,2.553480517,crawl
16/03/2021, 14:48:11,-2.3064039,-10.842254,-1.6501685,1.163607,-1.3630059,1.8189273,11.20700763,2.553480517,crawl
16/03/2021, 14:48:11,-2.3064039,-10.842254,-1.6501685,1.3688577,-1.1895202,1.8177056,11.20700763,2.567641657,crawl
16/03/2021, 14:48:11,-2.4213648,-11.009905,-1.3100758,1.3688577,-1.1895202,1.8177056,11.3488903,2.567641657,crawl
16/03/2021, 14:48:11,-2.4213648,-11.009905,-1.3100758,1.4873655,-1.0221432,1.8506923,11.3488903,2.584974813,crawl
16/03/2021, 14:48:11,-2.4836354,-11.268567,-1.092129,1.4873655,-1.0221432,1.8506923,11.59059079,2.584974813,crawl
16/03/2021, 14:48:12,-1.3148658,-10.423125,1.0346485,-0.52726734,0.27411234,-1.234176,10.55655768,1.36979521,crawl
16/03/2021, 14:48:12,-1.1999048,-10.245894,1.0011182,-0.52726734,0.27411234,-1.234176,10.36437947,1.36979521,crawl
16/03/2021, 14:48:12,-1.1999048,-10.245894,1.0011182,-0.39165533,0.28877312,-1.2402847,10.36437947,1.332324998,crawl
16/03/2021, 14:48:12,-1.1663746,-10.183623,1.0226734,-0.39165533,0.28877312,-1.2402847,10.30109092,1.332324998,crawl
16/03/2021, 14:48:12,-1.1663746,-10.183623,1.0226734,-0.26826057,0.28755137,-1.2231804,10.30109092,1.284842344,crawl
16/03/2021, 14:48:12,-0.9244776,-10.116563,0.97237796,-0.26826057,0.28755137,-1.2231804,10.20514681,1.284842344,crawl
16/03/2021, 14:48:12,-0.9244776,-10.116563,0.97237796,-0.1631918,0.3083208,-1.2109631,10.20514681,1.260208306,crawl
16/03/2021, 14:48:12,-0.7209009,-10.018367,1.0130934,-0.1631918,0.3083208,-1.2109631,10.09523303,1.260208306,crawl
16/03/2021, 14:48:12,-0.7209009,-10.018367,1.0130934,-0.0373536,0.3523031,-1.1975241,10.09523303,1.248830115,crawl
16/03/2021, 14:48:12,-0.57959473,-10.013577,1.0322535,-0.0373536,0.3523031,-1.1975241,10.08331349,1.248830115,crawl
16/03/2021, 14:48:12,-0.57959473,-10.013577,1.0322535,0.10436708,0.40728092,-1.1767547,10.08331349,1.249608695,crawl
16/03/2021, 14:48:12,-0.40715334,-9.999207,1.0011182,0.10436708,0.40728092,-1.1767547,10.05744217,1.249608695,crawl
16/03/2021, 14:48:12,-0.40715334,-9.999207,1.0011182,0.24242257,0.4561501,-1.157207,10.05744217,1.267268597,crawl
16/03/2021, 14:48:12,-0.21315674,-9.836346,0.90771246,0.24242257,0.4561501,-1.157207,9.880438953,1.267268597,crawl
16/03/2021, 14:48:12,-0.21315674,-9.836346,0.90771246,0.3694825,0.511128,-1.1608722,9.880438953,1.321133401,crawl
16/03/2021, 14:48:12,-0.05269043,-9.630374,0.79754156,0.3694825,0.511128,-1.1608722,9.663485465,1.321133401,crawl
16/03/2021, 14:48:12,-0.05269043,-9.630374,0.79754156,0.4831034,0.57099277,-1.1755329,9.663485465,1.393305177,crawl
16/03/2021, 14:48:12,0.05269043,-9.460327,0.7711963,0.4831034,0.57099277,-1.1755329,9.491854918,1.393305177,crawl
16/03/2021, 14:48:12,0.05269043,-9.460327,0.7711963,0.5637376,0.63574445,-1.1926372,9.491854918,1.464361486,crawl
16/03/2021, 14:48:12,0.08861572,-9.3309965,0.78556645,0.5637376,0.63574445,-1.1926372,9.364425413,1.464361486,crawl
16/03/2021, 14:48:13,-3.6380348,-9.09868,1.3124708,-1.3079528,-0.17181909,1.4524083,9.886548759,1.962078525,crawl
16/03/2021, 14:48:13,-3.6907253,-9.115445,1.2022998,-1.3079528,-0.17181909,1.4524083,9.907487995,1.962078525,crawl
16/03/2021, 14:48:13,-3.6907253,-9.115445,1.2022998,-1.1625669,-0.21091445,1.4511865,9.907487995,1.871360219,crawl
16/03/2021, 14:48:13,-3.6979103,-9.1849,1.089734,-1.1625669,-0.21091445,1.4511865,9.961147222,1.871360219,crawl
16/03/2021, 14:48:13,-3.6979103,-9.1849,1.089734,-1.0122942,-0.24267943,1.4218651,9.961147222,1.762195556,crawl
16/03/2021, 14:48:13,-3.657195,-9.16574,1.1088941,-1.0122942,-0.24267943,1.4218651,9.93053433,1.762195556,crawl
16/03/2021, 14:48:13,-3.657195,-9.16574,1.1088941,-0.83392155,-0.26589233,1.3742176,9.93053433,1.629293705,crawl
16/03/2021, 14:48:13,-3.7003052,-9.13221,1.1783496,-0.83392155,-0.26589233,1.3742176,9.923609323,1.629293705,crawl
16/03/2021, 14:48:13,-3.7003052,-9.13221,1.1783496,-0.62622744,-0.27933136,1.3400091,9.923609323,1.505261167,crawl
16/03/2021, 14:48:13,-3.776946,-9.048384,1.1927198,-0.62622744,-0.27933136,1.3400091,9.877304793,1.505261167,crawl
16/03/2021, 14:48:13,-3.776946,-9.048384,1.1927198,-0.41364646,-0.2781096,1.3326788,9.877304793,1.422842619,crawl
16/03/2021, 14:48:13,-3.8200562,-8.940608,1.1424243,-0.41364646,-0.2781096,1.3326788,9.789404201,1.422842619,crawl
16/03/2021, 14:48:13,-3.8200562,-8.940608,1.1424243,-0.22672176,-0.24634463,1.3375657,9.789404201,1.378829333,crawl
16/03/2021, 14:48:13,-3.8823268,-8.768167,1.1136842,-0.22672176,-0.24634463,1.3375657,9.653677986,1.378829333,crawl
16/03/2021, 14:48:13,-3.8823268,-8.768167,1.1136842,-0.072783776,-0.18892331,1.3424526,9.653677986,1.357633456,crawl
16/03/2021, 14:48:13,-3.9805226,-8.552615,1.1088941,-0.072783776,-0.18892331,1.3424526,9.498496341,1.357633456,crawl
16/03/2021, 14:48:13,-3.9805226,-8.552615,1.1088941,0.04694577,-0.11561952,1.3473395,9.498496341,1.353105885,crawl
16/03/2021, 14:48:13,-4.140989,-8.334668,1.1160791,0.04694577,-0.11561952,1.3473395,9.373372623,1.353105885,crawl
16/03/2021, 14:48:13,-4.140989,-8.334668,1.1160791,0.1300234,-0.045980904,1.3510047,9.373372623,1.358025803,crawl
16/03/2021, 14:48:13,-4.30385,-8.178992,1.0633887,0.1300234,-0.045980904,1.3510047,9.303216456,1.358025803,crawl
16/03/2021, 14:48:14,-8.681946,0.7089258,1.4609619,2.2338424,0.33031192,-0.3056612,8.832506351,2.27872475,crawl
16/03/2021, 14:48:14,-8.813672,0.6466553,1.4298267,2.2338424,0.33031192,-0.3056612,8.952283669,2.27872475,crawl
16/03/2021, 14:48:14,-8.813672,0.6466553,1.4298267,2.4012194,0.37185076,-0.2653441,8.952283669,2.444286182,crawl
16/03/2021, 14:48:14,-8.856783,0.80233157,1.3196558,2.4012194,0.37185076,-0.2653441,8.990429961,2.444286182,crawl
16/03/2021, 14:48:14,-8.856783,0.80233157,1.3196558,2.5759268,0.42438516,-0.24213122,8.990429961,2.621856035,crawl
16/03/2021, 14:48:14,-8.868757,0.9867481,1.2693604,2.5759268,0.42438516,-0.24213122,9.013312533,2.621856035,crawl
16/03/2021, 14:48:14,-8.868757,0.9867481,1.2693604,2.7200909,0.49035856,-0.21647489,9.013312533,2.772400984,crawl
16/03/2021, 14:48:14,-8.938213,1.2502003,1.1376343,2.7200909,0.49035856,-0.21647489,9.096640607,2.772400984,crawl
16/03/2021, 14:48:14,-8.938213,1.2502003,1.1376343,2.7982817,0.5270105,-0.20670106,9.096640607,2.854968598,crawl
16/03/2021, 14:48:14,-9.06994,1.585503,1.0394385,2.7982817,0.5270105,-0.20670106,9.265962263,2.854968598,crawl
16/03/2021, 14:48:14,-9.06994,1.585503,1.0394385,2.7995033,0.51968014,-0.2128097,9.265962263,2.855271317,crawl
16/03/2021, 14:48:14,-9.220825,1.7771046,0.7927515,2.7995033,0.51968014,-0.2128097,9.423914952,2.855271317,crawl
16/03/2021, 14:48:14,-9.220825,1.7771046,0.7927515,2.7078736,0.48424992,-0.23113565,9.423914952,2.760525496,crawl
16/03/2021, 14:48:14,-9.426797,1.8250049,0.5125342,2.7078736,0.48424992,-0.23113565,9.615499694,2.760525496,crawl
16/03/2021, 14:48:14,-9.426797,1.8250049,0.5125342,2.566153,0.40850267,-0.2372443,9.615499694,2.609272074,crawl
16/03/2021, 14:48:14,-9.656719,1.8441651,0.38320315,2.566153,0.40850267,-0.2372443,9.838699883,2.609272074,crawl
16/03/2021, 14:48:14,-9.656719,1.8441651,0.38320315,2.389002,0.31442943,-0.22136182,9.838699883,2.419751616,crawl
16/03/2021, 14:48:14,-9.70941,1.7794995,0.36883304,2.389002,0.31442943,-0.22136182,9.878020722,2.419751616,crawl
16/03/2021, 14:48:14,-9.70941,1.7794995,0.36883304,2.2277339,0.21913451,-0.19326203,9.878020722,2.24681291,crawl
16/03/2021, 14:48:14,-9.582474,1.8250049,0.45984375,2.2277339,0.21913451,-0.19326203,9.765546711,2.24681291,crawl
16/03/2021, 14:48:15,-7.0030375,-4.8355446,3.9469924,0.6700281,-0.14860623,-1.5163957,9.381032672,1.664475093,crawl
16/03/2021, 14:48:15,-6.6437845,-4.8906302,3.903882,0.6700281,-0.14860623,-1.5163957,9.126797459,1.664475093,crawl
16/03/2021, 14:48:15,-6.6437845,-4.8906302,3.903882,0.54174644,-0.12661508,-1.5151739,9.126797459,1.614085674,crawl
16/03/2021, 14:48:15,-6.437813,-5.0271463,3.9182522,0.54174644,-0.12661508,-1.5151739,9.059267883,1.614085674,crawl
16/03/2021, 14:48:15,-6.437813,-5.0271463,3.9182522,0.41835168,-0.107067406,-1.528613,9.059267883,1.588439226,crawl
16/03/2021, 14:48:15,-6.4426026,-5.2858086,3.9374123,0.41835168,-0.107067406,-1.528613,9.216838731,1.588439226,crawl
16/03/2021, 14:48:15,-6.4426026,-5.2858086,3.9374123,0.30106562,-0.11195433,-1.5041784,9.216838731,1.538091985,crawl
16/03/2021, 14:48:15,-6.473738,-5.5372853,3.9972878,0.30106562,-0.11195433,-1.5041784,9.410054429,1.538091985,crawl
16/03/2021, 14:48:15,-6.473738,-5.5372853,3.9972878,0.19721857,-0.13028027,-1.451644,9.410054429,1.470761113,crawl
16/03/2021, 14:48:15,-6.325247,-5.6666164,4.263135,0.19721857,-0.13028027,-1.451644,9.50229492,1.470761113,crawl
16/03/2021, 14:48:15,-6.325247,-5.6666164,4.263135,0.1422407,-0.14494103,-1.396666,9.50229492,1.411352676,crawl
16/03/2021, 14:48:15,-6.1408305,-5.6690116,4.3709106,0.1422407,-0.14494103,-1.396666,9.431455441,1.411352676,crawl
16/03/2021, 14:48:15,-6.1408305,-5.6690116,4.3709106,0.11780611,-0.17304082,-1.3636794,9.431455441,1.379653194,crawl
16/03/2021, 14:48:15,-5.9468336,-5.695357,4.617598,0.11780611,-0.17304082,-1.3636794,9.440557791,1.379653194,crawl
16/03/2021, 14:48:15,-5.9468336,-5.695357,4.617598,0.1459059,-0.25489676,-1.3575708,9.440557791,1.388977782,crawl
16/03/2021, 14:48:15,-5.807923,-5.767207,5.079837,0.1459059,-0.25489676,-1.3575708,9.633140109,1.388977782,crawl
16/03/2021, 14:48:15,-5.807923,-5.767207,5.079837,0.231427,-0.40516955,-1.3734533,9.633140109,1.450549783,crawl
16/03/2021, 14:48:15,-5.6905665,-6.222261,5.5468655,0.231427,-0.40516955,-1.3734533,10.09290817,1.450549783,crawl
16/03/2021, 14:48:15,-5.6905665,-6.222261,5.5468655,0.3035091,-0.5652161,-1.4137703,10.09290817,1.552524893,crawl
16/03/2021, 14:48:15,-5.6929617,-6.933582,5.767207,0.3035091,-0.5652161,-1.4137703,10.66513235,1.552524893,crawl
16/03/2021, 14:48:16,1.5376027,-9.936936,4.0763235,0.4232386,0.10795708,0.1659266,10.8500387,0.467244354,crawl
16/03/2021, 14:48:16,1.5352076,-9.869876,4.167334,0.4232386,0.10795708,0.1659266,10.82303036,0.467244354,crawl
16/03/2021, 14:48:16,1.5352076,-9.869876,4.167334,0.59794605,0.14583072,0.1781439,10.82303036,0.640734989,crawl
16/03/2021, 14:48:16,1.468147,-9.74294,4.253555,0.59794605,0.14583072,0.1781439,10.73187137,0.640734989,crawl
16/03/2021, 14:48:16,1.468147,-9.74294,4.253555,0.76654476,0.16049148,0.18303083,10.73187137,0.804269027,crawl
16/03/2021, 14:48:16,1.4274317,-9.702225,4.296665,0.76654476,0.16049148,0.18303083,10.70663616,0.804269027,crawl
16/03/2021, 14:48:16,1.4274317,-9.702225,4.296665,0.9107089,0.17393051,0.19036122,10.70663616,0.946509336,crawl
16/03/2021, 14:48:16,1.3388159,-9.565708,4.4259963,0.9107089,0.17393051,0.19036122,10.62471854,0.946509336,crawl
16/03/2021, 14:48:16,1.3388159,-9.565708,4.4259963,1.05976,0.18248262,0.19524813,10.62471854,1.092937756,crawl
