DATE,TIME,ax,ay,az,gx,gy,gz,ma,mg,label
27/03/2021, 15:33:11,-0.30895755,5.52052,8.047266,0.22724178,0.11484262,0.08429937,9.763712836,0.268205221,crawl
27/03/2021, 15:33:11,-0.27542725,5.8198977,7.9969707,0.22724178,0.11484262,0.08429937,9.894372566,0.268205221,crawl
27/03/2021, 15:33:11,-0.27542725,5.8198977,7.9969707,0.33964095,0.116064355,0.061086502,9.894372566,0.364085796,crawl
27/03/2021, 15:33:11,-0.34488282,5.9204884,7.927515,0.33964095,0.116064355,0.061086502,9.900334393,0.364085796,crawl
27/03/2021, 15:33:11,-0.34488282,5.9204884,7.927515,0.05253439,0.12950338,0.03787363,9.900334393,0.144794339,crawl
27/03/2021, 15:33:11,-0.38080812,6.0665846,8.475974,0.05253439,0.12950338,0.03787363,10.43027325,0.144794339,crawl
27/03/2021, 15:33:11,-0.38080812,6.0665846,8.475974,0.46547914,-0.05253439,0.03298671,10.43027325,0.469594305,crawl
27/03/2021, 15:33:11,-0.5245093,6.1384354,10.36804,0.46547914,-0.05253439,0.03298671,12.06033805,0.469594305,crawl
27/03/2021, 15:33:11,-0.5245093,6.1384354,10.36804,0.3652973,0.074525535,0.03787363,12.06033805,0.374740678,crawl
27/03/2021, 15:33:11,-1.4034815,6.1719656,4.0739284,0.3652973,0.074525535,0.03787363,7.527271211,0.374740678,crawl
27/03/2021, 15:33:11,-1.4034815,6.1719656,4.0739284,0.13927722,-0.06841688,-0.018325951,7.527271211,0.156252532,crawl
27/03/2021, 15:33:11,-3.1302907,5.7696023,12.001443,0.13927722,-0.06841688,-0.018325951,13.67924204,0.156252532,crawl
27/03/2021, 15:33:11,-3.1302907,5.7696023,12.001443,0.30054557,-0.34697133,-0.03420844,13.67924204,0.460311813,crawl
27/03/2021, 15:33:11,-1.7699195,5.9180937,13.718673,0.30054557,-0.34697133,-0.03420844,15.04521286,0.460311813,crawl
27/03/2021, 15:33:11,-1.7699195,5.9180937,13.718673,0.32742363,-0.30421078,-0.03543017,15.04521286,0.448336628,crawl
27/03/2021, 15:33:11,-3.056045,5.53489,13.783338,0.32742363,-0.30421078,-0.03543017,15.16426114,0.448336628,crawl
27/03/2021, 15:33:11,-3.056045,5.53489,13.783338,0.00610865,-0.04520401,-0.067195155,15.16426114,0.081215189,crawl
27/03/2021, 15:33:11,-4.5720925,5.4103494,8.380174,0.00610865,-0.04520401,-0.067195155,10.97284017,0.081215189,crawl
27/03/2021, 15:33:11,-4.5720925,5.4103494,8.380174,0.08429937,0.14782934,-0.043982282,10.97284017,0.175767854,crawl
27/03/2021, 15:33:11,-1.6190332,6.191126,0.68976563,0.08429937,0.14782934,-0.043982282,6.436387552,0.175767854,crawl
27/03/2021, 15:33:12,0.2802173,-3.9374123,6.2653713,-8.261338,-1.5577058,0.68539053,7.40517487,8.4348039,crawl
27/03/2021, 15:33:12,0.91729254,-5.5780005,7.180269,-8.261338,-1.5577058,0.68539053,9.138477729,8.4348039,crawl
27/03/2021, 15:33:12,0.91729254,-5.5780005,7.180269,-8.103735,-1.5577058,0.68661225,9.138477729,8.280604089,crawl
27/03/2021, 15:33:12,1.7890797,-7.2401443,7.7454934,-8.103735,-1.5577058,0.68661225,10.75235616,8.280604089,crawl
27/03/2021, 15:33:12,1.7890797,-7.2401443,7.7454934,-7.765316,-1.3988808,0.7611378,10.75235616,7.926937054,crawl
27/03/2021, 15:33:12,1.9639161,-8.413704,7.8532696,-7.765316,-1.3988808,0.7611378,11.67566799,7.926937054,crawl
27/03/2021, 15:33:12,1.9639161,-8.413704,7.8532696,-7.239972,-1.1740825,0.8210026,11.67566799,7.380359832,crawl
27/03/2021, 15:33:12,2.2848487,-9.319021,8.425679,-7.239972,-1.1740825,0.8210026,12.76936804,7.380359832,crawl
27/03/2021, 15:33:12,2.2848487,-9.319021,8.425679,-6.637659,-0.9236279,0.701273,12.76936804,6.738203792,crawl
27/03/2021, 15:33:12,2.0525317,-9.812395,8.454419,-6.637659,-0.9236279,0.701273,13.11385477,6.738203792,crawl
27/03/2021, 15:33:12,2.0525317,-9.812395,8.454419,-6.048785,-0.70738167,0.47403124,13.11385477,6.108428353,crawl
27/03/2021, 15:33:12,1.3244458,-10.099798,8.085587,-6.048785,-0.70738167,0.47403124,13.0052601,6.108428353,crawl
27/03/2021, 15:33:12,1.3244458,-10.099798,8.085587,-5.448916,-0.56932616,0.29565868,13.0052601,5.48655005,crawl
27/03/2021, 15:33:12,0.5340894,-10.250684,7.8724294,-5.448916,-0.56932616,0.29565868,12.935877,5.48655005,crawl
27/03/2021, 15:33:12,0.5340894,-10.250684,7.8724294,-4.9199066,-0.55222195,0.18570296,12.935877,4.954282571,crawl
27/03/2021, 15:33:12,0.45744875,-10.528506,6.0737696,-4.9199066,-0.55222195,0.18570296,12.16344444,4.954282571,crawl
27/03/2021, 15:33:12,0.45744875,-10.528506,6.0737696,-4.7696342,-0.65606904,0.04153882,12.16344444,4.814723555,crawl
27/03/2021, 15:33:12,1.5328126,-10.114168,5.237908,-4.7696342,-0.65606904,0.04153882,11.49267555,4.814723555,crawl
27/03/2021, 15:33:12,1.5328126,-10.114168,5.237908,-4.6572347,-0.9236279,-0.14782934,11.49267555,4.750239657,crawl
27/03/2021, 15:33:12,1.7004639,-10.533297,5.4534597,-4.6572347,-0.9236279,-0.14782934,11.98257641,4.750239657,crawl
27/03/2021, 15:33:13,0.5963599,1.5064673,9.453142,-0.4508184,-0.07208207,0.33108884,9.590984611,0.56396176,crawl
27/03/2021, 15:33:13,1.8992506,1.6429834,9.958491,-0.4508184,-0.07208207,0.33108884,10.27025302,0.56396176,crawl
27/03/2021, 15:33:13,1.8992506,1.6429834,9.958491,-0.4263838,0.45570529,0.48624855,10.27025302,0.79114354,crawl
27/03/2021, 15:33:13,1.3507911,1.6118482,10.166859,-0.4263838,0.45570529,0.48624855,10.38208585,0.79114354,crawl
27/03/2021, 15:33:13,1.3507911,1.6118482,10.166859,-0.07086034,0.75747263,0.4960224,10.38208585,0.908198329,crawl
27/03/2021, 15:33:13,-0.72569096,0.28500733,9.254355,-0.07086034,0.75747263,0.4960224,9.28713901,0.908198329,crawl
27/03/2021, 15:33:13,-0.72569096,0.28500733,9.254355,0.44959664,0.63652134,0.4153882,9.28713901,0.883087714,crawl
27/03/2021, 15:33:13,-3.4631984,-0.6442603,8.55501,0.44959664,0.63652134,0.4153882,9.251865111,0.883087714,crawl
27/03/2021, 15:33:13,-3.4631984,-0.6442603,8.55501,0.24556774,0.33964095,0.29932386,9.251865111,0.515028404,crawl
27/03/2021, 15:33:13,-2.8285182,-0.5484595,8.514295,0.24556774,0.33964095,0.29932386,8.988578068,0.515028404,crawl
27/03/2021, 15:33:13,-2.8285182,-0.5484595,8.514295,0.18081604,0.17959431,0.38362324,8.988578068,0.46055982,crawl
27/03/2021, 15:33:13,-0.49097902,0.6562354,8.610096,0.18081604,0.17959431,0.38362324,8.649014859,0.46055982,crawl
27/03/2021, 15:33:13,-1.5519727,0.39517823,9.14658,0.18081604,0.17959431,0.38362324,9.28572594,0.46055982,crawl
27/03/2021, 15:33:13,-1.5519727,0.39517823,9.14658,0.25045466,0.11239916,0.40194917,9.28572594,0.486748645,crawl
27/03/2021, 15:33:13,-1.5519727,0.39517823,9.14658,0.3457496,0.16615528,0.18936816,9.28572594,0.427797444,crawl
27/03/2021, 15:33:13,-0.977168,0.117355965,8.701106,0.3457496,0.16615528,0.18936816,8.756590469,0.427797444,crawl
27/03/2021, 15:33:13,-0.977168,0.117355965,8.701106,0.3139846,0.23090698,-0.01710422,8.756590469,0.390124234,crawl
27/03/2021, 15:33:13,-2.7901978,0.364043,8.5598,0.3139846,0.23090698,-0.01710422,9.010433392,0.390124234,crawl
27/03/2021, 15:33:13,-2.7901978,0.364043,8.5598,0.4960224,0.15515971,-0.102625325,9.010433392,0.529759113,crawl
27/03/2021, 15:33:13,-3.166216,1.0705738,7.2497244,0.4960224,0.15515971,-0.102625325,7.983079298,0.529759113,crawl
27/03/2021, 15:33:14,-7.3455253,6.861731,3.523074,-1.4477501,2.679254,-1.3023642,10.65139166,3.312179827,crawl
27/03/2021, 15:33:14,-7.31918,6.70845,3.539839,-1.4477501,2.679254,-1.3023642,10.5405956,3.312179827,crawl
27/03/2021, 15:33:14,-7.31918,6.70845,3.539839,-1.6102402,2.8539612,-1.4245372,10.5405956,3.573132302,crawl
27/03/2021, 15:33:14,-7.812554,5.860613,3.4560134,-1.6102402,2.8539612,-1.4245372,10.35986536,3.573132302,crawl
27/03/2021, 15:33:14,-7.812554,5.860613,3.4560134,-1.8484775,2.9675822,-1.5100583,10.35986536,3.80837095,crawl
27/03/2021, 15:33:14,-8.076006,4.5744877,2.7566676,-1.8484775,2.9675822,-1.5100583,9.682304777,3.80837095,crawl
27/03/2021, 15:33:14,-8.076006,4.5744877,2.7566676,-1.9779809,3.0201166,-1.5491537,9.682304777,3.928535284,crawl
27/03/2021, 15:33:14,-8.111932,3.5063088,2.668052,-1.9779809,3.0201166,-1.5491537,9.231258861,3.928535284,crawl
27/03/2021, 15:33:14,-8.111932,3.5063088,2.668052,-1.8973467,3.054325,-1.5320494,9.231258861,3.908452621,crawl
27/03/2021, 15:33:14,-8.47837,2.0046315,2.4692652,-1.8973467,3.054325,-1.5320494,9.055306249,3.908452621,crawl
27/03/2021, 15:33:14,-8.47837,2.0046315,2.4692652,-1.6603311,3.0665424,-1.5186105,9.055306249,3.80349306,crawl
27/03/2021, 15:33:14,-8.650811,0.69216067,3.1063404,-1.6603311,3.0665424,-1.5186105,9.217644572,3.80349306,crawl
27/03/2021, 15:33:14,-8.650811,0.69216067,3.1063404,-1.2192866,3.1740546,-1.5711448,9.217644572,3.745634594,crawl
27/03/2021, 15:33:14,-8.408914,-1.2717555,2.6033864,-1.2192866,3.1740546,-1.5711448,8.894088533,3.745634594,crawl
27/03/2021, 15:33:14,-8.408914,-1.2717555,2.6033864,-0.55100024,3.4061832,-1.6688832,8.894088533,3.832865337,crawl
27/03/2021, 15:33:14,-7.800579,-3.523074,1.961521,-0.55100024,3.4061832,-1.6688832,8.781153021,3.832865337,crawl
27/03/2021, 15:33:14,-7.800579,-3.523074,1.961521,0.18814643,3.6712987,-1.7947214,8.781153021,4.090826116,crawl
27/03/2021, 15:33:14,-7.438931,-5.479805,1.7651294,0.18814643,3.6712987,-1.7947214,9.406467933,4.090826116,crawl
27/03/2021, 15:33:14,-7.438931,-5.479805,1.7651294,0.87598044,3.8044672,-1.9339986,9.406467933,4.35679503,crawl
27/03/2021, 15:33:14,-7.5059915,-5.0582814,2.7710378,0.87598044,3.8044672,-1.9339986,9.465979575,4.35679503,crawl
27/03/2021, 15:33:15,-2.7782228,-3.168611,-8.293953,-0.36041036,-0.33108884,-1.601688,9.303132446,1.674789535,crawl
27/03/2021, 15:33:15,-2.7973828,-3.2620168,-7.206614,-0.36041036,-0.33108884,-1.601688,8.390553601,1.674789535,crawl
27/03/2021, 15:33:15,-2.7973828,-3.2620168,-7.206614,-0.3506365,-0.19303334,-1.7067568,8.390553601,1.753062095,crawl
27/03/2021, 15:33:15,-3.0991554,-3.4895437,-6.461763,-0.3506365,-0.19303334,-1.7067568,7.970950964,1.753062095,crawl
27/03/2021, 15:33:15,-3.0991554,-3.4895437,-6.461763,-0.42027512,-0.00488692,-1.7849475,7.970950964,1.833764622,crawl
27/03/2021, 15:33:15,-3.2260914,-3.3410523,-5.863008,-0.42027512,-0.00488692,-1.7849475,7.479649666,1.833764622,crawl
27/03/2021, 15:33:15,-3.2260914,-3.3410523,-5.863008,-0.5619958,0.16859874,-1.8851295,7.479649666,1.974329727,crawl
27/03/2021, 15:33:15,-3.5925295,-2.9003687,-6.06419,-0.5619958,0.16859874,-1.8851295,7.621863701,1.974329727,crawl
27/03/2021, 15:33:15,-3.5925295,-2.9003687,-6.06419,-0.63285613,0.12583819,-2.0757194,7.621863701,2.173695696,crawl
27/03/2021, 15:33:15,-3.3697927,-2.3447242,-6.2845316,-0.63285613,0.12583819,-2.0757194,7.506568568,2.173695696,crawl
27/03/2021, 15:33:15,-3.3697927,-2.3447242,-6.2845316,-0.7977897,-0.09651667,-2.3506086,7.506568568,2.484178857,crawl
27/03/2021, 15:33:15,-3.8655617,-3.0344899,-7.592212,-0.7977897,-0.09651667,-2.3506086,9.043914103,2.484178857,crawl
27/03/2021, 15:33:15,-3.8655617,-3.0344899,-7.592212,-1.2779297,-0.3995057,-2.5179856,9.043914103,2.851834572,crawl
27/03/2021, 15:33:15,-3.8320315,-3.6955154,-8.581355,-1.2779297,-0.3995057,-2.5179856,10.09856201,2.851834572,crawl
27/03/2021, 15:33:15,-3.8320315,-3.6955154,-8.581355,-1.9120075,-0.73914665,-2.6462672,10.09856201,3.347363175,crawl
27/03/2021, 15:33:15,-3.415298,-4.380491,-8.828042,-1.9120075,-0.73914665,-2.6462672,10.43011438,3.347363175,crawl
27/03/2021, 15:33:15,-3.415298,-4.380491,-8.828042,-2.4605644,-1.1239916,-2.787988,10.43011438,3.88466356,crawl
27/03/2021, 15:33:15,-2.5842261,-4.414021,-8.5430355,-2.4605644,-1.1239916,-2.787988,9.95717138,3.88466356,crawl
27/03/2021, 15:33:15,-2.5842261,-4.414021,-8.5430355,-2.6658149,-1.5234973,-2.9174912,9.95717138,4.23548911,crawl
27/03/2021, 15:33:15,-2.8955786,-4.5553274,-7.7239385,-2.6658149,-1.5234973,-2.9174912,9.423089134,4.23548911,crawl
27/03/2021, 15:33:16,-6.3851223,8.770562,-2.6297317,-1.6297878,0.14416414,-0.5485568,11.16279697,1.725661076,crawl
27/03/2021, 15:33:16,-7.9227247,8.387359,0.44547364,-1.6297878,0.14416414,-0.5485568,11.54624611,1.725661076,crawl
27/03/2021, 15:33:16,-7.9227247,8.387359,0.44547364,-2.0781627,-0.36774075,0.36896247,11.54624611,2.142458085,crawl
27/03/2021, 15:33:16,-8.528665,8.6627865,2.567461,-2.0781627,-0.36774075,0.36896247,12.42472718,2.142458085,crawl
27/03/2021, 15:33:16,-8.528665,8.6627865,2.567461,-1.8594731,-0.55344373,1.569923,12.42472718,2.495716043,crawl
27/03/2021, 15:33:16,-6.598279,7.5203614,5.350474,-1.8594731,-0.55344373,1.569923,11.3455142,2.495716043,crawl
27/03/2021, 15:33:16,-6.598279,7.5203614,5.350474,-1.1093309,-0.03298671,1.9132292,11.3455142,2.211820343,crawl
27/03/2021, 15:33:16,-4.416416,7.407796,6.9719024,-1.1093309,-0.03298671,1.9132292,11.08997721,2.211820343,crawl
27/03/2021, 15:33:16,-4.416416,7.407796,6.9719024,-0.79045933,1.0360271,1.1826347,11.08997721,1.759773542,crawl
27/03/2021, 15:33:16,-3.3697927,5.721702,4.4475513,-0.79045933,1.0360271,1.1826347,7.992126743,1.759773542,crawl
27/03/2021, 15:33:16,-3.3697927,5.721702,4.4475513,-1.402546,1.7385218,0.6682863,7.992126743,2.331566024,crawl
27/03/2021, 15:33:16,-3.1973512,6.231841,2.9602442,-1.402546,1.7385218,0.6682863,7.604074154,2.331566024,crawl
27/03/2021, 15:33:16,-3.1973512,6.231841,2.9602442,-2.1306973,1.9938633,0.66095597,7.604074154,2.992026838,crawl
27/03/2021, 15:33:16,-3.515889,8.013736,-0.7041358,-2.1306973,1.9938633,0.66095597,8.779364622,2.992026838,crawl
27/03/2021, 15:33:16,-3.515889,8.013736,-0.7041358,-2.6902494,1.6261227,0.89308465,8.779364622,3.267922479,crawl
27/03/2021, 15:33:16,-4.4116263,8.231683,0.8646021,-2.6902494,1.6261227,0.89308465,9.379263568,3.267922479,crawl
27/03/2021, 15:33:16,-4.4116263,8.231683,0.8646021,-2.9223783,1.7177525,0.91263235,9.379263568,3.51053646,crawl
27/03/2021, 15:33:16,-6.0378447,5.278623,1.81782,-2.9223783,1.7177525,0.91263235,8.223375181,3.51053646,crawl
27/03/2021, 15:33:16,-6.0378447,5.278623,1.81782,-2.9223783,2.2149966,1.0800093,8.223375181,3.822685568,crawl
27/03/2021, 15:33:16,-7.7598634,3.5733693,3.642825,-2.9223783,2.2149966,1.0800093,9.287336577,3.822685568,crawl
27/03/2021, 15:33:17,-7.31918,-4.782854,-5.0271463,-2.6242762,-1.2974772,-2.6181674,10.08554855,3.927476685,crawl
27/03/2021, 15:33:17,-6.943162,-5.5492606,-4.9002104,-2.6242762,-1.2974772,-2.6181674,10.14957404,3.927476685,crawl
27/03/2021, 15:33:17,-6.943162,-5.5492606,-4.9002104,-2.1160364,-1.2376125,-2.6230543,10.14957404,3.590224012,crawl
27/03/2021, 15:33:17,-7.0437527,-5.877378,-4.8427296,-2.1160364,-1.2376125,-2.6230543,10.37352656,3.590224012,crawl
27/03/2021, 15:33:17,-7.0437527,-5.877378,-4.8427296,-1.6847657,-1.2009606,-2.5692983,10.37352656,3.298793035,crawl
27/03/2021, 15:33:17,-7.580237,-5.7767873,-5.007986,-1.6847657,-1.2009606,-2.5692983,10.7662058,3.298793035,crawl
27/03/2021, 15:33:17,-7.580237,-5.7767873,-5.007986,-1.2791513,-1.2925904,-2.5082119,10.7662058,3.098087262,crawl
27/03/2021, 15:33:17,-7.719148,-5.3241286,-5.4271145,-1.2791513,-1.2925904,-2.5082119,10.83444348,3.098087262,crawl
27/03/2021, 15:33:17,-7.719148,-5.3241286,-5.4271145,-0.89674985,-1.4453067,-2.4959943,10.83444348,3.020440255,crawl
27/03/2021, 15:33:17,-7.6329274,-5.1540823,-5.503755,-0.89674985,-1.4453067,-2.4959943,10.72928075,3.020440255,crawl
27/03/2021, 15:33:17,-7.6329274,-5.1540823,-5.503755,-0.5742131,-1.5259408,-2.5534158,10.72928075,3.029545848,crawl
27/03/2021, 15:33:17,-7.30481,-4.869075,-5.5947657,-0.5742131,-1.5259408,-2.5534158,10.41006927,3.029545848,crawl
27/03/2021, 15:33:17,-7.30481,-4.869075,-5.5947657,-0.26633716,-1.4905106,-2.6548193,10.41006927,3.056243205,crawl
27/03/2021, 15:33:17,-7.5251517,-4.7301636,-5.5540504,-0.26633716,-1.4905106,-2.6548193,10.48092707,3.056243205,crawl
27/03/2021, 15:33:17,-7.5251517,-4.7301636,-5.5540504,-0.04642574,-1.502728,-2.7317884,10.48092707,3.118174882,crawl
27/03/2021, 15:33:17,-7.91075,-4.9648757,-5.815108,-0.04642574,-1.502728,-2.7317884,11.00206498,3.118174882,crawl
27/03/2021, 15:33:17,-7.91075,-4.9648757,-5.815108,0.02809979,-1.5772535,-2.756223,11.00206498,3.175733475,crawl
27/03/2021, 15:33:17,-8.092772,-5.101392,-5.319339,0.02809979,-1.5772535,-2.756223,10.9458903,3.175733475,crawl
27/03/2021, 15:33:17,-8.092772,-5.101392,-5.319339,0.14049895,-1.670105,-2.7232363,10.9458903,3.197656434,crawl
27/03/2021, 15:33:17,-8.389753,-5.024751,-4.8499146,0.14049895,-1.670105,-2.7232363,10.91594049,3.197656434,crawl
27/03/2021, 15:33:18,-7.1491337,-1.5280225,7.3694754,4.3017116,2.2956307,2.0011938,10.38046879,5.270618473,crawl
27/03/2021, 15:33:18,-7.4509063,-0.6466553,7.8676395,4.3017116,2.2956307,2.0011938,10.85513332,5.270618473,crawl
27/03/2021, 15:33:18,-7.4509063,-0.6466553,7.8676395,3.9669573,2.2479832,1.8741338,10.85513332,4.929762327,crawl
27/03/2021, 15:33:18,-7.2569094,0.70174074,8.059241,3.9669573,2.2479832,1.8741338,10.86768347,4.929762327,crawl
27/03/2021, 15:33:18,-7.2569094,0.70174074,8.059241,3.6370902,2.0964887,1.7886127,10.86768347,4.563203433,crawl
27/03/2021, 15:33:18,-6.2773466,2.2632935,8.013736,3.6370902,2.0964887,1.7886127,10.42820881,4.563203433,crawl
27/03/2021, 15:33:18,-6.2773466,2.2632935,8.013736,3.1349592,1.8985685,1.5943577,10.42820881,3.996812264,crawl
27/03/2021, 15:33:18,-5.1947975,3.755391,8.298743,3.1349592,1.8985685,1.5943577,10.48608704,3.996812264,crawl
27/03/2021, 15:33:18,-5.1947975,3.755391,8.298743,2.4813337,1.7177525,1.3292422,10.48608704,3.297662126,crawl
27/03/2021, 15:33:18,-4.5481424,4.854705,9.05557,2.4813337,1.7177525,1.3292422,11.23641849,3.297662126,crawl
27/03/2021, 15:33:18,-4.5481424,4.854705,9.05557,1.9193379,1.5161669,1.1020005,11.23641849,2.682727166,crawl
27/03/2021, 15:33:18,-3.9422023,6.1312504,9.513018,1.9193379,1.5161669,1.1020005,11.98460243,2.682727166,crawl
27/03/2021, 15:33:18,-3.9422023,6.1312504,9.513018,1.4929541,1.2424995,0.9248496,11.98460243,2.151293523,crawl
27/03/2021, 15:33:18,-3.3889527,6.7970657,9.539363,1.4929541,1.2424995,0.9248496,12.19362735,2.151293523,crawl
27/03/2021, 15:33:18,-3.3889527,6.7970657,9.539363,1.2608254,0.99937516,0.81000704,12.19362735,1.801261446,crawl
27/03/2021, 15:33:18,-2.9051588,6.219866,8.780142,1.2608254,0.99937516,0.81000704,11.14529356,1.801261446,crawl
27/03/2021, 15:33:18,-2.9051588,6.219866,8.780142,1.1972954,0.8148939,0.84299374,11.14529356,1.675770524,crawl
27/03/2021, 15:33:18,-3.3051271,5.2115626,7.790999,1.1972954,0.8148939,0.84299374,9.939009756,1.675770524,crawl
27/03/2021, 15:33:18,-3.3051271,5.2115626,7.790999,1.3463465,0.7819072,1.0983353,9.939009756,1.905352492,crawl
27/03/2021, 15:33:18,-4.1721244,4.4355764,7.4197707,1.3463465,0.7819072,1.0983353,9.598643536,1.905352492,crawl
27/03/2021, 15:33:19,-6.933582,-2.3710694,-5.4582496,1.5772535,1.6249009,-2.3921473,9.137232381,3.293994574,crawl
27/03/2021, 15:33:19,-7.7646537,-2.44292,-5.853428,1.5772535,1.6249009,-2.3921473,10.02598239,3.293994574,crawl
27/03/2021, 15:33:19,-7.7646537,-2.44292,-5.853428,2.4068081,1.5943577,-2.4764469,10.02598239,3.803615525,crawl
27/03/2021, 15:33:19,-8.181387,-2.675237,-6.5120583,2.4068081,1.5943577,-2.4764469,10.79346505,3.803615525,crawl
27/03/2021, 15:33:19,-8.181387,-2.675237,-6.5120583,2.7574446,1.497841,-2.6939147,10.79346505,4.13572299,crawl
27/03/2021, 15:33:19,-9.137,-3.0105398,-6.8832865,2.7574446,1.497841,-2.6939147,11.82910618,4.13572299,crawl
27/03/2021, 15:33:19,-9.137,-3.0105398,-6.8832865,2.4190254,1.4966192,-2.7036886,11.82910618,3.924472608,crawl
27/03/2021, 15:33:19,-9.833951,-2.1603076,-6.191126,2.4190254,1.4966192,-2.7036886,11.81962609,3.924472608,crawl
27/03/2021, 15:33:19,-9.833951,-2.1603076,-6.191126,1.8399254,1.6004664,-2.452012,11.81962609,3.458204919,crawl
27/03/2021, 15:33:19,-9.357342,-0.7209009,-5.6690116,1.8399254,1.6004664,-2.452012,10.96436206,3.458204919,crawl
27/03/2021, 15:33:19,-9.357342,-0.7209009,-5.6690116,1.3439031,1.7482957,-2.4190254,10.96436206,3.273270103,crawl
27/03/2021, 15:33:19,-8.025711,0.49097902,-6.318062,1.3439031,1.7482957,-2.4190254,10.22599646,3.273270103,crawl
27/03/2021, 15:33:19,-8.025711,0.49097902,-6.318062,0.8393285,1.7201959,-2.7122407,10.22599646,3.319607788,crawl
27/03/2021, 15:33:19,-7.223379,0.51971924,-6.725215,0.8393285,1.7201959,-2.7122407,9.88310834,3.319607788,crawl
27/03/2021, 15:33:19,-7.223379,0.51971924,-6.725215,0.33108884,1.4624108,-3.1166332,9.88310834,3.458564377,crawl
27/03/2021, 15:33:19,-7.189849,-0.50774413,-5.6809864,0.33108884,1.4624108,-3.1166332,9.177436343,3.458564377,crawl
27/03/2021, 15:33:19,-7.189849,-0.50774413,-5.6809864,-0.054977853,0.8881977,-3.3096666,9.177436343,3.427216214,crawl
27/03/2021, 15:33:19,-7.697593,-2.6321266,-4.038003,-0.054977853,0.8881977,-3.3096666,9.082207854,3.427216214,crawl
27/03/2021, 15:33:19,-7.697593,-2.6321266,-4.038003,-0.1710422,0.21624622,-3.2827885,9.082207854,3.294346414,crawl
27/03/2021, 15:33:19,-7.472461,-4.605623,-3.295547,-0.1710422,0.21624622,-3.2827885,9.376036898,3.294346414,crawl
27/03/2021, 15:33:20,-5.774392,2.5938063,9.843531,3.2559104,1.0067055,2.381152,11.70327011,4.157438269,crawl
27/03/2021, 15:33:20,-5.7312818,2.931504,10.102193,3.2559104,1.0067055,2.381152,11.9789652,4.157438269,crawl
27/03/2021, 15:33:20,-5.7312818,2.931504,10.102193,3.154507,0.9529494,2.3848171,11.9789652,4.067724081,crawl
27/03/2021, 15:33:20,-5.46304,3.2428565,10.269844,3.154507,0.9529494,2.3848171,12.07603494,4.067724081,crawl
27/03/2021, 15:33:20,-5.46304,3.2428565,10.269844,3.1655025,0.9724971,2.389704,12.07603494,4.083728953,crawl
27/03/2021, 15:33:20,-5.3384986,2.8524685,9.5489435,3.1655025,0.9724971,2.389704,11.30568291,4.083728953,crawl
27/03/2021, 15:33:20,-5.3384986,2.8524685,9.5489435,3.037221,0.9810492,2.3432782,11.30568291,3.959560734,crawl
27/03/2021, 15:33:20,-5.767207,2.7446926,8.425679,3.037221,0.9810492,2.3432782,10.57289391,3.959560734,crawl
27/03/2021, 15:33:20,-5.767207,2.7446926,8.425679,2.8747308,0.96272326,2.3933692,10.57289391,3.8625289,crawl
27/03/2021, 15:33:20,-5.8989334,3.0943654,7.311995,2.8747308,0.96272326,2.3933692,9.891298381,3.8625289,crawl
27/03/2021, 15:33:20,-5.8989334,3.0943654,7.311995,2.6804757,0.9224062,2.4385731,9.891298381,3.739307704,crawl
27/03/2021, 15:33:20,-6.351592,3.2739918,6.7755103,2.6804757,0.9224062,2.4385731,9.847298319,3.739307704,crawl
27/03/2021, 15:33:20,-6.351592,3.2739918,6.7755103,2.398256,0.86009794,2.44346,9.847298319,3.530141262,crawl
27/03/2021, 15:33:20,-6.8042507,3.05844,6.593489,2.398256,0.86009794,2.44346,9.956203207,3.530141262,crawl
27/03/2021, 15:33:20,-6.8042507,3.05844,6.593489,2.0916018,0.77579856,2.475225,9.956203207,3.33217652,crawl
27/03/2021, 15:33:20,-7.2185893,2.792593,6.502478,2.0916018,0.77579856,2.475225,10.10884904,3.33217652,crawl
27/03/2021, 15:33:20,-7.2185893,2.792593,6.502478,1.7910563,0.68905574,2.583959,10.10884904,3.218621606,crawl
27/03/2021, 15:33:20,-7.165899,3.0416749,6.2797413,1.7910563,0.68905574,2.583959,10.00185194,3.218621606,crawl
27/03/2021, 15:33:20,-7.165899,3.0416749,6.2797413,1.4892889,0.60475636,2.6438239,10.00185194,3.094109948,crawl
27/03/2021, 15:33:20,-6.6485744,3.3937428,5.9156985,1.4892889,0.60475636,2.6438239,9.524522045,3.094109948,crawl
27/03/2021, 15:33:21,-9.845925,-2.059717,-1.4418018,-0.3298671,1.8130474,-2.6328282,10.1618636,3.21367978,crawl
27/03/2021, 15:33:21,-9.845925,-2.059717,-1.4418018,-0.18814643,1.8362602,-2.6047285,10.1618636,3.192469413,crawl
27/03/2021, 15:33:21,-10.289004,-1.6310084,-1.1567944,-0.18814643,1.8362602,-2.6047285,10.48150618,3.192469413,crawl
27/03/2021, 15:33:21,-10.289004,-1.6310084,-1.1567944,-0.25778502,1.8240429,-2.5595243,10.48150618,3.153529817,crawl
27/03/2021, 15:33:21,-10.97398,-0.8382569,-1.2861255,-0.25778502,1.8240429,-2.5595243,11.08084065,3.153529817,crawl
27/03/2021, 15:33:21,-10.97398,-0.8382569,-1.2861255,-0.3127629,1.8496993,-2.4251342,11.08084065,3.066020837,crawl
27/03/2021, 15:33:21,-10.830278,-0.09340577,-0.57001466,-0.3127629,1.8496993,-2.4251342,10.84567063,3.066020837,crawl
27/03/2021, 15:33:21,-10.830278,-0.09340577,-0.57001466,-0.18203777,1.8044952,-2.339613,10.84567063,2.960258357,crawl
27/03/2021, 15:33:21,-9.970467,-0.3544629,-0.84544194,-0.18203777,1.8044952,-2.339613,10.01252318,2.960258357,crawl
27/03/2021, 15:33:21,-9.970467,-0.3544629,-0.84544194,0.03787363,1.6481138,-2.4886642,10.01252318,2.985157101,crawl
27/03/2021, 15:33:21,-9.414823,-0.8262818,-0.9987232,0.03787363,1.6481138,-2.4886642,9.503634769,2.985157101,crawl
27/03/2021, 15:33:21,-9.414823,-0.8262818,-0.9987232,0.14416414,1.6126837,-2.6169457,9.503634769,3.077326257,crawl
27/03/2021, 15:33:21,-9.616004,-1.1112891,-1.5208374,0.14416414,1.6126837,-2.6169457,9.798747,3.077326257,crawl
27/03/2021, 15:33:21,-9.616004,-1.1112891,-1.5208374,0.095294945,1.7959431,-2.4422383,9.798747,3.032988783,crawl
27/03/2021, 15:33:21,-9.249566,-0.45984375,-2.5698562,0.095294945,1.7959431,-2.4422383,9.610935939,3.032988783,crawl
27/03/2021, 15:33:21,-9.249566,-0.45984375,-2.5698562,0.073303804,2.0561717,-2.267531,9.610935939,3.061847774,crawl
27/03/2021, 15:33:21,-8.957374,0.117355965,-2.8452833,0.073303804,2.0561717,-2.267531,9.399146316,3.061847774,crawl
27/03/2021, 15:33:21,-8.957374,0.117355965,-2.8452833,0.1869247,2.2467616,-2.276083,9.399146316,3.20365918,crawl
27/03/2021, 15:33:21,-9.002879,-0.100590825,-3.7290456,0.1869247,2.2467616,-2.276083,9.745138926,3.20365918,crawl
27/03/2021, 15:33:21,-9.002879,-0.100590825,-3.7290456,0.28955,2.24554,-2.515542,9.745138926,3.384411377,crawl
27/03/2021, 15:33:22,1.2741505,-8.109536,5.2810183,5.2571044,-0.38362324,1.6542225,9.761003545,5.524560206,crawl
27/03/2021, 15:33:22,0.7161109,-8.53585,5.2834134,5.2571044,-0.38362324,1.6542225,10.06419396,5.524560206,crawl
27/03/2021, 15:33:22,0.7161109,-8.53585,5.2834134,5.661497,-0.3750711,1.4184285,10.06419396,5.848518398,crawl
27/03/2021, 15:33:22,-0.51492923,-9.062755,5.4223247,5.661497,-0.3750711,1.4184285,10.57356507,5.848518398,crawl
27/03/2021, 15:33:22,-0.51492923,-9.062755,5.4223247,6.0157986,-0.33475402,1.4269806,10.57356507,6.191782163,crawl
27/03/2021, 15:33:22,-1.3962965,-8.940608,5.5516553,6.0157986,-0.33475402,1.4269806,10.61626075,6.191782163,crawl
27/03/2021, 15:33:22,-1.3962965,-8.940608,5.5516553,6.1746235,-0.2968804,1.7189741,10.61626075,6.416306196,crawl
27/03/2021, 15:33:22,-1.468147,-8.56938,6.672525,6.1746235,-0.2968804,1.7189741,10.9595764,6.416306196,crawl
27/03/2021, 15:33:22,-1.468147,-8.56938,6.672525,6.36277,-0.12095127,1.9901983,10.9595764,6.667860332,crawl
27/03/2021, 15:33:22,-1.2765454,-8.619676,8.035291,6.36277,-0.12095127,1.9901983,11.85302802,6.667860332,crawl
27/03/2021, 15:33:22,-1.2765454,-8.619676,8.035291,6.309014,0.2797762,2.167349,11.85302802,6.676775608,crawl
27/03/2021, 15:33:22,-1.6717237,-8.890313,8.868757,6.309014,0.2797762,2.167349,12.66835361,6.676775608,crawl
27/03/2021, 15:33:22,-1.6717237,-8.890313,8.868757,6.103763,0.6096433,2.163684,12.66835361,6.504545867,crawl
27/03/2021, 15:33:22,-2.3064039,-7.9155397,7.9873905,6.103763,0.6096433,2.163684,11.47927156,6.504545867,crawl
27/03/2021, 15:33:22,-2.3064039,-7.9155397,7.9873905,6.0988765,0.58398694,2.0439544,11.47927156,6.458721584,crawl
27/03/2021, 15:33:22,-2.2561085,-6.327642,7.680828,6.0988765,0.58398694,2.0439544,10.20412655,6.458721584,crawl
27/03/2021, 15:33:22,-2.2561085,-6.327642,7.680828,5.954712,0.49113548,1.819156,10.20412655,6.245729483,crawl
27/03/2021, 15:33:22,-1.8034497,-5.848638,7.398216,5.954712,0.49113548,1.819156,9.601697492,6.245729483,crawl
27/03/2021, 15:33:22,-1.8034497,-5.848638,7.398216,5.683488,0.70860344,1.6762136,9.601697492,5.967733704,crawl
27/03/2021, 15:33:22,-0.51732427,-4.267925,7.173084,5.683488,0.70860344,1.6762136,8.362770912,5.967733704,crawl
27/03/2021, 15:33:23,-11.512859,-0.79754156,-0.847837,-2.5741851,2.9700258,-1.7910563,11.57155263,4.319185664,crawl
27/03/2021, 15:33:23,-11.819422,-1.1232642,-0.87178713,-2.5741851,2.9700258,-1.7910563,11.90464053,4.319185664,crawl
27/03/2021, 15:33:23,-11.819422,-1.1232642,-0.87178713,-2.5277593,2.8747308,-1.6407834,11.90464053,4.164830696,crawl
27/03/2021, 15:33:23,-11.115286,0.25387207,-0.9963282,-2.5277593,2.8747308,-1.6407834,11.16273716,4.164830696,crawl
27/03/2021, 15:33:23,-11.115286,0.25387207,-0.9963282,-2.4886642,2.6804757,-1.7385218,11.16273716,4.049797204,crawl
27/03/2021, 15:33:23,-11.254197,0.8885523,-0.6945557,-2.4886642,2.6804757,-1.7385218,11.31056522,4.049797204,crawl
27/03/2021, 15:33:23,-11.254197,0.8885523,-0.6945557,-2.5912893,2.3017395,-2.004859,11.31056522,4.00402849,crawl
27/03/2021, 15:33:23,-11.6805105,0.70174074,0.5987549,-2.5912893,2.3017395,-2.004859,11.71687985,4.00402849,crawl
27/03/2021, 15:33:23,-11.6805105,0.70174074,0.5987549,-2.8136442,1.80083,-2.1942272,11.71687985,3.996775615,crawl
27/03/2021, 15:33:23,-12.169095,-0.86939216,3.2572267,-2.8136442,1.80083,-2.1942272,12.62744007,3.996775615,crawl
27/03/2021, 15:33:23,-12.169095,-0.86939216,3.2572267,-2.801427,1.420872,-2.1759012,12.62744007,3.821179882,crawl
27/03/2021, 15:33:23,-12.044554,-3.168611,5.5492606,-2.801427,1.420872,-2.1759012,13.63472275,3.821179882,crawl
27/03/2021, 15:33:23,-12.044554,-3.168611,5.5492606,-2.8906133,1.5198321,-1.9718722,13.63472275,3.814946275,crawl
27/03/2021, 15:33:23,-10.688972,-4.9409256,6.7300053,-2.8906133,1.5198321,-1.9718722,13.56317991,3.814946275,crawl
27/03/2021, 15:33:23,-10.688972,-4.9409256,6.7300053,-2.883283,2.0573933,-1.7189741,13.56317991,3.937138495,crawl
27/03/2021, 15:33:23,-8.986114,-5.012776,6.5360084,-2.883283,2.0573933,-1.7189741,12.19006006,3.937138495,crawl
27/03/2021, 15:33:23,-8.986114,-5.012776,6.5360084,-2.4385731,2.6853626,-1.5784752,12.19006006,3.955931637,crawl
27/03/2021, 15:33:23,-7.9873905,-4.6104126,5.0439115,-2.4385731,2.6853626,-1.5784752,10.51167705,3.955931637,crawl
27/03/2021, 15:33:23,-7.9873905,-4.6104126,5.0439115,-1.9352204,2.9578085,-1.8362602,10.51167705,3.983159607,crawl
27/03/2021, 15:33:23,-8.090376,-4.0595584,3.283572,-1.9352204,2.9578085,-1.8362602,9.628916935,3.983159607,crawl
27/03/2021, 15:33:24,3.9589674,-8.131092,4.720584,2.846631,-0.28344136,0.5461133,10.20156821,2.912367953,crawl
27/03/2021, 15:33:24,3.6763551,-8.425679,5.388794,2.846631,-0.28344136,0.5461133,10.65583208,2.912367953,crawl
27/03/2021, 15:33:24,3.6763551,-8.425679,5.388794,3.4171789,-0.20280719,0.9920448,10.65583208,3.564041958,crawl
27/03/2021, 15:33:24,4.258345,-8.612491,7.046148,3.4171789,-0.20280719,0.9920448,11.91455822,3.564041958,crawl
27/03/2021, 15:33:24,4.258345,-8.612491,7.046148,4.1783166,0.051312663,1.2156214,11.91455822,4.351861419,crawl
27/03/2021, 15:33:24,3.9733377,-9.196876,7.189849,4.1783166,0.051312663,1.2156214,12.33141758,4.351861419,crawl
27/03/2021, 15:33:24,3.9733377,-9.196876,7.189849,5.0164237,0.27122405,1.2412777,12.33141758,5.174827491,crawl
27/03/2021, 15:33:24,3.3362625,-9.73815,6.473738,5.0164237,0.27122405,1.2412777,12.16024226,5.174827491,crawl
27/03/2021, 15:33:24,3.3362625,-9.73815,6.473738,5.43059,0.32253674,1.2180648,12.16024226,5.574856157,crawl
27/03/2021, 15:33:24,2.8261232,-9.182506,5.8175025,5.43059,0.32253674,1.2180648,11.23159459,5.574856157,crawl
27/03/2021, 15:33:24,2.8261232,-9.182506,5.8175025,5.5955234,0.3750711,1.1386523,11.23159459,5.722507239,crawl
27/03/2021, 15:33:24,2.5267458,-8.064031,5.589976,5.5955234,0.3750711,1.1386523,10.13216978,5.722507239,crawl
27/03/2021, 15:33:24,2.5267458,-8.064031,5.589976,5.5051155,0.48747027,1.0824528,10.13216978,5.631662991,crawl
27/03/2021, 15:33:24,2.2297633,-8.011341,5.8438478,5.5051155,0.48747027,1.0824528,10.16385689,5.631662991,crawl
27/03/2021, 15:33:24,2.2297633,-8.011341,5.8438478,5.4867897,0.67072976,1.3707811,10.16385689,5.695066319,crawl
27/03/2021, 15:33:24,1.9687061,-7.676038,6.854546,5.4867897,0.67072976,1.3707811,10.47769831,5.695066319,crawl
27/03/2021, 15:33:24,1.9687061,-7.676038,6.854546,5.660275,0.764803,1.6835439,10.47769831,5.954658397,crawl
27/03/2021, 15:33:24,2.5578809,-6.7467704,6.464158,5.660275,0.764803,1.6835439,9.687466365,5.954658397,crawl
27/03/2021, 15:33:24,2.5578809,-6.7467704,6.464158,5.696927,0.9040802,1.7519609,9.687466365,6.028408246,crawl
27/03/2021, 15:33:24,2.8476784,-5.630691,6.1504107,5.696927,0.9040802,1.7519609,8.811441727,6.028408246,crawl
27/03/2021, 15:33:25,-12.662469,-3.796106,4.0571632,-0.719599,3.3108883,-0.6817254,13.82783837,3.456089337,crawl
27/03/2021, 15:33:25,-15.811919,-2.1650977,1.7938697,-0.719599,3.3108883,-0.6817254,16.05996282,3.456089337,crawl
27/03/2021, 15:33:25,-15.811919,-2.1650977,1.7938697,-1.1484262,2.9492562,-0.58398694,16.05996282,3.218390195,crawl
27/03/2021, 15:33:25,-15.158079,-0.43589357,2.6081765,-1.1484262,2.9492562,-0.58398694,15.38700592,3.218390195,crawl
27/03/2021, 15:33:25,-15.158079,-0.43589357,2.6081765,-1.393994,2.9040523,-0.38728842,15.38700592,3.244492416,crawl
27/03/2021, 15:33:25,-11.749967,0.36164796,3.551814,-1.393994,2.9040523,-0.38728842,12.28038632,3.244492416,crawl
27/03/2021, 15:33:25,-11.749967,0.36164796,3.551814,-1.3231336,2.8796177,-0.49113548,12.28038632,3.206882379,crawl
27/03/2021, 15:33:25,-9.850716,-0.7089258,2.1028273,-1.3231336,2.8796177,-0.49113548,10.09757679,3.206882379,crawl
27/03/2021, 15:33:25,-9.850716,-0.7089258,2.1028273,-1.4330894,2.891835,-0.81122875,10.09757679,3.327844162,crawl
27/03/2021, 15:33:25,-9.278306,-2.7422974,4.478687,-1.4330894,2.891835,-0.81122875,10.66141609,3.327844162,crawl
27/03/2021, 15:33:25,-9.278306,-2.7422974,4.478687,-1.6835439,3.104416,-0.9248496,10.66141609,3.65062529,crawl
27/03/2021, 15:33:25,-11.673326,-3.7985013,5.597161,-1.6835439,3.104416,-0.9248496,13.49160295,3.65062529,crawl
27/03/2021, 15:33:25,-11.673326,-3.7985013,5.597161,-1.8313733,3.2559104,-0.67439497,13.49160295,3.796009664,crawl
27/03/2021, 15:33:25,-14.334192,-4.25595,4.4619217,-1.8313733,3.2559104,-0.67439497,15.6041957,3.796009664,crawl
27/03/2021, 15:33:25,-14.334192,-4.25595,4.4619217,-1.7238611,3.4196224,-0.08307764,15.6041957,3.830459044,crawl
27/03/2021, 15:33:25,-13.840818,-2.1004322,3.0105398,-1.7238611,3.4196224,-0.08307764,14.31933724,3.830459044,crawl
27/03/2021, 15:33:25,-13.840818,-2.1004322,3.0105398,-1.4037678,3.3292143,0.28344136,14.31933724,3.624164896,crawl
27/03/2021, 15:33:25,-12.329561,-0.6346802,4.28948,-1.4037678,3.3292143,0.28344136,13.06983319,3.624164896,crawl
27/03/2021, 15:33:25,-12.329561,-0.6346802,4.28948,-0.8979716,3.0897553,0.24068081,13.06983319,3.22658767,crawl
27/03/2021, 15:33:25,-11.481724,0.09580079,4.502637,-0.8979716,3.0897553,0.24068081,12.33340578,3.22658767,crawl
27/03/2021, 15:33:26,-2.9458742,-10.849439,-4.409231,0.123394735,0.44104454,-1.6261227,12.07600157,1.689384984,crawl
27/03/2021, 15:33:26,-2.5195606,-10.803933,-3.3673975,0.123394735,0.44104454,-1.6261227,11.59364149,1.689384984,crawl
27/03/2021, 15:33:26,-2.5195606,-10.803933,-3.3673975,-0.26633716,0.45448357,-1.425759,11.59364149,1.519960329,crawl
27/03/2021, 15:33:26,-2.1674929,-10.657837,-2.1028273,-0.26633716,0.45448357,-1.425759,11.07742731,1.519960329,crawl
27/03/2021, 15:33:26,-2.1674929,-10.657837,-2.1028273,-0.35552344,0.31642807,-1.3084729,11.07742731,1.392345105,crawl
27/03/2021, 15:33:26,-1.463357,-10.87818,-0.7759864,-0.35552344,0.31642807,-1.3084729,11.00356119,1.392345105,crawl
27/03/2021, 15:33:26,-1.463357,-10.87818,-0.7759864,-0.07696899,0.21502449,-1.317025,11.00356119,1.33668039,crawl
27/03/2021, 15:33:26,-0.45984375,-11.304493,0.58677983,-0.07696899,0.21502449,-1.317025,11.32904796,1.33668039,crawl
27/03/2021, 15:33:26,-0.45984375,-11.304493,0.58677983,0.4593705,0.25778502,-1.3915505,11.32904796,1.487913733,crawl
27/03/2021, 15:33:26,0.25147706,-11.740386,1.0729688,0.4593705,0.25778502,-1.3915505,11.79199587,1.487913733,crawl
27/03/2021, 15:33:26,0.25147706,-11.740386,1.0729688,1.0885614,0.3946188,-1.4929541,11.79199587,1.88933904,crawl
27/03/2021, 15:33:26,0.6322852,-11.670931,1.1759547,1.0885614,0.3946188,-1.4929541,11.74705415,1.88933904,crawl
27/03/2021, 15:33:26,0.6322852,-11.670931,1.1759547,1.7373,0.42516205,-1.5906925,11.74705415,2.393590793,crawl
27/03/2021, 15:33:26,0.49576905,-11.261382,1.0849439,1.7373,0.42516205,-1.5906925,11.32438153,2.393590793,crawl
27/03/2021, 15:33:26,0.49576905,-11.261382,1.0849439,2.331061,0.443488,-1.6493355,11.32438153,2.889780972,crawl
27/03/2021, 15:33:26,0.4766089,-10.950029,1.3939015,2.331061,0.443488,-1.6493355,11.04867687,2.889780972,crawl
27/03/2021, 15:33:26,0.4766089,-10.950029,1.3939015,2.7183492,0.47891816,-1.6249009,11.04867687,3.202981133,crawl
27/03/2021, 15:33:26,0.70174074,-10.722503,1.1520045,2.7183492,0.47891816,-1.6249009,10.80701711,3.202981133,crawl
27/03/2021, 15:33:26,0.70174074,-10.722503,1.1520045,2.8307486,0.4263838,-1.6077967,10.80701711,3.283283519,crawl
27/03/2021, 15:33:26,0.9316626,-10.116563,1.0154883,2.8307486,0.4263838,-1.6077967,10.20999782,3.283283519,crawl
27/03/2021, 15:33:27,-9.405242,2.9985645,-0.09340577,-1.3414595,2.3958125,-2.0659454,9.872116796,3.436213258,crawl
27/03/2021, 15:33:27,-10.957214,1.0035132,0.59156984,-1.3414595,2.3958125,-2.0659454,11.01896275,3.436213258,crawl
27/03/2021, 15:33:27,-10.957214,1.0035132,0.59156984,-1.4782933,2.2565353,-1.7348566,11.01896275,3.207340026,crawl
27/03/2021, 15:33:27,-10.454261,0.61073,1.9423609,-1.4782933,2.2565353,-1.7348566,10.65069605,3.207340026,crawl
27/03/2021, 15:33:27,-10.454261,0.61073,1.9423609,-1.2070693,2.4068081,-1.4318676,10.65069605,3.049587919,crawl
27/03/2021, 15:33:27,-9.273516,1.4873072,2.0046315,-1.2070693,2.4068081,-1.4318676,9.603578691,3.049587919,crawl
27/03/2021, 15:33:27,-9.273516,1.4873072,2.0046315,-0.77579856,2.4654512,-1.4110981,9.603578691,2.944742966,crawl
27/03/2021, 15:33:27,-9.414823,2.5123756,0.69695073,-0.77579856,2.4654512,-1.4110981,9.769168625,2.944742966,crawl
27/03/2021, 15:33:27,-9.414823,2.5123756,0.69695073,-0.70860344,2.3701563,-1.4135417,9.769168625,2.849185802,crawl
27/03/2021, 15:33:27,-10.073453,3.2668068,0.5029541,-0.70860344,2.3701563,-1.4135417,10.60186041,2.849185802,crawl
27/03/2021, 15:33:27,-10.073453,3.2668068,0.5029541,-0.95783633,2.4263558,-1.3964374,10.60186041,2.958832628,crawl
27/03/2021, 15:33:27,-10.073453,3.2668068,0.5029541,-1.2180648,2.692693,-1.5735883,10.60186041,3.348202111,crawl
27/03/2021, 15:33:27,-9.812395,4.387676,0.7592212,-1.2180648,2.692693,-1.5735883,10.77549131,3.348202111,crawl
27/03/2021, 15:33:27,-8.796907,5.142107,0.13172609,-1.2180648,2.692693,-1.5735883,10.19039727,3.348202111,crawl
27/03/2021, 15:33:27,-8.796907,5.142107,0.13172609,-1.5589275,2.9040523,-1.986533,10.19039727,3.84838773,crawl
27/03/2021, 15:33:27,-9.14179,4.471502,-1.6262183,-1.5589275,2.9040523,-1.986533,10.30588405,3.84838773,crawl
27/03/2021, 15:33:27,-9.14179,4.471502,-1.6262183,-1.8680252,2.778214,-2.1759012,10.30588405,3.992810654,crawl
27/03/2021, 15:33:27,-10.521321,3.056045,-1.8657203,-1.8680252,2.778214,-2.1759012,11.11388885,3.992810654,crawl
27/03/2021, 15:33:27,-10.521321,3.056045,-1.8657203,-1.9877547,2.6413803,-2.1135929,11.11388885,3.923688761,crawl
27/03/2021, 15:33:27,-11.120076,2.090852,-0.613125,-1.9877547,2.6413803,-2.1135929,11.3315347,3.923688761,crawl
27/03/2021, 15:33:28,-3.9733377,-12.478052,2.802173,3.3463185,-0.29443693,-1.7140872,13.39183969,3.771290972,crawl
27/03/2021, 15:33:28,-3.7170706,-11.543995,3.3697927,3.3463185,-0.29443693,-1.7140872,12.5871337,3.771290972,crawl
27/03/2021, 15:33:28,-3.7170706,-11.543995,3.3697927,3.864332,-0.5277874,-1.5467103,12.5871337,4.195704188,crawl
27/03/2021, 15:33:28,-1.2597803,-10.427916,1.7818946,3.864332,-0.5277874,-1.5467103,10.65380767,4.195704188,crawl
27/03/2021, 15:33:28,-1.2597803,-10.427916,1.7818946,3.769037,-0.87353694,-1.9718722,10.65380767,4.342463215,crawl
27/03/2021, 15:33:28,0.6490503,-9.627979,-1.5160475,3.769037,-0.87353694,-1.9718722,9.768195905,4.342463215,crawl
27/03/2021, 15:33:28,0.6490503,-9.627979,-1.5160475,3.0384426,-1.2131779,-2.4801118,9.768195905,4.105470606,crawl
27/03/2021, 15:33:28,1.8465601,-9.2256155,-2.186653,3.0384426,-1.2131779,-2.4801118,9.659359014,4.105470606,crawl
27/03/2021, 15:33:28,1.8465601,-9.2256155,-2.186653,2.2406528,-1.6310096,-2.6560411,9.659359014,3.838654944,crawl
27/03/2021, 15:33:28,2.1100123,-9.340576,-2.323169,2.2406528,-1.6310096,-2.6560411,9.853711446,3.838654944,crawl
27/03/2021, 15:33:28,2.1100123,-9.340576,-2.323169,1.3316858,-1.8851295,-2.4006996,9.853711446,3.330234033,crawl
27/03/2021, 15:33:28,2.816543,-10.789563,-2.215393,1.3316858,-1.8851295,-2.4006996,11.36906131,3.330234033,crawl
27/03/2021, 15:33:28,2.816543,-10.789563,-2.215393,0.6279692,-1.9449942,-1.8448124,11.36906131,2.753303574,crawl
27/03/2021, 15:33:28,2.6704469,-11.397899,-3.1159205,0.6279692,-1.9449942,-1.8448124,12.11413808,2.753303574,crawl
27/03/2021, 15:33:28,2.6704469,-11.397899,-3.1159205,0.58520865,-1.8655818,-1.3316858,12.11413808,2.365639757,crawl
27/03/2021, 15:33:28,3.3578174,-11.158397,-2.8452833,0.58520865,-1.8655818,-1.3316858,11.9950153,2.365639757,crawl
27/03/2021, 15:33:28,3.3578174,-11.158397,-2.8452833,0.6756167,-1.6261227,-0.9737188,11.9950153,2.012178253,crawl
27/03/2021, 15:33:28,2.907554,-12.090059,-3.6284547,0.6756167,-1.6261227,-0.9737188,12.95334268,2.012178253,crawl
27/03/2021, 15:33:28,2.907554,-12.090059,-3.6284547,1.0311401,-1.2974772,-0.70615995,12.95334268,1.801487985,crawl
27/03/2021, 15:33:28,1.9064356,-12.2361555,-4.26074,1.0311401,-1.2974772,-0.70615995,13.09625527,1.801487985,crawl
27/03/2021, 15:33:29,-7.1611085,5.8989334,5.633086,-0.55222195,2.2345443,0.16859874,10.85405687,2.307934737,crawl
27/03/2021, 15:33:29,-7.7383084,6.2438164,5.7767873,-0.55222195,2.2345443,0.16859874,11.49947527,2.307934737,crawl
27/03/2021, 15:33:29,-7.7383084,6.2438164,5.7767873,-0.71837723,2.2809699,0.14294241,11.49947527,2.395688184,crawl
27/03/2021, 15:33:29,-7.8436894,6.782696,6.2917166,-0.71837723,2.2809699,0.14294241,12.12906111,2.395688184,crawl
27/03/2021, 15:33:29,-7.8436894,6.782696,6.2917166,-0.7538074,2.371378,0.11484262,12.12906111,2.490953195,crawl
27/03/2021, 15:33:29,-8.301138,6.332432,5.8677983,-0.7538074,2.371378,0.11484262,11.97662893,2.490953195,crawl
27/03/2021, 15:33:29,-8.301138,6.332432,5.8677983,-0.9871579,2.50699,0.1747074,11.97662893,2.70000037,crawl
27/03/2021, 15:33:29,-8.303533,6.473738,5.997129,-0.9871579,2.50699,0.1747074,12.11707455,2.70000037,crawl
27/03/2021, 15:33:29,-8.303533,6.473738,5.997129,-0.98227096,2.6389368,0.31642807,12.11707455,2.833543747,crawl
27/03/2021, 15:33:29,-8.234077,7.32397,6.262976,-0.98227096,2.6389368,0.31642807,12.67538703,2.833543747,crawl
27/03/2021, 15:33:29,-8.234077,7.32397,6.262976,-0.5949825,2.63405,0.3090977,12.67538703,2.718044225,crawl
27/03/2021, 15:33:29,-8.339458,6.864126,6.0019193,-0.5949825,2.63405,0.3090977,12.35661082,2.718044225,crawl
27/03/2021, 15:33:29,-8.339458,6.864126,6.0019193,-0.32375845,2.5228724,0.10018186,12.35661082,2.545533604,crawl
27/03/2021, 15:33:29,-8.471185,5.6594315,5.712122,-0.32375845,2.5228724,0.10018186,11.67983187,2.545533604,crawl
27/03/2021, 15:33:29,-8.471185,5.6594315,5.712122,-0.39584053,2.452012,-0.09162975,11.67983187,2.485447422,crawl
27/03/2021, 15:33:29,-8.823253,3.9948928,5.5636306,-0.39584053,2.452012,-0.09162975,11.16973329,2.485447422,crawl
27/03/2021, 15:33:29,-8.823253,3.9948928,5.5636306,-0.76235956,2.4568992,0.06230823,11.16973329,2.573213541,crawl
27/03/2021, 15:33:29,-9.352551,3.7458107,6.183941,-0.76235956,2.4568992,0.06230823,11.82127074,2.573213541,crawl
27/03/2021, 15:33:29,-9.352551,3.7458107,6.183941,-0.8197808,2.5314245,0.3652973,11.82127074,2.685813252,crawl
27/03/2021, 15:33:29,-9.208851,4.6942387,6.8856816,-0.8197808,2.5314245,0.3652973,12.41979961,2.685813252,crawl
27/03/2021, 15:33:30,-2.7758276,-7.4006104,-6.734795,0.054977853,1.869247,-2.9626954,10.38420527,3.503522593,crawl
27/03/2021, 15:33:30,-2.6488917,-7.168294,-6.706055,0.054977853,1.869247,-2.9626954,10.16721404,3.503522593,crawl
27/03/2021, 15:33:30,-2.6488917,-7.168294,-6.706055,-0.11850781,2.1331406,-2.9529214,10.16721404,3.644732844,crawl
27/03/2021, 15:33:30,-2.5315359,-6.830596,-6.854546,-0.11850781,2.1331406,-2.9529214,10.00252553,3.644732844,crawl
27/03/2021, 15:33:30,-2.5315359,-6.830596,-6.854546,-0.24312428,2.127032,-2.8674004,10.00252553,3.578457743,crawl
27/03/2021, 15:33:30,-2.5914114,-7.335945,-6.799461,-0.24312428,2.127032,-2.8674004,10.33267497,3.578457743,crawl
27/03/2021, 15:33:30,-2.5914114,-7.335945,-6.799461,-0.30665424,1.7996083,-2.7317884,10.33267497,3.285619406,crawl
27/03/2021, 15:33:30,-2.5147705,-8.210127,-6.8976564,-0.30665424,1.7996083,-2.7317884,11.0139874,3.285619406,crawl
27/03/2021, 15:33:30,-2.5147705,-8.210127,-6.8976564,-0.33231056,1.290147,-2.5998416,11.0139874,2.92131576,crawl
27/03/2021, 15:33:30,-2.4572902,-9.304651,-7.1395535,-0.33231056,1.290147,-2.5998416,11.98282249,2.92131576,crawl
27/03/2021, 15:33:30,-2.4572902,-9.304651,-7.1395535,-0.24923292,0.8210026,-2.4764469,11.98282249,2.620868445,crawl
27/03/2021, 15:33:30,-2.2297633,-10.380015,-6.4066777,-0.24923292,0.8210026,-2.4764469,12.40008398,2.620868445,crawl
27/03/2021, 15:33:30,-2.2297633,-10.380015,-6.4066777,0.109955706,0.5326743,-2.3994777,12.40008398,2.460350689,crawl
27/03/2021, 15:33:30,-1.7723145,-11.407478,-4.974456,0.109955706,0.5326743,-2.3994777,12.57047619,2.460350689,crawl
27/03/2021, 15:33:30,-1.7723145,-11.407478,-4.974456,0.7452553,0.48624855,-2.4788902,12.57047619,2.633769092,crawl
27/03/2021, 15:33:30,-1.4178516,-12.003839,-3.791316,0.7452553,0.48624855,-2.4788902,12.66793274,2.633769092,crawl
27/03/2021, 15:33:30,-1.4178516,-12.003839,-3.791316,1.5210539,0.533896,-2.642602,12.66793274,3.095479789,crawl
27/03/2021, 15:33:30,-1.0322535,-11.857742,-3.781736,1.5210539,0.533896,-2.642602,12.48892014,3.095479789,crawl
27/03/2021, 15:33:30,-1.0322535,-11.857742,-3.781736,2.230879,0.5925391,-2.7989836,12.48892014,3.627979192,crawl
27/03/2021, 15:33:30,-0.40715334,-10.581197,-4.375701,2.230879,0.5925391,-2.7989836,11.4574979,3.627979192,crawl
27/03/2021, 15:33:31,-2.794988,9.342972,4.6032276,-1.9364421,1.9816461,2.254092,10.78391321,3.571786655,crawl
27/03/2021, 15:33:31,-4.6846585,7.7862086,3.9877076,-1.9364421,1.9816461,2.254092,9.92335036,3.571786655,crawl
27/03/2021, 15:33:31,-4.6846585,7.7862086,3.9877076,-2.3225088,2.3689346,1.846034,9.92335036,3.796543189,crawl
27/03/2021, 15:33:31,-6.373147,5.599556,4.2032595,-2.3225088,2.3689346,1.846034,9.467809674,3.796543189,crawl
27/03/2021, 15:33:31,-6.373147,5.599556,4.2032595,-2.597398,2.4422383,1.7360784,9.467809674,3.965472583,crawl
27/03/2021, 15:33:31,-6.871311,4.0356083,4.014053,-2.597398,2.4422383,1.7360784,8.922649391,3.965472583,crawl
27/03/2021, 15:33:31,-6.871311,4.0356083,4.014053,-2.6145022,2.2003357,1.7482957,8.922649391,3.838441977,crawl
27/03/2021, 15:33:31,-6.4018874,3.1398706,3.3242872,-2.6145022,2.2003357,1.7482957,7.867263526,3.838441977,crawl
27/03/2021, 15:33:31,-6.4018874,3.1398706,3.3242872,-2.172236,1.7409652,1.5320494,7.867263526,3.17753749,crawl
27/03/2021, 15:33:31,-5.2594633,2.42855,2.543511,-2.172236,1.7409652,1.5320494,6.326867883,3.17753749,crawl
27/03/2021, 15:33:31,-5.2594633,2.42855,2.543511,-1.5149453,1.2620472,1.1862998,6.326867883,2.301114827,crawl
27/03/2021, 15:33:31,-5.151687,1.2022998,2.5938063,-1.5149453,1.2620472,1.1862998,5.891793978,2.301114827,crawl
27/03/2021, 15:33:31,-5.151687,1.2022998,2.5938063,-0.9395104,0.93340176,1.1716391,5.891793978,1.768235504,crawl
27/03/2021, 15:33:31,-5.846243,0.63707525,3.0344899,-0.9395104,0.93340176,1.1716391,6.617593954,1.768235504,crawl
27/03/2021, 15:33:31,-5.846243,0.63707525,3.0344899,-0.7367032,0.9199627,1.5650362,6.617593954,1.959183821,crawl
27/03/2021, 15:33:31,-6.5288234,1.3555812,3.7314405,-0.7367032,0.9199627,1.5650362,7.641124492,1.959183821,crawl
27/03/2021, 15:33:31,-6.5288234,1.3555812,3.7314405,-0.6462952,1.0800093,2.0341804,7.641124492,2.392071813,crawl
27/03/2021, 15:33:31,-5.7911572,4.014053,4.608018,-0.6462952,1.0800093,2.0341804,8.419260765,2.392071813,crawl
27/03/2021, 15:33:31,-5.7911572,4.014053,4.608018,-0.38973188,1.117883,2.1111495,8.419260765,2.420435021,crawl
27/03/2021, 15:33:31,-5.4822,5.5588408,4.394861,-0.38973188,1.117883,2.1111495,8.959354558,2.420435021,crawl
27/03/2021, 15:33:32,-6.6437845,1.2837305,-5.1468973,-1.4477501,0.7134903,-2.7953184,8.501669764,3.227824888,crawl
27/03/2021, 15:33:32,-6.976692,0.53169435,-5.137317,-1.4477501,0.7134903,-2.7953184,8.680377915,3.227824888,crawl
27/03/2021, 15:33:32,-6.976692,0.53169435,-5.137317,-1.6358964,0.50335276,-2.7672186,8.680377915,3.253770106,crawl
27/03/2021, 15:33:32,-6.912027,0.011975098,-4.6199927,-1.6358964,0.50335276,-2.7672186,8.313879472,3.253770106,crawl
27/03/2021, 15:33:32,-6.912027,0.011975098,-4.6199927,-1.7715086,0.30054557,-2.7342317,8.313879472,3.27178748,crawl
27/03/2021, 15:33:32,-6.437813,-0.17483643,-4.5888577,-1.7715086,0.30054557,-2.7342317,7.907819929,3.27178748,crawl
27/03/2021, 15:33:32,-6.437813,-0.17483643,-4.5888577,-1.9804244,0.1624901,-2.701245,7.907819929,3.353387657,crawl
27/03/2021, 15:33:32,-5.9875493,0.15088624,-4.3445654,-1.9804244,0.1624901,-2.701245,7.399240622,3.353387657,crawl
27/03/2021, 15:33:32,-5.9875493,0.15088624,-4.3445654,-2.2259922,0.116064355,-2.6853626,7.399240622,3.489940457,crawl
27/03/2021, 15:33:32,-6.253396,0.17483643,-4.143384,-2.2259922,0.116064355,-2.6853626,7.503543199,3.489940457,crawl
27/03/2021, 15:33:32,-6.253396,0.17483643,-4.143384,-2.4581208,0.09162975,-2.5827372,7.503543199,3.56669111,crawl
27/03/2021, 15:33:32,-6.4090724,0.045505375,-4.169729,-2.4581208,0.09162975,-2.5827372,7.646235782,3.56669111,crawl
27/03/2021, 15:33:32,-6.4090724,0.045505375,-4.169729,-2.679254,0.03909536,-2.4178038,7.646235782,3.609114266,crawl
27/03/2021, 15:33:32,-6.5336137,-0.2778223,-4.2128396,-2.679254,0.03909536,-2.4178038,7.779030177,3.609114266,crawl
27/03/2021, 15:33:32,-6.5336137,-0.2778223,-4.2128396,-2.805092,-0.06841688,-2.3041828,7.779030177,3.630768619,crawl
27/03/2021, 15:33:32,-6.461763,-0.37601808,-4.2990603,-2.805092,-0.06841688,-2.3041828,7.770308185,3.630768619,crawl
27/03/2021, 15:33:32,-6.461763,-0.37601808,-4.2990603,-2.873509,-0.1869247,-2.3151784,7.770308185,3.694867442,crawl
27/03/2021, 15:33:32,-6.1599903,-0.40715334,-4.608018,-2.873509,-0.1869247,-2.3151784,7.703576029,3.694867442,crawl
27/03/2021, 15:33:32,-6.1599903,-0.40715334,-4.608018,-2.9345956,-0.2553416,-2.411695,7.703576029,3.807009767,crawl
27/03/2021, 15:33:32,-5.949229,-0.5939649,-4.766089,-2.9345956,-0.2553416,-2.411695,7.646026494,3.807009767,crawl
27/03/2021, 15:33:33,0.977168,-8.111932,6.67971,-0.22968525,-0.58643043,-0.21624622,10.55352166,0.66589668,crawl
27/03/2021, 15:33:33,0.977168,-8.111932,6.67971,-0.39339706,-0.5803218,0,10.55352166,0.701095306,crawl
27/03/2021, 15:33:33,0.5412744,-8.339458,7.175479,-0.39339706,-0.5803218,0,11.01485558,0.701095306,crawl
27/03/2021, 15:33:33,0.5412744,-8.339458,7.175479,-0.20036373,-0.53633946,0.14172068,11.01485558,0.58982234,crawl
27/03/2021, 15:33:33,-0.038320314,-9.067544,6.8114357,-0.20036373,-0.53633946,0.14172068,11.34096463,0.58982234,crawl
27/03/2021, 15:33:33,-0.038320314,-9.067544,6.8114357,0.2638937,-0.47891816,0.3176498,11.34096463,0.632379548,crawl
27/03/2021, 15:33:33,-0.27542725,-8.880733,6.72761,0.2638937,-0.47891816,0.3176498,11.14468521,0.632379548,crawl
27/03/2021, 15:33:33,-0.27542725,-8.880733,6.72761,1.0030403,-0.41172302,0.4960224,11.14468521,1.192327111,crawl
27/03/2021, 15:33:33,-0.09340577,-8.772957,6.488108,1.0030403,-0.41172302,0.4960224,10.91187628,1.192327111,crawl
27/03/2021, 15:33:33,-0.09340577,-8.772957,6.488108,1.7556261,-0.39706227,0.46425742,10.91187628,1.85887502,crawl
27/03/2021, 15:33:33,1.0801538,-7.8844047,5.2355127,1.7556261,-0.39706227,0.46425742,9.525815592,1.85887502,crawl
27/03/2021, 15:33:33,1.0801538,-7.8844047,5.2355127,2.0390675,-0.4764747,0.2553416,9.525815592,2.109507944,crawl
27/03/2021, 15:33:33,2.074087,-6.9240017,4.5385623,2.0390675,-0.4764747,0.2553416,8.534763246,2.109507944,crawl
27/03/2021, 15:33:33,2.074087,-6.9240017,4.5385623,2.0586152,-0.40072745,0.21013756,8.534763246,2.107756356,crawl
27/03/2021, 15:33:33,1.8657203,-6.468948,5.240303,2.0586152,-0.40072745,0.21013756,8.531645495,2.107756356,crawl
27/03/2021, 15:33:33,1.8657203,-6.468948,5.240303,2.2198834,-0.16371182,0.65606904,8.531645495,2.320584116,crawl
27/03/2021, 15:33:33,0.8286768,-6.0665846,5.6282964,2.2198834,-0.16371182,0.65606904,8.316722546,2.320584116,crawl
27/03/2021, 15:33:33,0.8286768,-6.0665846,5.6282964,2.7366753,0.16982047,1.3451247,8.316722546,3.054110509,crawl
27/03/2021, 15:33:33,0.42152345,-5.4534597,6.337222,2.7366753,0.16982047,1.3451247,8.371277626,3.054110509,crawl
27/03/2021, 15:33:33,0.42152345,-5.4534597,6.337222,3.3817487,0.33231056,1.665218,8.371277626,3.784125446,crawl
27/03/2021, 15:33:34,-9.721385,0.5628296,2.907554,-2.4923294,2.6645932,-1.0005969,10.1624787,3.783246857,crawl
27/03/2021, 15:33:34,-9.814791,-0.45984375,3.3099172,-2.4923294,2.6645932,-1.0005969,10.36808204,3.783246857,crawl
27/03/2021, 15:33:34,-9.814791,-0.45984375,3.3099172,-2.5644114,2.7036886,-1.0873398,10.36808204,3.881809597,crawl
27/03/2021, 15:33:34,-10.942844,-0.8861573,3.1542408,-2.5644114,2.7036886,-1.0873398,11.42279972,3.881809597,crawl
27/03/2021, 15:33:34,-10.942844,-0.8861573,3.1542408,-2.284635,2.4947727,-0.96272326,11.42279972,3.517141473,crawl
27/03/2021, 15:33:34,-12.604988,-1.6789087,2.802173,-2.284635,2.4947727,-0.96272326,13.02139134,3.517141473,crawl
27/03/2021, 15:33:34,-12.604988,-1.6789087,2.802173,-2.1942272,2.4581208,-0.7171555,13.02139134,3.372136282,crawl
27/03/2021, 15:33:34,-11.278148,-1.0370435,3.8368216,-2.1942272,2.4581208,-0.7171555,11.95797952,3.372136282,crawl
27/03/2021, 15:33:34,-11.278148,-1.0370435,3.8368216,-1.9193379,2.4825554,-0.8014549,11.95797952,3.238714108,crawl
27/03/2021, 15:33:34,-9.934542,-0.6322852,3.8487966,-1.9193379,2.4825554,-0.8014549,10.67277559,3.238714108,crawl
27/03/2021, 15:33:34,-9.934542,-0.6322852,3.8487966,-1.7715086,2.5130987,-1.0653486,10.67277559,3.254055237,crawl
27/03/2021, 15:33:34,-10.229129,-1.0274634,3.1901662,-1.7715086,2.5130987,-1.0653486,10.76419614,3.254055237,crawl
27/03/2021, 15:33:34,-10.229129,-1.0274634,3.1901662,-1.9376638,2.8124225,-1.1252134,10.76419614,3.595881886,crawl
27/03/2021, 15:33:34,-9.316627,-0.32572266,2.8883936,-1.9376638,2.8124225,-1.1252134,9.759530897,3.595881886,crawl
27/03/2021, 15:33:34,-9.316627,-0.32572266,2.8883936,-1.7825041,2.900387,-1.1728609,9.759530897,3.600717766,crawl
27/03/2021, 15:33:34,-10.36804,-0.47181886,1.4849122,-1.7825041,2.900387,-1.1728609,10.4844567,3.600717766,crawl
27/03/2021, 15:33:34,-10.36804,-0.47181886,1.4849122,-1.7434088,2.6218326,-0.99570996,10.4844567,3.302259649,crawl
27/03/2021, 15:33:34,-13.194163,-0.5891748,0.728086,-1.7434088,2.6218326,-0.99570996,13.22736489,3.302259649,crawl
27/03/2021, 15:33:34,-13.194163,-0.5891748,0.728086,-1.9914199,2.3530521,-0.8051201,13.22736489,3.186036099,crawl
27/03/2021, 15:33:34,-12.090059,2.2417383,2.8931837,-1.9914199,2.3530521,-0.8051201,12.63192131,3.186036099,crawl
27/03/2021, 15:33:35,-5.213958,-5.53489,-10.255474,2.498438,0.74281186,-2.1881185,12.76695398,3.403207853,crawl
27/03/2021, 15:33:35,-5.213958,-5.53489,-10.255474,2.6413803,0.53145254,-1.9975286,12.76695398,3.354020283,crawl
27/03/2021, 15:33:35,-4.6774735,-5.257068,-10.224339,2.6413803,0.53145254,-1.9975286,12.4117937,3.354020283,crawl
27/03/2021, 15:33:35,-4.6774735,-5.257068,-10.224339,2.7305665,0.14049895,-1.9657636,12.4117937,3.367485677,crawl
27/03/2021, 15:33:35,-4.1218286,-5.47262,-10.133328,2.7305665,0.14049895,-1.9657636,12.23206383,3.367485677,crawl
27/03/2021, 15:33:35,-4.1218286,-5.47262,-10.133328,2.6658149,-0.24190255,-2.0512848,12.23206383,3.372366393,crawl
27/03/2021, 15:33:35,-3.7218604,-6.0570045,-9.956097,2.6658149,-0.24190255,-2.0512848,12.2336997,3.372366393,crawl
27/03/2021, 15:33:35,-3.7218604,-6.0570045,-9.956097,2.4336863,-0.5424481,-2.1074843,12.2336997,3.264746389,crawl
27/03/2021, 15:33:35,-3.4751735,-6.330037,-9.429193,2.4336863,-0.5424481,-2.1074843,11.87669451,3.264746389,crawl
27/03/2021, 15:33:35,-3.4751735,-6.330037,-9.429193,2.2186618,-0.7171555,-2.0415108,11.87669451,3.099119001,crawl
27/03/2021, 15:33:35,-3.168611,-6.0593996,-8.56459,2.2186618,-0.7171555,-2.0415108,10.95940825,3.099119001,crawl
27/03/2021, 15:33:35,-3.168611,-6.0593996,-8.56459,2.1331406,-0.7770203,-1.8887947,10.95940825,2.953234573,crawl
27/03/2021, 15:33:35,-2.8596535,-6.191126,-7.5395217,2.1331406,-0.7770203,-1.8887947,10.16622078,2.953234573,crawl
27/03/2021, 15:33:35,-2.8596535,-6.191126,-7.5395217,2.0720541,-0.7318163,-1.7446305,10.16622078,2.805833014,crawl
27/03/2021, 15:33:35,-2.0405567,-6.349197,-7.0078273,2.0720541,-0.7318163,-1.7446305,9.673976232,2.805833014,crawl
27/03/2021, 15:33:35,-2.0405567,-6.349197,-7.0078273,1.9975286,-0.6120867,-1.6578877,9.673976232,2.66708869,crawl
27/03/2021, 15:33:35,-1.4753321,-6.318062,-6.444998,1.9975286,-0.6120867,-1.6578877,9.14508101,2.66708869,crawl
27/03/2021, 15:33:35,-1.4753321,-6.318062,-6.444998,1.9755374,-0.47891816,-1.6053532,9.14508101,2.590225804,crawl
27/03/2021, 15:33:35,-1.1472144,-6.2701616,-6.1935205,1.9755374,-0.47891816,-1.6053532,8.887672615,2.590225804,crawl
27/03/2021, 15:33:35,-1.1472144,-6.2701616,-6.1935205,1.8949033,-0.39217535,-1.5968012,8.887672615,2.508831197,crawl
27/03/2021, 15:33:36,-2.7327175,4.3469605,6.8665214,-0.09162975,0.51557004,1.4098765,8.573967959,1.503981426,crawl
27/03/2021, 15:33:36,-2.2632935,3.772156,6.4354177,-0.09162975,0.51557004,1.4098765,7.795271563,1.503981426,crawl
27/03/2021, 15:33:36,-2.2632935,3.772156,6.4354177,0.11972954,0.3457496,1.4685194,7.795271563,1.513415777,crawl
27/03/2021, 15:33:36,-2.1315675,3.8679566,5.9540186,0.11972954,0.3457496,1.4685194,7.413164363,1.513415777,crawl
27/03/2021, 15:33:36,-2.1315675,3.8679566,5.9540186,0.23579389,0.09407321,1.4905106,7.413164363,1.511975636,crawl
27/03/2021, 15:33:36,-1.7866846,4.3325906,5.5157304,0.23579389,0.09407321,1.4905106,7.237877088,1.511975636,crawl
27/03/2021, 15:33:36,-1.7866846,4.3325906,5.5157304,0.4349359,-0.15271625,1.4514153,7.237877088,1.522858451,crawl
27/03/2021, 15:33:36,-1.5447876,4.368516,5.8510327,0.4349359,-0.15271625,1.4514153,7.463570505,1.522858451,crawl
27/03/2021, 15:33:36,-1.5447876,4.368516,5.8510327,0.5742131,-0.26267195,1.3768897,7.463570505,1.51477473,crawl
27/03/2021, 15:33:36,-1.3124708,4.373306,5.743257,0.5742131,-0.26267195,1.3768897,7.337123733,1.51477473,crawl
27/03/2021, 15:33:36,-1.3124708,4.373306,5.743257,0.5827652,-0.17226394,1.3463465,7.337123733,1.477138808,crawl
27/03/2021, 15:33:36,-1.2621753,3.9469924,5.9061184,0.5827652,-0.17226394,1.3463465,7.214850657,1.477138808,crawl
27/03/2021, 15:33:36,-1.2621753,3.9469924,5.9061184,0.5827652,0.22113313,1.3610072,7.214850657,1.49694883,crawl
27/03/2021, 15:33:36,-0.87178713,3.539839,5.9133034,0.5827652,0.22113313,1.3610072,6.94677119,1.49694883,crawl
27/03/2021, 15:33:36,-0.87178713,3.539839,5.9133034,0.533896,0.7831289,1.393994,6.94677119,1.685691274,crawl
27/03/2021, 15:33:36,-0.73527104,3.1231055,6.5048733,0.533896,0.7831289,1.393994,7.253122635,1.685691274,crawl
27/03/2021, 15:33:36,-0.73527104,3.1231055,6.5048733,0.4520401,1.4917324,1.4220937,7.253122635,2.109965952,crawl
27/03/2021, 15:33:36,-0.84065187,2.5075855,6.615044,0.4520401,1.4917324,1.4220937,7.124148328,2.109965952,crawl
27/03/2021, 15:33:36,-0.84065187,2.5075855,6.615044,0.21380275,2.1429145,1.420872,7.124148328,2.580052612,crawl
27/03/2021, 15:33:36,-1.2382251,1.7315992,6.4905033,0.21380275,2.1429145,1.420872,6.830685944,2.580052612,crawl
27/03/2021, 15:33:37,-10.566827,0.22992188,-3.1302907,0.7037165,1.3035859,-1.4685194,11.02313083,2.085929642,crawl
27/03/2021, 15:33:37,-10.566827,0.22992188,-3.1302907,0.64140826,1.2205083,-1.4330894,11.02313083,1.988665462,crawl
27/03/2021, 15:33:37,-10.535691,0.098195806,-3.2045362,0.64140826,1.2205083,-1.4330894,11.01269654,1.988665462,crawl
27/03/2021, 15:33:37,-10.535691,0.098195806,-3.2045362,0.58520865,1.163087,-1.4599674,11.01269654,1.956206865,crawl
27/03/2021, 15:33:37,-10.207574,0.102985844,-3.4631984,0.58520865,1.163087,-1.4599674,10.77956002,1.956206865,crawl
27/03/2021, 15:33:37,-10.207574,0.102985844,-3.4631984,0.50335276,1.1410959,-1.5259408,10.77956002,1.970776257,crawl
27/03/2021, 15:33:37,-9.999207,-0.05748047,-3.5206788,0.50335276,1.1410959,-1.5259408,10.60106666,1.970776257,crawl
27/03/2021, 15:33:37,-9.999207,-0.05748047,-3.5206788,0.46425742,1.1459827,-1.5943577,10.60106666,2.017619381,crawl
27/03/2021, 15:33:37,-9.920172,-0.35925296,-3.5805542,0.46425742,1.1459827,-1.5943577,10.5526887,2.017619381,crawl
27/03/2021, 15:33:37,-9.920172,-0.35925296,-3.5805542,0.40805784,1.1374307,-1.6456703,10.5526887,2.041688136,crawl
27/03/2021, 15:33:37,-9.889036,-0.58677983,-4.2343946,0.40805784,1.1374307,-1.6456703,10.77346018,2.041688136,crawl
27/03/2021, 15:33:37,-9.889036,-0.58677983,-4.2343946,0.28344136,1.099557,-1.6578877,10.77346018,2.009466674,crawl
27/03/2021, 15:33:37,-10.145303,-0.8981324,-4.253555,0.28344136,1.099557,-1.6578877,11.037506,2.009466674,crawl
27/03/2021, 15:33:37,-10.145303,-0.8981324,-4.253555,0.19792026,1.0690137,-1.6493355,11.037506,1.975416502,crawl
27/03/2021, 15:33:37,-10.095008,-0.90771246,-4.3493557,0.19792026,1.0690137,-1.6493355,11.02950685,1.975416502,crawl
27/03/2021, 15:33:37,-10.095008,-0.90771246,-4.3493557,0.16493355,1.0421357,-1.6591094,11.02950685,1.966187624,crawl
27/03/2021, 15:33:37,-9.980047,-0.80712163,-4.3541455,0.16493355,1.0421357,-1.6591094,10.918396,1.966187624,crawl
27/03/2021, 15:33:37,-9.980047,-0.80712163,-4.3541455,0.108733974,1.0567964,-1.7201959,10.918396,2.021809999,crawl
27/03/2021, 15:33:37,-9.860296,-0.99393314,-4.718189,0.108733974,1.0567964,-1.7201959,10.9760945,2.021809999,crawl
27/03/2021, 15:33:37,-9.860296,-0.99393314,-4.718189,-0.00488692,1.0836746,-1.8142691,10.9760945,2.113278651,crawl
27/03/2021, 15:33:38,-2.7494826,-3.8392165,12.921131,5.189909,0.5815435,2.2382095,13.75699341,5.681806912,crawl
27/03/2021, 15:33:38,-2.7494826,-3.8392165,12.921131,4.6633434,0.60842156,2.3909256,13.75699341,5.275743946,crawl
27/03/2021, 15:33:38,-2.6656568,-2.787803,12.154725,4.6633434,0.60842156,2.3909256,12.75205525,5.275743946,crawl
27/03/2021, 15:33:38,-2.6656568,-2.787803,12.154725,4.168543,0.6145302,2.1563535,12.75205525,4.733313561,crawl
27/03/2021, 15:33:38,-1.947151,-2.215393,11.01709,4.168543,0.6145302,2.1563535,11.40507045,4.733313561,crawl
27/03/2021, 15:33:38,-1.947151,-2.215393,11.01709,3.6761856,0.5900956,1.7324132,11.40507045,4.106556808,crawl
27/03/2021, 15:33:38,-1.9734962,-2.799778,10.739268,3.6761856,0.5900956,1.7324132,11.27232574,4.106556808,crawl
27/03/2021, 15:33:38,-1.9734962,-2.799778,10.739268,3.2974494,0.5729914,1.538158,11.27232574,3.683398097,crawl
27/03/2021, 15:33:38,-2.2632935,-3.6500099,11.064991,3.2974494,0.5729914,1.538158,11.86924999,3.683398097,crawl
27/03/2021, 15:33:38,-2.2632935,-3.6500099,11.064991,3.0433295,0.57054794,1.6163489,11.86924999,3.492844529,crawl
27/03/2021, 15:33:38,-2.1243825,-3.9278321,11.563155,3.0433295,0.57054794,1.6163489,12.39545981,3.492844529,crawl
27/03/2021, 15:33:38,-2.1243825,-3.9278321,11.563155,2.9431477,0.5729914,1.6859875,12.39545981,3.439911483,crawl
27/03/2021, 15:33:38,-2.0525317,-3.9517825,11.795472,2.9431477,0.5729914,1.6859875,12.60803848,3.439911483,crawl
27/03/2021, 15:33:38,-2.0525317,-3.9517825,11.795472,2.86007,0.5619958,1.6908743,12.60803848,3.369702607,crawl
27/03/2021, 15:33:38,-2.1363575,-3.7194655,11.864927,2.86007,0.5619958,1.6908743,12.6164554,3.369702607,crawl
27/03/2021, 15:33:38,-2.1363575,-3.7194655,11.864927,2.651154,0.58398694,1.6407834,12.6164554,3.17203858,crawl
27/03/2021, 15:33:38,-2.2561085,-3.4464333,11.242222,2.651154,0.58398694,1.6407834,11.97311488,3.17203858,crawl
27/03/2021, 15:33:38,-2.2561085,-3.4464333,11.242222,2.262644,0.5265656,1.5638144,11.97311488,2.800418707,crawl
27/03/2021, 15:33:38,-2.2872438,-3.1374757,10.98835,2.262644,0.5265656,1.5638144,11.65414399,2.800418707,crawl
27/03/2021, 15:33:38,-2.2872438,-3.1374757,10.98835,1.8496993,0.3750711,1.420872,11.65414399,2.362401923,crawl
27/03/2021, 15:33:39,-6.241421,-2.430945,7.893985,-1.2486081,1.2486081,1.0641268,10.3527691,2.061652344,crawl
27/03/2021, 15:33:39,-6.334827,-2.5027955,7.8868,-1.2486081,1.2486081,1.0641268,10.42092265,2.061652344,crawl
27/03/2021, 15:33:39,-6.334827,-2.5027955,7.8868,-1.0763441,1.2559384,1.1325437,10.42092265,2.004632928,crawl
27/03/2021, 15:33:39,-6.358777,-2.8859987,7.8772197,-1.0763441,1.2559384,1.1325437,10.52680502,2.004632928,crawl
27/03/2021, 15:33:39,-6.358777,-2.8859987,7.8772197,-0.98227096,1.3048077,1.1960737,10.52680502,2.024344696,crawl
27/03/2021, 15:33:39,-6.133645,-2.7830129,7.5467067,-0.98227096,1.3048077,1.1960737,10.11531235,2.024344696,crawl
27/03/2021, 15:33:39,-6.133645,-2.7830129,7.5467067,-0.9724971,1.3610072,1.1704173,10.11531235,2.041560171,crawl
27/03/2021, 15:33:39,-6.183941,-2.7662477,7.2425394,-0.9724971,1.3610072,1.1704173,9.917037287,2.041560171,crawl
27/03/2021, 15:33:39,-6.183941,-2.7662477,7.2425394,-0.9859361,1.4196503,1.1166612,9.917037287,2.057768024,crawl
27/03/2021, 15:33:39,-6.5455885,-2.9698243,6.9383717,-0.9859361,1.4196503,1.1166612,9.990274593,2.057768024,crawl
27/03/2021, 15:33:39,-6.5455885,-2.9698243,6.9383717,-1.0506878,1.4355328,1.0629051,9.990274593,2.072309453,crawl
27/03/2021, 15:33:39,-7.038963,-3.2236965,6.8761015,-1.0506878,1.4355328,1.0629051,10.35470852,2.072309453,crawl
27/03/2021, 15:33:39,-7.038963,-3.2236965,6.8761015,-1.0922266,1.4367545,1.0665703,10.35470852,2.096376531,crawl
27/03/2021, 15:33:39,-7.647298,-3.3458424,6.5288234,-1.0922266,1.4367545,1.0665703,10.59723362,2.096376531,crawl
27/03/2021, 15:33:39,-7.647298,-3.3458424,6.5288234,-1.0482444,1.3988808,1.09467,10.59723362,2.062519423,crawl
27/03/2021, 15:33:39,-8.164622,-3.9254372,6.583909,-1.0482444,1.3988808,1.09467,11.1990166,2.062519423,crawl
27/03/2021, 15:33:39,-8.164622,-3.9254372,6.583909,-0.99815345,1.3390161,1.1191047,11.1990166,2.010390458,crawl
27/03/2021, 15:33:39,-8.602911,-3.6979103,6.600674,-0.99815345,1.3390161,1.1191047,11.45659275,2.010390458,crawl
27/03/2021, 15:33:39,-8.602911,-3.6979103,6.600674,-0.855211,1.2473863,1.1349872,11.45659275,1.89091369,crawl
27/03/2021, 15:33:39,-8.966953,-3.6452198,6.638994,-0.855211,1.2473863,1.1349872,11.73755182,1.89091369,crawl
27/03/2021, 15:33:40,-3.6140847,-2.3902297,3.5781593,-1.0836746,-3.6419773,-2.0402892,5.619433299,4.312902634,crawl
27/03/2021, 15:33:40,-3.68354,-2.8812087,3.7218604,-1.0836746,-3.6419773,-2.0402892,5.976794789,4.312902634,crawl
27/03/2021, 15:33:40,-3.68354,-2.8812087,3.7218604,-0.97860575,-3.338988,-2.0671673,5.976794789,4.047183105,crawl
27/03/2021, 15:33:40,-3.9661524,-3.647615,3.6188745,-0.97860575,-3.338988,-2.0671673,6.49089462,4.047183105,crawl
27/03/2021, 15:33:40,-3.9661524,-3.647615,3.6188745,-0.8466589,-3.108081,-2.0671673,6.49089462,3.827555353,crawl
27/03/2021, 15:33:40,-4.2128396,-4.2008643,3.6308498,-0.8466589,-3.108081,-2.0671673,6.969817004,3.827555353,crawl
27/03/2021, 15:33:40,-4.2128396,-4.2008643,3.6308498,-0.5742131,-2.9431477,-2.0415108,6.969817004,3.62761702,crawl
27/03/2021, 15:33:40,-4.423601,-4.615203,3.7050953,-0.5742131,-2.9431477,-2.0415108,7.388915759,3.62761702,crawl
27/03/2021, 15:33:40,-4.423601,-4.615203,3.7050953,-0.2724458,-2.8674004,-2.0561717,7.388915759,3.538933976,crawl
27/03/2021, 15:33:40,-4.232,-5.096602,3.4464333,-0.2724458,-2.8674004,-2.0561717,7.467467913,3.538933976,crawl
27/03/2021, 15:33:40,-4.232,-5.096602,3.4464333,-0.14049895,-2.7855444,-2.0305152,7.467467913,3.449926012,crawl
27/03/2021, 15:33:40,-3.9517825,-5.4989653,3.3626075,-0.14049895,-2.7855444,-2.0305152,7.560577536,3.449926012,crawl
27/03/2021, 15:33:40,-3.9517825,-5.4989653,3.3626075,-0.047647472,-2.6401587,-1.9547681,7.560577536,3.285395893,crawl
27/03/2021, 15:33:40,-3.652405,-5.3289185,3.755391,-0.047647472,-2.6401587,-1.9547681,7.472643111,3.285395893,crawl
27/03/2021, 15:33:40,-3.652405,-5.3289185,3.755391,0.122173004,-2.4275775,-1.850921,7.472643111,3.055154238,crawl
27/03/2021, 15:33:40,-3.403323,-4.9792457,3.408113,0.122173004,-2.4275775,-1.850921,6.927534093,3.055154238,crawl
27/03/2021, 15:33:40,-3.403323,-4.9792457,3.408113,0.33475402,-2.2394311,-1.8069386,6.927534093,2.896918945,crawl
27/03/2021, 15:33:40,-3.3793726,-4.533772,3.523074,0.33475402,-2.2394311,-1.8069386,6.66237926,2.896918945,crawl
27/03/2021, 15:33:40,-3.3793726,-4.533772,3.523074,0.48869202,-2.0708325,-1.7873911,6.66237926,2.778836792,crawl
27/03/2021, 15:33:40,-3.2811768,-4.382886,3.0895753,0.48869202,-2.0708325,-1.7873911,6.286595725,2.778836792,crawl
27/03/2021, 15:33:41,0.31374758,-5.8510327,6.4833183,0.122173004,-0.29565868,-0.6059781,8.738789284,0.685236981,crawl
27/03/2021, 15:33:41,0.63707525,-5.8270826,6.6102543,0.122173004,-0.29565868,-0.6059781,8.834943047,0.685236981,crawl
27/03/2021, 15:33:41,0.63707525,-5.8270826,6.6102543,0.03176498,-0.18448123,-0.5803218,8.834943047,0.609766937,crawl
27/03/2021, 15:33:41,0.8909473,-5.7935524,6.567144,0.03176498,-0.18448123,-0.5803218,8.80263686,0.609766937,crawl
27/03/2021, 15:33:41,0.8909473,-5.7935524,6.567144,-0.036651902,-0.07819072,-0.55344373,8.80263686,0.560140262,crawl
27/03/2021, 15:33:41,0.84065187,-5.815108,6.466553,-0.036651902,-0.07819072,-0.55344373,8.737189765,0.560140262,crawl
27/03/2021, 15:33:41,0.84065187,-5.815108,6.466553,-0.07086034,-0.00122173,-0.52045697,8.737189765,0.525260067,crawl
27/03/2021, 15:33:41,0.8167017,-5.8007374,6.4426026,-0.07086034,-0.00122173,-0.52045697,8.70762221,0.525260067,crawl
27/03/2021, 15:33:41,0.8167017,-5.8007374,6.4426026,-0.087964565,0.051312663,-0.49480066,8.70762221,0.505171698,crawl
27/03/2021, 15:33:41,0.8143067,-6.0091043,6.449788,-0.087964565,0.051312663,-0.49480066,8.852807223,0.505171698,crawl
27/03/2021, 15:33:41,0.8143067,-6.0091043,6.449788,-0.09285148,0.07941245,-0.48136163,8.852807223,0.496625364,crawl
27/03/2021, 15:33:41,0.7185059,-6.191126,6.488108,-0.09285148,0.07941245,-0.48136163,8.996768184,0.496625364,crawl
27/03/2021, 15:33:41,0.7185059,-6.191126,6.488108,-0.080634184,0.08429937,-0.47280952,8.996768184,0.486987783,crawl
27/03/2021, 15:33:41,0.5987549,-6.351592,6.488108,-0.080634184,0.08429937,-0.47280952,9.099273412,0.486987783,crawl
27/03/2021, 15:33:41,0.5987549,-6.351592,6.488108,-0.05619958,0.06475169,-0.46303567,9.099273412,0.470906794,crawl
27/03/2021, 15:33:41,0.51732427,-6.4330225,6.5000834,-0.05619958,0.06475169,-0.46303567,9.159830112,0.470906794,crawl
27/03/2021, 15:33:41,0.51732427,-6.4330225,6.5000834,-0.021991141,0.02809979,-0.43982282,9.159830112,0.44126786,crawl
27/03/2021, 15:33:41,0.45026368,-6.5216384,6.5551686,-0.021991141,0.02809979,-0.43982282,9.257685481,0.44126786,crawl
27/03/2021, 15:33:41,0.45026368,-6.5216384,6.5551686,0.03909536,-0.01588249,-0.40561438,9.257685481,0.407803535,crawl
27/03/2021, 15:33:41,0.46702883,-6.593489,6.6485744,0.03909536,-0.01588249,-0.40561438,9.375273664,0.407803535,crawl
27/03/2021, 15:33:42,3.05844,-4.311035,8.270002,1.5332712,-0.02076941,0.14294241,9.814887584,1.540059887,crawl
27/03/2021, 15:33:42,3.2332766,-4.253555,8.528665,1.5332712,-0.02076941,0.14294241,10.06404123,1.540059887,crawl
27/03/2021, 15:33:42,3.2332766,-4.253555,8.528665,1.5503753,-0.10629051,0.18203777,10.06404123,1.564640254,crawl
27/03/2021, 15:33:42,3.523074,-4.1793094,8.811277,1.5503753,-0.10629051,0.18203777,10.36905424,1.564640254,crawl
27/03/2021, 15:33:42,3.523074,-4.1793094,8.811277,1.6004664,-0.18081604,0.22113313,10.36905424,1.625757332,crawl
27/03/2021, 15:33:42,3.8320315,-4.1218286,8.976534,1.6004664,-0.18081604,0.22113313,10.594909,1.625757332,crawl
27/03/2021, 15:33:42,3.8320315,-4.1218286,8.976534,1.6847657,-0.22602005,0.28344136,10.594909,1.723328037,crawl
27/03/2021, 15:33:42,4.018843,-4.1002736,9.285491,1.6847657,-0.22602005,0.28344136,10.91712815,1.723328037,crawl
27/03/2021, 15:33:42,4.018843,-4.1002736,9.285491,1.8167125,-0.22235486,0.38117978,10.91712815,1.869541123,crawl
27/03/2021, 15:33:42,4.0595584,-4.2224197,9.604029,1.8167125,-0.22235486,0.38117978,11.24927598,1.869541123,crawl
27/03/2021, 15:33:42,4.0595584,-4.2224197,9.604029,1.9840896,-0.15515971,0.50335276,11.24927598,2.052815172,crawl
27/03/2021, 15:33:42,3.9637575,-4.253555,9.702225,1.9840896,-0.15515971,0.50335276,11.31093573,2.052815172,crawl
27/03/2021, 15:33:42,3.9637575,-4.253555,9.702225,2.163684,-0.054977853,0.61941713,11.31093573,2.251272557,crawl
27/03/2021, 15:33:42,3.779341,-4.2152348,9.721385,2.163684,-0.054977853,0.61941713,11.24975327,2.251272557,crawl
27/03/2021, 15:33:42,3.779341,-4.2152348,9.721385,2.3383913,0.04276055,0.69027746,11.24975327,2.438521134,crawl
27/03/2021, 15:33:42,3.5254688,-4.138594,9.649534,2.3383913,0.04276055,0.69027746,11.07566715,2.438521134,crawl
27/03/2021, 15:33:42,3.5254688,-4.138594,9.649534,2.4911075,0.116064355,0.70493823,11.07566715,2.591529518,crawl
27/03/2021, 15:33:42,3.300337,-3.9134622,9.508228,2.4911075,0.116064355,0.70493823,10.79878773,2.591529518,crawl
27/03/2021, 15:33:42,3.300337,-3.9134622,9.508228,2.5949545,0.15393798,0.68539053,10.79878773,2.688353751,crawl
27/03/2021, 15:33:42,2.9913795,-3.6739602,9.374106,2.5949545,0.15393798,0.68539053,10.5033426,2.688353751,crawl
27/03/2021, 15:33:43,0.26105714,3.891907,10.796748,-0.43737936,0.58520865,-0.41783166,11.47975878,0.841637196,crawl
27/03/2021, 15:33:43,0.6706055,4.038003,10.365645,-0.43737936,0.58520865,-0.41783166,11.14458543,0.841637196,crawl
27/03/2021, 15:33:43,0.6706055,4.038003,10.365645,-0.36041036,0.55100024,-0.4349359,11.14458543,0.789091963,crawl
27/03/2021, 15:33:43,1.0490186,3.8200562,9.963282,-0.36041036,0.55100024,-0.4349359,10.7219518,0.789091963,crawl
27/03/2021, 15:33:43,1.0490186,3.8200562,9.963282,-0.3127629,0.5241222,-0.43004897,10.7219518,0.746636993,crawl
27/03/2021, 15:33:43,1.3986914,3.4679885,9.616004,-0.3127629,0.5241222,-0.43004897,10.3175004,0.746636993,crawl
27/03/2021, 15:33:43,1.3986914,3.4679885,9.616004,-0.27488926,0.5009093,-0.4031709,10.3175004,0.699300398,crawl
27/03/2021, 15:33:43,1.6094532,3.283572,9.22801,-0.27488926,0.5009093,-0.4031709,9.926145085,0.699300398,crawl
27/03/2021, 15:33:43,1.6094532,3.283572,9.22801,-0.21746795,0.48624855,-0.36041036,9.926145085,0.643137305,crawl
27/03/2021, 15:33:43,1.695674,3.271597,8.875943,-0.21746795,0.48624855,-0.36041036,9.610464289,0.643137305,crawl
27/03/2021, 15:33:43,1.695674,3.271597,8.875943,-0.13683376,0.48747027,-0.31520635,9.610464289,0.59641075,crawl
27/03/2021, 15:33:43,1.6310084,3.300337,8.528665,-0.13683376,0.48747027,-0.31520635,9.289269769,0.59641075,crawl
27/03/2021, 15:33:43,1.6310084,3.300337,8.528665,-0.05986477,0.49968758,-0.2797762,9.289269769,0.575800473,crawl
27/03/2021, 15:33:43,1.3531861,3.5039136,8.358619,-0.05986477,0.49968758,-0.2797762,9.163789101,0.575800473,crawl
27/03/2021, 15:33:43,1.3531861,3.5039136,8.358619,0.0122173,0.5094614,-0.26022848,9.163789101,0.572205424,crawl
27/03/2021, 15:33:43,0.9148975,3.7290456,8.274793,0.0122173,0.5094614,-0.26022848,9.122226291,0.572205424,crawl
27/03/2021, 15:33:43,0.9148975,3.7290456,8.274793,0.12828165,0.49357894,-0.2651154,9.122226291,0.574771723,crawl
27/03/2021, 15:33:43,0.44547364,3.9398074,8.310719,0.12828165,0.49357894,-0.2651154,9.208071015,0.574771723,crawl
27/03/2021, 15:33:43,0.44547364,3.9398074,8.310719,0.2736675,0.45692703,-0.29199347,9.208071015,0.607401355,crawl
27/03/2021, 15:33:43,-0.031135255,4.030818,8.250843,0.2736675,0.45692703,-0.29199347,9.182857618,0.607401355,crawl
27/03/2021, 15:33:44,2.7351124,-9.536968,3.4464333,0.24068081,0.321315,-0.50701797,10.50297603,0.646713073,crawl
27/03/2021, 15:33:44,2.7494826,-9.527389,3.3554225,0.24068081,0.321315,-0.50701797,10.46850743,0.646713073,crawl
27/03/2021, 15:33:44,2.7494826,-9.527389,3.3554225,0.3298671,0.3139846,-0.5106832,10.46850743,0.684248449,crawl
27/03/2021, 15:33:44,2.684817,-9.505833,3.3673975,0.3298671,0.3139846,-0.5106832,10.4359218,0.684248449,crawl
27/03/2021, 15:33:44,2.684817,-9.505833,3.3673975,0.42882723,0.3090977,-0.5082397,10.4359218,0.733308776,crawl
27/03/2021, 15:33:44,2.7015822,-9.529783,3.3769777,0.42882723,0.3090977,-0.5082397,10.4651466,0.733308776,crawl
27/03/2021, 15:33:44,2.7015822,-9.529783,3.3769777,0.5082397,0.30787596,-0.50579625,10.4651466,0.780336489,crawl
27/03/2021, 15:33:44,2.6560767,-9.558523,3.3051271,0.5082397,0.30787596,-0.50579625,10.4567669,0.780336489,crawl
27/03/2021, 15:33:44,2.6560767,-9.558523,3.3051271,0.5644393,0.30665424,-0.51923525,10.4567669,0.825974451,crawl
27/03/2021, 15:33:44,2.6201515,-9.489068,3.3266823,0.5644393,0.30665424,-0.51923525,10.39107412,0.825974451,crawl
27/03/2021, 15:33:44,2.6201515,-9.489068,3.3266823,0.6304127,0.29932386,-0.5302308,10.39107412,0.876447182,crawl
27/03/2021, 15:33:44,2.5770411,-9.388477,3.4368532,0.6304127,0.29932386,-0.5302308,10.3245633,0.876447182,crawl
27/03/2021, 15:33:44,2.5770411,-9.388477,3.4368532,0.72448593,0.29321522,-0.53511775,10.3245633,0.947209603,crawl
27/03/2021, 15:33:44,2.5123756,-9.216036,3.5997145,0.72448593,0.29321522,-0.53511775,10.20809935,0.947209603,crawl
27/03/2021, 15:33:44,2.5123756,-9.216036,3.5997145,0.84177196,0.30298904,-0.5265656,10.20809935,1.038101022,crawl
27/03/2021, 15:33:44,2.4812403,-9.14658,3.6212697,0.84177196,0.30298904,-0.5265656,10.1454457,1.038101022,crawl
27/03/2021, 15:33:44,2.4812403,-9.14658,3.6212697,0.95783633,0.33108884,-0.5094614,10.1454457,1.13429325,crawl
27/03/2021, 15:33:44,2.454895,-9.06994,3.642825,0.95783633,0.33108884,-0.5094614,10.07772233,1.13429325,crawl
27/03/2021, 15:33:44,2.454895,-9.06994,3.642825,1.0335836,0.36041036,-0.4960224,10.07772233,1.20176079,crawl
27/03/2021, 15:33:44,2.430945,-9.079519,3.6140847,1.0335836,0.36041036,-0.4960224,10.07019224,1.20176079,crawl
27/03/2021, 15:33:45,0.23710695,-8.947793,3.0153298,1.1704173,-0.18814643,0.59131736,9.445180434,1.324738453,crawl
27/03/2021, 15:33:45,0.27303225,-8.804092,3.1494508,1.1704173,-0.18814643,0.59131736,9.354444395,1.324738453,crawl
27/03/2021, 15:33:45,0.27303225,-8.804092,3.1494508,1.091005,-0.15638144,0.56810445,9.354444395,1.239955506,crawl
27/03/2021, 15:33:45,0.24908204,-8.693921,3.2045362,1.091005,-0.15638144,0.56810445,9.269053783,1.239955506,crawl
27/03/2021, 15:33:45,0.24908204,-8.693921,3.2045362,0.99815345,-0.12583819,0.55222195,9.269053783,1.147647438,crawl
27/03/2021, 15:33:45,0.21555176,-8.705896,3.3506324,0.99815345,-0.12583819,0.55222195,9.33090735,1.147647438,crawl
27/03/2021, 15:33:45,0.21555176,-8.705896,3.3506324,0.89674985,-0.101403594,0.5400047,9.33090735,1.051688183,crawl
27/03/2021, 15:33:45,0.1580713,-8.62207,3.432063,0.89674985,-0.101403594,0.5400047,9.281386758,1.051688183,crawl
27/03/2021, 15:33:45,0.1580713,-8.62207,3.432063,0.8014549,-0.087964565,0.53145254,9.281386758,0.965665326,crawl
27/03/2021, 15:33:45,0.038320314,-8.634046,3.6045046,0.8014549,-0.087964565,0.53145254,9.35631686,0.965665326,crawl
27/03/2021, 15:33:45,0.038320314,-8.634046,3.6045046,0.7293728,-0.087964565,0.51801354,9.35631686,0.898921837,crawl
27/03/2021, 15:33:45,-0.011975098,-8.703502,3.8631666,0.7293728,-0.087964565,0.51801354,9.522349564,0.898921837,crawl
27/03/2021, 15:33:45,-0.011975098,-8.703502,3.8631666,0.6792819,-0.10018186,0.49724412,9.522349564,0.84776884,crawl
27/03/2021, 15:33:45,-0.117355965,-8.844808,4.006868,0.6792819,-0.10018186,0.49724412,9.710787022,0.84776884,crawl
27/03/2021, 15:33:45,-0.117355965,-8.844808,4.006868,0.6462952,-0.11239916,0.46914434,9.710787022,0.80649083,crawl
27/03/2021, 15:33:45,-0.14849122,-8.971744,4.0811133,0.6462952,-0.11239916,0.46914434,9.857470195,0.80649083,crawl
27/03/2021, 15:33:45,-0.14849122,-8.971744,4.0811133,0.6157519,-0.11484262,0.44226626,9.857470195,0.766771608,crawl
27/03/2021, 15:33:45,-0.17004639,-9.053174,4.0906935,0.6157519,-0.11484262,0.44226626,9.935927168,0.766771608,crawl
27/03/2021, 15:33:45,-0.17004639,-9.053174,4.0906935,0.6023129,-0.10751224,0.41294473,9.935927168,0.738148422,crawl
27/03/2021, 15:33:45,-0.16046631,-9.012459,4.1553593,0.6023129,-0.10751224,0.41294473,9.925581783,0.738148422,crawl
27/03/2021, 15:33:46,0.25866213,-4.5888577,7.1203933,-0.13805549,1.1081091,-0.9370669,8.47493487,1.457758392,crawl
27/03/2021, 15:33:46,0.23950197,-4.5768824,7.2353544,-0.13805549,1.1081091,-0.9370669,8.564786453,1.457758392,crawl
27/03/2021, 15:33:46,0.23950197,-4.5768824,7.2353544,-0.19058989,1.0409139,-0.8723152,8.564786453,1.371408106,crawl
27/03/2021, 15:33:46,0.28740236,-4.608018,7.29523,-0.19058989,1.0409139,-0.8723152,8.633470261,1.371408106,crawl
27/03/2021, 15:33:46,0.28740236,-4.608018,7.29523,-0.26022848,0.96272326,-0.8674283,8.633470261,1.321736279,crawl
27/03/2021, 15:33:46,0.4047583,-4.7253737,7.1491337,-0.26022848,0.96272326,-0.8674283,8.579224832,1.321736279,crawl
27/03/2021, 15:33:46,0.4047583,-4.7253737,7.1491337,-0.398284,0.89308465,-0.87598044,8.579224832,1.312848828,crawl
27/03/2021, 15:33:46,0.3879932,-5.0846267,7.117998,-0.398284,0.89308465,-0.87598044,8.75613296,1.312848828,crawl
27/03/2021, 15:33:46,0.3879932,-5.0846267,7.117998,-0.4801399,0.8344416,-0.8625414,8.75613296,1.292596128,crawl
27/03/2021, 15:33:46,0.39517823,-5.3073635,7.2688847,-0.4801399,0.8344416,-0.8625414,9.008937642,1.292596128,crawl
27/03/2021, 15:33:46,0.39517823,-5.3073635,7.2688847,-0.45570529,0.77457684,-0.8173374,9.008937642,1.214774468,crawl
27/03/2021, 15:33:46,0.42152345,-5.49178,7.3790555,-0.45570529,0.77457684,-0.8173374,9.208028427,1.214774468,crawl
27/03/2021, 15:33:46,0.42152345,-5.49178,7.3790555,-0.42149687,0.7318163,-0.7806855,9.208028427,1.150080223,crawl
27/03/2021, 15:33:46,0.4382886,-5.7959476,7.3527102,-0.42149687,0.7318163,-0.7806855,9.372697205,1.150080223,crawl
27/03/2021, 15:33:46,0.4382886,-5.7959476,7.3527102,-0.41294473,0.6988296,-0.7733551,9.372697205,1.121144193,crawl
27/03/2021, 15:33:46,0.5508545,-5.9037232,7.311995,-0.41294473,0.6988296,-0.7733551,9.413960914,1.121144193,crawl
27/03/2021, 15:33:46,0.5508545,-5.9037232,7.311995,-0.41416648,0.6597342,-0.8014549,9.413960914,1.117637255,crawl
27/03/2021, 15:33:46,0.39996827,-5.973179,7.302415,-0.41416648,0.6597342,-0.8014549,9.442674602,1.117637255,crawl
27/03/2021, 15:33:46,0.39996827,-5.973179,7.302415,-0.3995057,0.58398694,-0.82466775,9.442674602,1.086610534,crawl
27/03/2021, 15:33:46,0.34488282,-6.0498195,7.2593045,-0.3995057,0.58398694,-0.82466775,9.456043672,1.086610534,crawl
27/03/2021, 15:33:47,-2.3638844,4.0116577,9.1202345,2.5350897,2.7403405,0.5265656,10.24011838,3.770068592,crawl
27/03/2021, 15:33:47,-2.3638844,4.0116577,9.1202345,2.8979437,2.3677127,1.0054839,10.24011838,3.874937328,crawl
27/03/2021, 15:33:47,-3.1949563,4.373306,9.371712,2.8979437,2.3677127,1.0054839,10.82416418,3.874937328,crawl
27/03/2021, 15:33:47,-3.1949563,4.373306,9.371712,3.290119,1.9437724,1.3096945,10.82416418,4.039608103,crawl
27/03/2021, 15:33:47,-3.0033545,3.8392165,8.320298,3.290119,1.9437724,1.3096945,9.642981059,4.039608103,crawl
27/03/2021, 15:33:47,-3.0033545,3.8392165,8.320298,3.4110703,1.7385218,1.3524551,9.642981059,4.060417948,crawl
27/03/2021, 15:33:47,-3.027305,3.9398074,7.046148,3.4110703,1.7385218,1.3524551,8.621766437,4.060417948,crawl
27/03/2021, 15:33:47,-3.027305,3.9398074,7.046148,3.5051434,1.7983866,1.3658942,8.621766437,4.169639255,crawl
27/03/2021, 15:33:47,-3.5182838,4.423601,6.782696,3.5051434,1.7983866,1.3658942,8.829016381,4.169639255,crawl
27/03/2021, 15:33:47,-3.5182838,4.423601,6.782696,3.8398974,1.9987503,1.4892889,8.829016381,4.577968587,crawl
27/03/2021, 15:33:47,-3.6859353,5.261858,7.0054326,3.8398974,1.9987503,1.4892889,9.50522773,4.577968587,crawl
27/03/2021, 15:33:47,-3.6859353,5.261858,7.0054326,4.30782,2.0928235,1.6554441,9.50522773,5.067318556,crawl
27/03/2021, 15:33:47,-4.1793094,6.9862723,7.3886356,4.30782,2.0928235,1.6554441,10.99393308,5.067318556,crawl
27/03/2021, 15:33:47,-4.1793094,6.9862723,7.3886356,4.9944324,1.9523246,1.8496993,10.99393308,5.672505116,crawl
27/03/2021, 15:33:47,-3.3410523,9.520203,8.155042,4.9944324,1.9523246,1.8496993,12.97311041,5.672505116,crawl
27/03/2021, 15:33:47,-3.3410523,9.520203,8.155042,5.693262,1.9669853,1.7776172,12.97311041,6.280301558,crawl
27/03/2021, 15:33:47,-1.7842896,12.485237,8.195757,5.693262,1.9669853,1.7776172,15.0411192,6.280301558,crawl
27/03/2021, 15:33:47,-1.7842896,12.485237,8.195757,5.927834,2.1416926,1.2974772,15.0411192,6.435022214,crawl
27/03/2021, 15:33:47,-1.463357,14.446758,7.8197393,5.927834,2.1416926,1.2974772,16.49237889,6.435022214,crawl
27/03/2021, 15:33:47,-1.463357,14.446758,7.8197393,5.440364,2.2724178,0.96516675,16.49237889,5.974360939,crawl
27/03/2021, 15:33:48,-9.14658,-0.5628296,0.25147706,0.7843507,5.158144,0.31031942,9.167329975,5.226657981,crawl
27/03/2021, 15:33:48,-9.14658,-0.5628296,0.25147706,0.24190255,4.8417163,-0.1588249,9.167329975,4.850356566,crawl
27/03/2021, 15:33:48,-13.208533,-2.0142114,-0.17004639,0.24190255,4.8417163,-0.1588249,13.36230949,4.850356566,crawl
27/03/2021, 15:33:48,-13.208533,-2.0142114,-0.17004639,-0.47403124,4.4153323,-0.3176498,13.36230949,4.452051942,crawl
27/03/2021, 15:33:48,-14.391673,-3.3889527,2.7303224,-0.47403124,4.4153323,-0.3176498,15.03528899,4.452051942,crawl
27/03/2021, 15:33:48,-14.391673,-3.3889527,2.7303224,-0.4276055,3.9168665,-0.34330612,15.03528899,3.955066253,crawl
27/03/2021, 15:33:48,-13.759388,-2.8955786,2.318379,-0.4276055,3.9168665,-0.34330612,14.2506145,3.955066253,crawl
27/03/2021, 15:33:48,-13.759388,-2.8955786,2.318379,0.09896013,3.3096666,-0.40194917,14.2506145,3.335453412,crawl
27/03/2021, 15:33:48,-14.271922,-4.2008643,2.4812403,0.09896013,3.3096666,-0.40194917,15.08282384,3.335453412,crawl
27/03/2021, 15:33:48,-14.271922,-4.2008643,2.4812403,0.27611098,3.0946422,-0.2724458,15.08282384,3.118857819,crawl
27/03/2021, 15:33:48,-13.098362,-1.1064991,3.175796,0.27611098,3.0946422,-0.2724458,13.52320624,3.118857819,crawl
27/03/2021, 15:33:48,-13.098362,-1.1064991,3.175796,0.38117978,3.1826067,-0.16371182,13.52320624,3.209530335,crawl
27/03/2021, 15:33:48,-9.972861,2.5890162,1.2454102,0.38117978,3.1826067,-0.16371182,10.37843985,3.209530335,crawl
27/03/2021, 15:33:48,-9.972861,2.5890162,1.2454102,0.3298671,3.109303,-0.73792493,10.37843985,3.21264854,crawl
27/03/2021, 15:33:48,-9.177715,3.3650026,-0.043110352,0.3298671,3.109303,-0.73792493,9.775252394,3.21264854,crawl
27/03/2021, 15:33:48,-9.177715,3.3650026,-0.043110352,-0.06841688,2.9932384,-1.2559384,9.775252394,3.246773564,crawl
27/03/2021, 15:33:48,-9.060359,3.1949563,-0.74724615,-0.06841688,2.9932384,-1.2559384,9.636193637,3.246773564,crawl
27/03/2021, 15:33:48,-9.060359,3.1949563,-0.74724615,-0.6475169,2.9211564,-1.3206902,9.636193637,3.270574167,crawl
27/03/2021, 15:33:48,-11.199112,1.8489552,1.1735597,-0.6475169,2.9211564,-1.3206902,11.41122192,3.270574167,crawl
27/03/2021, 15:33:48,-11.199112,1.8489552,1.1735597,-0.5119049,2.7586663,-1.1105525,11.41122192,3.017550864,crawl
27/03/2021, 15:33:49,3.5997145,-5.709727,3.046465,3.4379482,-0.09896013,-0.963945,7.405394883,3.571900198,crawl
27/03/2021, 15:33:49,3.923042,-5.9707837,3.779341,3.4379482,-0.09896013,-0.963945,8.0823224,3.571900198,crawl
27/03/2021, 15:33:49,3.923042,-5.9707837,3.779341,3.076316,-0.05253439,-0.9920448,8.0823224,3.232743977,crawl
27/03/2021, 15:33:49,4.157754,-6.3060865,3.9948928,3.076316,-0.05253439,-0.9920448,8.5447536,3.232743977,crawl
27/03/2021, 15:33:49,4.157754,-6.3060865,3.9948928,2.7024667,-0.12828165,-0.89552814,8.5447536,2.849868986,crawl
27/03/2021, 15:33:49,3.8487966,-6.0114994,4.27032,2.7024667,-0.12828165,-0.89552814,8.317871891,2.849868986,crawl
27/03/2021, 15:33:49,3.8487966,-6.0114994,4.27032,2.4630077,-0.28710654,-0.7208207,8.317871891,2.582328321,crawl
27/03/2021, 15:33:49,4.4116263,-6.3875175,5.0678616,2.4630077,-0.28710654,-0.7208207,9.270709084,2.582328321,crawl
27/03/2021, 15:33:49,4.4116263,-6.3875175,5.0678616,2.3921473,-0.20525065,-0.52290046,9.270709084,2.457218232,crawl
27/03/2021, 15:33:49,4.976851,-7.1132083,5.015171,2.3921473,-0.20525065,-0.52290046,10.02590239,2.457218232,crawl
27/03/2021, 15:33:49,4.976851,-7.1132083,5.015171,2.3823736,-0.108733974,-0.37873632,10.02590239,2.41473976,crawl
27/03/2021, 15:33:49,5.489385,-7.335945,4.655918,2.3823736,-0.108733974,-0.37873632,10.27750036,2.41473976,crawl
27/03/2021, 15:33:49,5.489385,-7.335945,4.655918,2.3237305,-0.22846352,-0.41294473,10.27750036,2.371168957,crawl
27/03/2021, 15:33:49,5.0343313,-7.846084,4.9696655,2.3237305,-0.22846352,-0.41294473,10.564237,2.371168957,crawl
27/03/2021, 15:33:49,5.0343313,-7.846084,4.9696655,2.2699745,-0.4153882,-0.35185826,10.564237,2.334338382,crawl
27/03/2021, 15:33:49,4.4834766,-8.794512,6.1863356,2.2699745,-0.4153882,-0.35185826,11.64971022,2.334338382,crawl
27/03/2021, 15:33:49,4.4834766,-8.794512,6.1863356,2.4581208,-0.33597577,-0.13194685,11.64971022,2.484481368,crawl
27/03/2021, 15:33:49,4.497847,-9.455538,6.080955,2.4581208,-0.33597577,-0.13194685,12.10850269,2.484481368,crawl
27/03/2021, 15:33:49,4.497847,-9.455538,6.080955,2.8796177,-0.15515971,0.02076941,12.10850269,2.883869614,crawl
27/03/2021, 15:33:49,4.2248144,-9.841136,6.825806,2.8796177,-0.15515971,0.02076941,12.6999466,2.883869614,crawl
27/03/2021, 15:33:50,-11.02188,1.0370435,5.5732107,-2.1954489,3.2827885,-0.26878062,12.39427202,3.958401094,crawl
27/03/2021, 15:33:50,-13.196558,2.6608667,6.8976564,-2.1954489,3.2827885,-0.26878062,15.12636834,3.958401094,crawl
27/03/2021, 15:33:50,-13.196558,2.6608667,6.8976564,-1.8582513,3.4953697,-0.17959431,15.12636834,3.962696214,crawl
27/03/2021, 15:33:50,-13.898299,0.17962648,4.3373804,-1.8582513,3.4953697,-0.17959431,14.56048954,3.962696214,crawl
27/03/2021, 15:33:50,-13.898299,0.17962648,4.3373804,-1.4465283,3.1202984,-0.02687806,14.56048954,3.43939364,crawl
27/03/2021, 15:33:50,-15.601158,-1.5160475,3.163821,-1.4465283,3.1202984,-0.02687806,15.99075666,3.43939364,crawl
27/03/2021, 15:33:50,-15.601158,-1.5160475,3.163821,-1.5442667,2.2663093,0.6951644,15.99075666,2.829164334,crawl
27/03/2021, 15:33:50,-14.07553,3.0201197,5.000801,-1.5442667,2.2663093,0.6951644,15.23974017,2.829164334,crawl
27/03/2021, 15:33:50,-14.07553,3.0201197,5.000801,-1.7482957,1.4233155,0.53756124,15.23974017,2.317614485,crawl
27/03/2021, 15:33:50,-9.134604,4.3637257,3.6859353,-1.7482957,1.4233155,0.53756124,10.77354254,2.317614485,crawl
27/03/2021, 15:33:50,-9.134604,4.3637257,3.6859353,-2.9431477,1.534493,0.4276055,10.77354254,3.346585318,crawl
27/03/2021, 15:33:50,-8.772957,1.6549586,1.7986598,-2.9431477,1.534493,0.4276055,9.107076201,3.346585318,crawl
27/03/2021, 15:33:50,-8.772957,1.6549586,1.7986598,-3.5100303,2.1563535,1.1753043,9.107076201,4.283866592,crawl
27/03/2021, 15:33:50,-6.581514,5.9947343,7.9730206,-3.5100303,2.1563535,1.1753043,11.95082511,4.283866592,crawl
27/03/2021, 15:33:50,-6.581514,5.9947343,7.9730206,-2.1868968,2.7036886,1.6627746,11.95082511,3.854512813,crawl
27/03/2021, 15:33:50,-5.728887,4.9361353,6.7850904,-2.1868968,2.7036886,1.6627746,10.15987358,3.854512813,crawl
27/03/2021, 15:33:50,-5.728887,4.9361353,6.7850904,-1.3048077,3.0604336,2.0146327,10.15987358,3.889411516,crawl
27/03/2021, 15:33:50,-8.744217,1.7914747,6.2653713,-1.3048077,3.0604336,2.0146327,10.90530096,3.889411516,crawl
27/03/2021, 15:33:50,-8.744217,1.7914747,6.2653713,-1.728748,3.27668,2.0146327,10.90530096,4.217101637,crawl
27/03/2021, 15:33:50,-12.221786,1.6693287,6.119275,-1.728748,3.27668,2.0146327,13.7696851,4.217101637,crawl
27/03/2021, 15:33:51,2.7638526,-11.100916,-0.244292,2.0818279,0.00244346,-1.6077967,11.44241643,2.63040366,crawl
27/03/2021, 15:33:51,3.2141163,-11.371553,-0.2083667,2.0818279,0.00244346,-1.6077967,11.81889114,2.63040366,crawl
27/03/2021, 15:33:51,3.2141163,-11.371553,-0.2083667,2.0732758,0.05619958,-1.5467103,11.81889114,2.587265653,crawl
27/03/2021, 15:33:51,3.3889527,-11.433824,0.2778223,2.0732758,0.05619958,-1.5467103,11.92872615,2.587265653,crawl
27/03/2021, 15:33:51,3.3889527,-11.433824,0.2778223,2.267531,0.09407321,-1.5332712,11.92872615,2.738880572,crawl
27/03/2021, 15:33:51,3.6236646,-11.282937,1.5088624,2.267531,0.09407321,-1.5332712,11.94622448,2.738880572,crawl
27/03/2021, 15:33:51,3.6236646,-11.282937,1.5088624,2.6352715,0.16615528,-1.6175705,11.94622448,3.096578451,crawl
27/03/2021, 15:33:51,3.781736,-11.493699,2.560276,2.6352715,0.16615528,-1.6175705,12.3677669,3.096578451,crawl
27/03/2021, 15:33:51,3.781736,-11.493699,2.560276,2.9089391,0.20280719,-1.6749918,12.3677669,3.362834409,crawl
27/03/2021, 15:33:51,2.3662794,-12.099639,2.938689,2.9089391,0.20280719,-1.6749918,12.67424292,3.362834409,crawl
27/03/2021, 15:33:51,2.3662794,-12.099639,2.938689,3.1740546,0.19792026,-1.4648542,12.67424292,3.501370178,crawl
27/03/2021, 15:33:51,1.5567628,-12.595408,3.3410523,3.1740546,0.19792026,-1.4648542,13.12366011,3.501370178,crawl
27/03/2021, 15:33:51,1.5567628,-12.595408,3.3410523,3.4587176,0.1869247,-1.1887434,13.12366011,3.662073037,crawl
27/03/2021, 15:33:51,1.7651294,-12.193045,3.3434474,3.4587176,0.1869247,-1.1887434,12.76576128,3.662073037,crawl
27/03/2021, 15:33:51,1.7651294,-12.193045,3.3434474,3.6627467,0.07574726,-1.2302822,12.76576128,3.864588602,crawl
27/03/2021, 15:33:51,2.1363575,-11.481724,3.6931202,3.6627467,0.07574726,-1.2302822,12.24880165,3.864588602,crawl
27/03/2021, 15:33:51,2.1363575,-11.481724,3.6931202,3.6993985,-0.00366519,-1.3060294,12.24880165,3.923171641,crawl
27/03/2021, 15:33:51,1.9806812,-11.029065,3.908672,3.6993985,-0.00366519,-1.3060294,11.86764902,3.923171641,crawl
27/03/2021, 15:33:51,1.9806812,-11.029065,3.908672,3.5234694,-0.025656331,-1.290147,11.86764902,3.752329189,crawl
27/03/2021, 15:33:51,2.5938063,-10.4638405,3.891907,3.5234694,-0.025656331,-1.290147,11.46153256,3.752329189,crawl
27/03/2021, 15:33:52,-8.978929,2.7135572,3.6739602,-0.55222195,3.1300724,0.7733551,10.07385402,3.27114356,crawl
27/03/2021, 15:33:52,-9.065149,2.7782228,6.1073003,-0.55222195,3.1300724,0.7733551,11.27805704,3.27114356,crawl
27/03/2021, 15:33:52,-9.065149,2.7782228,6.1073003,-0.398284,3.4562743,0.7611378,11.27805704,3.561431271,crawl
27/03/2021, 15:33:52,-9.3381815,3.891907,4.8283596,-0.398284,3.4562743,0.7611378,11.20988983,3.561431271,crawl
27/03/2021, 15:33:52,-9.3381815,3.891907,4.8283596,-0.7660247,3.8887668,0.6597342,11.20988983,4.018028125,crawl
27/03/2021, 15:33:52,-8.926238,5.5803957,2.912344,-0.7660247,3.8887668,0.6597342,10.92246719,4.018028125,crawl
27/03/2021, 15:33:52,-8.926238,5.5803957,2.912344,-1.4795151,4.0927954,0.38117978,10.92246719,4.368665339,crawl
27/03/2021, 15:33:52,-9.263936,3.9326222,-0.24668702,-1.4795151,4.0927954,0.38117978,10.06711889,4.368665339,crawl
27/03/2021, 15:33:52,-9.263936,3.9326222,-0.24668702,-1.7556261,3.896097,0.05742131,10.06711889,4.27376784,crawl
27/03/2021, 15:33:52,-9.920172,1.214275,-0.004790039,-1.7556261,3.896097,0.05742131,9.994213027,4.27376784,crawl
27/03/2021, 15:33:52,-9.920172,1.214275,-0.004790039,-1.670105,3.4904826,0.1747074,9.994213027,3.873401849,crawl
27/03/2021, 15:33:52,-10.854229,0.47900394,1.1735597,-1.670105,3.4904826,0.1747074,10.92799038,3.873401849,crawl
27/03/2021, 15:33:52,-10.854229,0.47900394,1.1735597,-1.7825041,3.3646445,0.4312707,10.92799038,3.831990084,crawl
27/03/2021, 15:33:52,-11.505674,0.6730005,0.86220706,-1.7825041,3.3646445,0.4312707,11.55754616,3.831990084,crawl
27/03/2021, 15:33:52,-11.505674,0.6730005,0.86220706,-1.9230031,3.3768618,0.6157519,11.55754616,3.934499581,crawl
27/03/2021, 15:33:52,-10.494976,1.1520045,1.3555812,-1.9230031,3.3768618,0.6157519,10.64468115,3.934499581,crawl
27/03/2021, 15:33:52,-10.494976,1.1520045,1.3555812,-1.6896527,3.6150992,0.5729914,10.64468115,4.031400186,crawl
27/03/2021, 15:33:52,-8.440049,0.1580713,2.2656887,-1.6896527,3.6150992,0.5729914,8.740295284,4.031400186,crawl
27/03/2021, 15:33:52,-8.440049,0.1580713,2.2656887,-1.7886127,4.118452,0.13439031,8.740295284,4.492086787,crawl
27/03/2021, 15:33:52,-8.931028,-1.5232325,1.1184741,-1.7886127,4.118452,0.13439031,9.128772599,4.492086787,crawl
27/03/2021, 15:33:53,-3.6811452,-3.8392165,-6.6677346,-0.60109115,-1.3402379,-2.031737,8.52930818,2.50709068,crawl
27/03/2021, 15:33:53,-3.163821,-4.5313773,-6.6461797,-0.60109115,-1.3402379,-2.031737,8.643775094,2.50709068,crawl
27/03/2021, 15:33:53,-3.163821,-4.5313773,-6.6461797,-0.9211844,-1.293812,-1.9474376,8.643775094,2.512975069,crawl
27/03/2021, 15:33:53,-2.9674294,-5.503755,-5.9061184,-0.9211844,-1.293812,-1.9474376,8.601115732,2.512975069,crawl
27/03/2021, 15:33:53,-2.9674294,-5.503755,-5.9061184,-1.1606436,-1.1789695,-1.7446305,8.601115732,2.404329019,crawl
27/03/2021, 15:33:53,-2.6464968,-6.1719656,-5.604346,-1.1606436,-1.1789695,-1.7446305,8.746759191,2.404329019,crawl
27/03/2021, 15:33:53,-2.6464968,-6.1719656,-5.604346,-1.3866636,-1.0421357,-1.5515971,8.746759191,2.327302362,crawl
27/03/2021, 15:33:53,-2.335144,-6.70366,-5.242698,-1.3866636,-1.0421357,-1.5515971,8.824842185,2.327302362,crawl
27/03/2021, 15:33:53,-2.335144,-6.70366,-5.242698,-1.5662578,-0.855211,-1.4953976,8.824842185,2.328253289,crawl
27/03/2021, 15:33:53,-2.0285816,-6.981482,-5.0894165,-1.5662578,-0.855211,-1.4953976,8.87459267,2.328253289,crawl
27/03/2021, 15:33:53,-2.0285816,-6.981482,-5.0894165,-1.6554441,-0.6633994,-1.6444486,8.87459267,2.425861786,crawl
27/03/2021, 15:33:53,-1.8705103,-7.534732,-4.9002104,-1.6554441,-0.6633994,-1.6444486,9.180580318,2.425861786,crawl
27/03/2021, 15:33:53,-1.8705103,-7.534732,-4.9002104,-1.63834,-0.4960224,-1.9376638,9.180580318,2.585485862,crawl
27/03/2021, 15:33:53,-1.8992506,-8.471185,-4.854705,-1.63834,-0.4960224,-1.9376638,9.946671952,2.585485862,crawl
27/03/2021, 15:33:53,-1.8992506,-8.471185,-4.854705,-1.606575,-0.39706227,-2.2003357,9.946671952,2.753219768,crawl
27/03/2021, 15:33:53,-2.3878345,-9.783655,-5.015171,-1.606575,-0.39706227,-2.2003357,11.25049345,2.753219768,crawl
27/03/2021, 15:33:53,-2.3878345,-9.783655,-5.015171,-1.6566659,-0.3750711,-2.2650874,11.25049345,2.831226075,crawl
27/03/2021, 15:33:53,-2.9841945,-11.172767,-5.2882032,-1.6566659,-0.3750711,-2.2650874,12.71617969,2.831226075,crawl
27/03/2021, 15:33:53,-2.9841945,-11.172767,-5.2882032,-1.70187,-0.42271858,-2.1258101,12.71617969,2.755743304,crawl
27/03/2021, 15:33:53,-3.3769777,-12.140354,-4.8283596,-1.70187,-0.42271858,-2.1258101,13.49463722,2.755743304,crawl
27/03/2021, 15:33:54,-5.278623,2.929109,6.3635674,-0.7171555,-0.49357894,2.1111495,8.771461191,2.283612188,crawl
27/03/2021, 15:33:54,-5.005591,4.0763235,6.128855,-0.7171555,-0.49357894,2.1111495,8.901416751,2.283612188,crawl
27/03/2021, 15:33:54,-5.005591,4.0763235,6.128855,-0.21380275,-0.50213104,2.2492049,8.901416751,2.314469652,crawl
27/03/2021, 15:33:54,-4.409231,4.7972245,6.2581863,-0.21380275,-0.50213104,2.2492049,9.034355485,2.314469652,crawl
27/03/2021, 15:33:54,-4.409231,4.7972245,6.2581863,0.36041036,-0.46670088,2.15391,9.034355485,2.233166651,crawl
27/03/2021, 15:33:54,-3.999683,4.4762917,6.0043144,0.36041036,-0.46670088,2.15391,8.49037349,2.233166651,crawl
27/03/2021, 15:33:54,-3.999683,4.4762917,6.0043144,0.91018885,-0.3139846,1.9755374,8.49037349,2.19767563,crawl
27/03/2021, 15:33:54,-4.4738965,3.6883302,5.6905665,0.91018885,-0.3139846,1.9755374,8.12416623,2.19767563,crawl
27/03/2021, 15:33:54,-4.4738965,3.6883302,5.6905665,1.4868455,-0.095294945,2.0097458,8.12416623,2.501773166,crawl
27/03/2021, 15:33:54,-5.295388,2.926714,6.351592,1.4868455,-0.095294945,2.0097458,8.772087133,2.501773166,crawl
27/03/2021, 15:33:54,-5.295388,2.926714,6.351592,2.1050408,0.20280719,2.3164,8.772087133,3.13656447,crawl
27/03/2021, 15:33:54,-5.9061184,2.196233,7.1203933,2.1050408,0.20280719,2.3164,9.50818986,3.13656447,crawl
27/03/2021, 15:33:54,-5.9061184,2.196233,7.1203933,2.711019,0.60719985,2.615724,9.50818986,3.815799835,crawl
27/03/2021, 15:33:54,-6.231841,1.8345851,8.162227,2.711019,0.60719985,2.615724,10.43184979,3.815799835,crawl
27/03/2021, 15:33:54,-6.231841,1.8345851,8.162227,3.2815669,1.0311401,2.6633716,10.43184979,4.350342402,crawl
27/03/2021, 15:33:54,-6.8904715,1.1999048,8.727451,3.2815669,1.0311401,2.6633716,11.18421991,4.350342402,crawl
27/03/2021, 15:33:54,-6.8904715,1.1999048,8.727451,3.6370902,1.2877034,2.4373515,11.18421991,4.563692295,crawl
27/03/2021, 15:33:54,-7.7071733,0.4526587,8.404124,3.6370902,1.2877034,2.4373515,11.412043,4.563692295,crawl
27/03/2021, 15:33:54,-7.7071733,0.4526587,8.404124,3.6664119,1.2693775,2.0659454,11.412043,4.395682604,crawl
27/03/2021, 15:33:54,-7.9634404,0.37122804,7.2569094,3.6664119,1.2693775,2.0659454,10.7803955,4.395682604,crawl
27/03/2021, 15:33:55,-4.9337406,-0.62749517,-2.6033864,0.48136163,-0.52167875,-1.4306458,5.613659004,1.597061427,crawl
27/03/2021, 15:33:55,-1.334026,0.5891748,-3.8320315,0.48136163,-0.52167875,-1.4306458,4.100148484,1.597061427,crawl
27/03/2021, 15:33:55,-1.334026,0.5891748,-3.8320315,0.68905574,-1.2021823,-2.018298,4.100148484,2.448176165,crawl
27/03/2021, 15:33:55,-1.0059083,0.9244776,-3.4847536,0.68905574,-1.2021823,-2.018298,3.742995847,2.448176165,crawl
27/03/2021, 15:33:55,-1.0059083,0.9244776,-3.4847536,0.6475169,-1.362229,-2.6584845,3.742995847,3.056547985,crawl
27/03/2021, 15:33:55,-1.9327809,0.09101075,-2.2920337,0.6475169,-1.362229,-2.6584845,2.999557163,3.056547985,crawl
27/03/2021, 15:33:55,-1.9327809,0.09101075,-2.2920337,0.47280952,-1.0213664,-2.692693,2.999557163,2.91844713,crawl
27/03/2021, 15:33:55,-2.076482,-0.22513184,-0.6466553,0.47280952,-1.0213664,-2.692693,2.186464083,2.91844713,crawl
27/03/2021, 15:33:55,-2.076482,-0.22513184,-0.6466553,0.43860108,-0.5119049,-2.4776685,2.186464083,2.567734184,crawl
27/03/2021, 15:33:55,-1.6884888,0.21315674,0.12454102,0.43860108,-0.5119049,-2.4776685,1.706440984,2.567734184,crawl
27/03/2021, 15:33:55,-1.6884888,0.21315674,0.12454102,0.37018418,0.14049895,-2.5729635,1.706440984,2.603251301,crawl
27/03/2021, 15:33:55,-0.89573735,0.102985844,0.059875492,0.37018418,0.14049895,-2.5729635,0.903624125,2.603251301,crawl
27/03/2021, 15:33:55,-0.89573735,0.102985844,0.059875492,0.26755887,0.92851484,-3.0531034,0.903624125,3.202369156,crawl
27/03/2021, 15:33:55,-1.4346168,-0.7161109,-0.3281177,0.26755887,0.92851484,-3.0531034,1.636643333,3.202369156,crawl
27/03/2021, 15:33:55,-1.4346168,-0.7161109,-0.3281177,0.12095127,1.8179343,-3.4306178,1.636643333,3.884411512,crawl
27/03/2021, 15:33:55,-2.3782544,-1.9232007,-1.0705738,0.12095127,1.8179343,-3.4306178,3.240512825,3.884411512,crawl
27/03/2021, 15:33:55,-2.3782544,-1.9232007,-1.0705738,0.073303804,2.682919,-3.6786292,3.240512825,4.553651331,crawl
27/03/2021, 15:33:55,-3.515889,-3.2165112,-1.465752,0.073303804,2.682919,-3.6786292,4.985564013,4.553651331,crawl
27/03/2021, 15:33:55,-3.515889,-3.2165112,-1.465752,-0.01954768,3.4196224,-3.7959151,4.985564013,5.109126272,crawl
27/03/2021, 15:33:55,-5.3792143,-3.911067,-2.083667,-0.01954768,3.4196224,-3.7959151,6.969509296,5.109126272,crawl
27/03/2021, 15:33:56,-3.2692018,2.3566992,7.592212,3.5173607,1.226617,1.6737702,8.59554521,4.083861171,crawl
27/03/2021, 15:33:56,-3.6931202,2.8309133,7.4101906,3.5173607,1.226617,1.6737702,8.750093241,4.083861171,crawl
27/03/2021, 15:33:56,-3.6931202,2.8309133,7.4101906,4.2149687,1.4880672,1.7470739,8.750093241,4.799226188,crawl
27/03/2021, 15:33:56,-4.2272096,2.931504,6.856941,4.2149687,1.4880672,1.7470739,8.572086061,4.799226188,crawl
27/03/2021, 15:33:56,-4.2272096,2.931504,6.856941,4.6047006,1.8875729,1.7067568,8.572086061,5.261104216,crawl
27/03/2021, 15:33:56,-5.0031962,3.0799952,6.4162574,4.6047006,1.8875729,1.7067568,8.699810432,5.261104216,crawl
27/03/2021, 15:33:56,-5.0031962,3.0799952,6.4162574,4.69633,2.4178038,1.6310096,8.699810432,5.528244153,crawl
27/03/2021, 15:33:56,-6.0689797,3.547024,6.4928985,4.69633,2.4178038,1.6310096,9.569306396,5.528244153,crawl
27/03/2021, 15:33:56,-6.0689797,3.547024,6.4928985,4.7061043,2.8942785,1.6285661,9.569306396,5.759903937,crawl
27/03/2021, 15:33:56,-6.725215,3.6931202,6.1743608,4.7061043,2.8942785,1.6285661,9.848369614,5.759903937,crawl
27/03/2021, 15:33:56,-6.725215,3.6931202,6.1743608,4.6718955,3.1997108,1.6432269,9.848369614,5.896181105,crawl
27/03/2021, 15:33:56,-6.9958525,3.6284547,5.712122,4.6718955,3.1997108,1.6432269,9.733240597,5.896181105,crawl
27/03/2021, 15:33:56,-6.9958525,3.6284547,5.712122,4.5863743,3.298671,1.5711448,9.733240597,5.863834541,crawl
27/03/2021, 15:33:56,-6.962322,3.2692018,4.734954,4.5863743,3.298671,1.5711448,9.032242206,5.863834541,crawl
27/03/2021, 15:33:56,-6.962322,3.2692018,4.734954,4.4287715,3.1703894,1.4807367,9.032242206,5.64428625,crawl
27/03/2021, 15:33:56,-7.1203933,3.3266823,4.0835085,4.4287715,3.1703894,1.4807367,8.856740785,5.64428625,crawl
27/03/2021, 15:33:56,-6.3947024,3.906277,2.3327491,4.4287715,3.1703894,1.4807367,7.848116797,5.64428625,crawl
27/03/2021, 15:33:56,-6.552774,5.039121,1.5352076,4.4287715,3.1703894,1.4807367,8.407642411,5.64428625,crawl
27/03/2021, 15:33:56,-6.552774,5.039121,1.5352076,4.177095,2.6951365,1.402546,8.407642411,5.165173621,crawl
27/03/2021, 15:33:56,-6.552774,5.039121,1.5352076,3.9632921,1.9291117,1.389107,8.407642411,4.621555441,crawl
27/03/2021, 15:33:57,-8.686736,1.219065,-0.4239185,0.5485568,-6.041455,-6.2552576,8.782096016,8.713686837,crawl
27/03/2021, 15:33:57,-5.767207,-0.852627,-2.0333717,0.5485568,-6.041455,-6.2552576,6.174321942,8.713686837,crawl
27/03/2021, 15:33:57,-5.767207,-0.852627,-2.0333717,1.3536769,-6.145302,-5.973038,6.174321942,8.676079814,crawl
27/03/2021, 15:33:57,-6.1240654,-3.4416432,0.58198977,1.3536769,-6.145302,-5.973038,7.048957177,8.676079814,crawl
27/03/2021, 15:33:57,-6.1240654,-3.4416432,0.58198977,2.3616042,-6.0610027,-5.4733505,7.048957177,8.501205476,crawl
27/03/2021, 15:33:57,-3.911067,-2.3590944,2.4022048,2.3616042,-6.0610027,-5.4733505,5.160654912,8.501205476,crawl
27/03/2021, 15:33:57,-3.911067,-2.3590944,2.4022048,3.308445,-5.619958,-4.897916,5.160654912,8.155937396,crawl
27/03/2021, 15:33:57,-3.3099172,-0.98914313,0.9484278,3.308445,-5.619958,-4.897916,3.582383476,8.155937396,crawl
27/03/2021, 15:33:57,-3.3099172,-0.98914313,0.9484278,3.4330614,-4.808729,-4.277277,3.582383476,7.294167878,crawl
27/03/2021, 15:33:57,-1.5040723,1.9040406,0.6586304,3.4330614,-4.808729,-4.277277,2.514239047,7.294167878,crawl
27/03/2021, 15:33:57,-1.5040723,1.9040406,0.6586304,3.3499837,-3.6993985,-3.986505,2.514239047,6.387500489,crawl
27/03/2021, 15:33:57,0.06706055,3.779341,0.39996827,3.3499837,-3.6993985,-3.986505,3.801038015,6.387500489,crawl
27/03/2021, 15:33:57,0.06706055,3.779341,0.39996827,3.1386244,-2.9309304,-3.9938354,3.801038015,5.864472506,crawl
27/03/2021, 15:33:57,-0.4382886,4.5864625,-2.0285816,3.1386244,-2.9309304,-3.9938354,5.034171086,5.864472506,crawl
27/03/2021, 15:33:57,-0.4382886,4.5864625,-2.0285816,2.6230543,-2.3188436,-3.9156446,5.034171086,5.252591963,crawl
27/03/2021, 15:33:57,-0.45026368,3.7050953,-1.3891114,2.6230543,-2.3188436,-3.9156446,3.982473977,5.252591963,crawl
27/03/2021, 15:33:57,-0.45026368,3.7050953,-1.3891114,2.3628259,-1.8655818,-3.770259,3.982473977,4.824748031,crawl
27/03/2021, 15:33:57,1.346001,2.4692652,-0.10538086,2.3628259,-1.8655818,-3.770259,2.81426627,4.824748031,crawl
27/03/2021, 15:33:57,1.346001,2.4692652,-0.10538086,2.502103,-1.9828678,-4.0341525,2.81426627,5.144576872,crawl
27/03/2021, 15:33:57,3.7601807,0.45026368,0.8813672,2.502103,-1.9828678,-4.0341525,3.888252116,5.144576872,crawl
27/03/2021, 15:33:58,-6.701265,-8.440049,3.767366,-0.38851014,2.37993,1.2498298,11.41641042,2.716078327,crawl
27/03/2021, 15:33:58,-8.459209,-9.2328005,4.5768824,-0.38851014,2.37993,1.2498298,13.33231718,2.716078327,crawl
27/03/2021, 15:33:58,-8.459209,-9.2328005,4.5768824,-0.4679226,2.5558593,1.3658942,13.33231718,2.935478738,crawl
27/03/2021, 15:33:58,-10.30577,-8.229287,5.158872,-0.4679226,2.5558593,1.3658942,14.16135665,2.935478738,crawl
27/03/2021, 15:33:58,-10.30577,-8.229287,5.158872,-0.2797762,2.3616042,1.470963,14.16135665,2.796279909,crawl
27/03/2021, 15:33:58,-11.946358,-7.7598634,5.6282964,-0.2797762,2.3616042,1.470963,15.31694038,2.796279909,crawl
27/03/2021, 15:33:58,-11.946358,-7.7598634,5.6282964,0.02687806,1.9877547,1.4782933,15.31694038,2.477345811,crawl
27/03/2021, 15:33:58,-11.285333,-6.8832865,5.6809864,0.02687806,1.9877547,1.4782933,14.38791065,2.477345811,crawl
27/03/2021, 15:33:58,-11.285333,-6.8832865,5.6809864,0.05009093,1.9058988,1.226617,14.38791065,2.267057252,crawl
27/03/2021, 15:33:58,-9.922566,-4.7325587,3.8655617,0.05009093,1.9058988,1.226617,11.65319715,2.267057252,crawl
27/03/2021, 15:33:58,-9.922566,-4.7325587,3.8655617,-0.22724178,1.8704686,0.81122875,11.65319715,2.051434562,crawl
27/03/2021, 15:33:58,-8.837623,-5.877378,5.1971927,-0.22724178,1.8704686,0.81122875,11.8176968,2.051434562,crawl
27/03/2021, 15:33:58,-8.837623,-5.877378,5.1971927,-0.7696899,1.9425508,0.6633994,11.8176968,2.192264778,crawl
27/03/2021, 15:33:58,-9.826766,-8.5502205,4.5649076,-0.7696899,1.9425508,0.6633994,13.80253533,2.192264778,crawl
27/03/2021, 15:33:58,-9.826766,-8.5502205,4.5649076,-1.1618652,2.0085242,0.900415,13.80253533,2.488945034,crawl
27/03/2021, 15:33:58,-11.009905,-9.402847,7.599397,-1.1618652,2.0085242,0.900415,16.35183108,2.488945034,crawl
27/03/2021, 15:33:58,-11.009905,-9.402847,7.599397,-0.9920448,2.1453578,1.2705992,16.35183108,2.683493178,crawl
27/03/2021, 15:33:58,-12.19544,-9.769285,8.480764,-0.9920448,2.1453578,1.2705992,17.77894997,2.683493178,crawl
27/03/2021, 15:33:58,-12.19544,-9.769285,8.480764,-0.3139846,2.0744977,1.4990628,17.77894997,2.578626814,crawl
27/03/2021, 15:33:58,-11.431429,-7.398216,8.6077,-0.3139846,2.0744977,1.4990628,16.10911757,2.578626814,crawl
27/03/2021, 15:33:59,-6.461763,-6.1504107,4.033213,3.8301237,1.4465283,-0.25900677,9.790236936,4.10236224,crawl
27/03/2021, 15:33:59,-6.7946706,-5.0606766,4.0356083,3.8301237,1.4465283,-0.25900677,9.384249037,4.10236224,crawl
27/03/2021, 15:33:59,-6.7946706,-5.0606766,4.0356083,3.6138773,1.2180648,-0.4605922,9.384249037,3.841345613,crawl
27/03/2021, 15:33:59,-7.0078273,-3.9853127,4.27032,3.6138773,1.2180648,-0.4605922,9.122937735,3.841345613,crawl
27/03/2021, 15:33:59,-7.0078273,-3.9853127,4.27032,3.3426533,0.96516675,-0.69394267,9.122937735,3.547736488,crawl
27/03/2021, 15:33:59,-7.27128,-3.1255007,4.505032,3.3426533,0.96516675,-0.69394267,9.106897303,3.547736488,crawl
27/03/2021, 15:33:59,-7.27128,-3.1255007,4.505032,3.009121,0.7367032,-0.89308465,9.106897303,3.224149601,crawl
27/03/2021, 15:33:59,-7.3934255,-2.42855,4.5649076,3.009121,0.7367032,-0.89308465,9.022138115,3.224149601,crawl
27/03/2021, 15:33:59,-7.3934255,-2.42855,4.5649076,2.6242762,0.5412264,-1.0433575,9.022138115,2.875473218,crawl
27/03/2021, 15:33:59,-7.3646855,-1.8920655,4.9696655,2.6242762,0.5412264,-1.0433575,9.083836218,2.875473218,crawl
27/03/2021, 15:33:59,-7.3646855,-1.8920655,4.9696655,2.221105,0.39217535,-1.1606436,9.083836218,2.536573058,crawl
27/03/2021, 15:33:59,-7.165899,-1.4729371,5.144502,2.221105,0.39217535,-1.1606436,8.943464197,2.536573058,crawl
27/03/2021, 15:33:59,-7.165899,-1.4729371,5.144502,1.7495174,0.26267195,-1.2705992,8.943464197,2.178125403,crawl
27/03/2021, 15:33:59,-6.8880763,-1.2406201,5.1684523,1.7495174,0.26267195,-1.2705992,8.700438627,2.178125403,crawl
27/03/2021, 15:33:59,-6.8880763,-1.2406201,5.1684523,1.2241734,0.11484262,-1.3842201,8.700438627,1.851446666,crawl
27/03/2021, 15:33:59,-6.830596,-1.1999048,5.2355127,1.2241734,0.11484262,-1.3842201,8.689499779,1.851446666,crawl
27/03/2021, 15:33:59,-6.830596,-1.1999048,5.2355127,0.71837723,-0.04520401,-1.4795151,8.689499779,1.645318847,crawl
27/03/2021, 15:33:59,-6.72761,-1.1831397,5.2905984,0.71837723,-0.04520401,-1.4795151,8.640080362,1.645318847,crawl
27/03/2021, 15:33:59,-6.72761,-1.1831397,5.2905984,0.25167638,-0.20036373,-1.534493,8.640080362,1.567850534,crawl
27/03/2021, 15:33:59,-6.593489,-1.3651612,5.2738333,0.25167638,-0.20036373,-1.534493,8.552840575,1.567850534,crawl
27/03/2021, 15:34:00,2.8979738,-3.7027004,7.726333,0.41172302,-0.38117978,-0.16493355,9.044582129,0.584822146,crawl
27/03/2021, 15:34:00,2.8620484,-3.6979103,7.719148,0.41172302,-0.38117978,-0.16493355,9.025026866,0.584822146,crawl
27/03/2021, 15:34:00,2.8620484,-3.6979103,7.719148,0.5424481,-0.37995803,-0.09896013,9.025026866,0.669635095,crawl
27/03/2021, 15:34:00,2.802173,-3.7218604,7.7454934,0.5424481,-0.37995803,-0.09896013,9.038644039,0.669635095,crawl
27/03/2021, 15:34:00,2.802173,-3.7218604,7.7454934,0.70493823,-0.40439263,-0.00977384,9.038644039,0.812752631,crawl
27/03/2021, 15:34:00,2.8093581,-3.666775,7.822134,0.70493823,-0.40439263,-0.00977384,9.084245288,0.812752631,crawl
27/03/2021, 15:34:00,2.8093581,-3.666775,7.822134,0.89308465,-0.4031709,0.07696899,9.084245288,0.982889208,crawl
27/03/2021, 15:34:00,2.8357031,-3.551814,8.018526,0.89308465,-0.4031709,0.07696899,9.217014483,0.982889208,crawl
27/03/2021, 15:34:00,2.8357031,-3.551814,8.018526,1.0983353,-0.36896247,0.15149452,9.217014483,1.168513692,crawl
27/03/2021, 15:34:00,2.8093581,-3.4703834,8.193362,1.0983353,-0.36896247,0.15149452,9.330982733,1.168513692,crawl
27/03/2021, 15:34:00,2.8093581,-3.4703834,8.193362,1.2742645,-0.29565868,0.22724178,9.330982733,1.327705835,crawl
27/03/2021, 15:34:00,2.7782228,-3.2308815,8.174202,1.2742645,-0.29565868,0.22724178,9.21817198,1.327705835,crawl
27/03/2021, 15:34:00,2.7782228,-3.2308815,8.174202,1.4037678,-0.18936816,0.30054557,9.21817198,1.44801659,crawl
27/03/2021, 15:34:00,2.794988,-2.8668385,8.037686,1.4037678,-0.18936816,0.30054557,8.979706121,1.44801659,crawl
27/03/2021, 15:34:00,2.794988,-2.8668385,8.037686,1.5088366,-0.06597342,0.35552344,8.979706121,1.551559659,crawl
27/03/2021, 15:34:00,2.7854078,-2.579436,7.927515,1.5088366,-0.06597342,0.35552344,8.789623511,1.551559659,crawl
27/03/2021, 15:34:00,2.7854078,-2.579436,7.927515,1.5858055,0.04642574,0.39706227,8.789623511,1.635418293,crawl
27/03/2021, 15:34:00,2.8261232,-2.3327491,7.699988,1.5858055,0.04642574,0.39706227,8.527514558,1.635418293,crawl
27/03/2021, 15:34:00,2.8261232,-2.3327491,7.699988,1.5980228,0.12950338,0.43860108,8.527514558,1.662172963,crawl
27/03/2021, 15:34:00,2.794988,-2.1435425,7.407796,1.5980228,0.12950338,0.43860108,8.202571073,1.662172963,crawl
27/03/2021, 15:34:01,3.5709743,-4.502637,9.134604,0.09651667,-0.09407321,0.122173004,10.79196903,0.181910637,crawl
27/03/2021, 15:34:01,3.6116896,-4.5792775,9.251961,0.09651667,-0.09407321,0.122173004,10.93676652,0.181910637,crawl
27/03/2021, 15:34:01,3.6116896,-4.5792775,9.251961,0.13683376,-0.043982282,0.10018186,10.93676652,0.175197956,crawl
27/03/2021, 15:34:01,3.6332448,-4.629573,9.1130495,0.13683376,-0.043982282,0.10018186,10.84809125,0.175197956,crawl
27/03/2021, 15:34:01,3.6332448,-4.629573,9.1130495,0.17959431,0.02076941,0.06597342,10.84809125,0.192452531,crawl
27/03/2021, 15:34:01,3.5973196,-4.631968,9.074729,0.17959431,0.02076941,0.06597342,10.80493137,0.192452531,crawl
27/03/2021, 15:34:01,3.5973196,-4.631968,9.074729,0.24556774,0.08307764,0.021991141,10.80493137,0.260171134,crawl
27/03/2021, 15:34:01,3.537444,-4.6607084,8.792117,0.24556774,0.08307764,0.021991141,10.56110966,0.260171134,crawl
27/03/2021, 15:34:01,3.537444,-4.6607084,8.792117,0.31887153,0.12095127,-0.030543251,10.56110966,0.342404953,crawl
27/03/2021, 15:34:01,3.4464333,-4.8187795,8.825647,0.31887153,0.12095127,-0.030543251,10.62970316,0.342404953,crawl
27/03/2021, 15:34:01,3.4464333,-4.8187795,8.825647,0.40072745,0.14538588,-0.07574726,10.62970316,0.432963266,crawl
27/03/2021, 15:34:01,3.391348,-4.8283596,8.871153,0.40072745,0.14538588,-0.07574726,10.65418464,0.432963266,crawl
27/03/2021, 15:34:01,3.391348,-4.8283596,8.871153,0.49480066,0.15393798,-0.117286086,10.65418464,0.531300873,crawl
27/03/2021, 15:34:01,3.3482375,-4.7253737,9.017249,0.49480066,0.15393798,-0.117286086,10.71683876,0.531300873,crawl
27/03/2021, 15:34:01,3.3482375,-4.7253737,9.017249,0.5791,0.15638144,-0.16615528,10.71683876,0.622430363,crawl
27/03/2021, 15:34:01,3.432063,-4.512217,8.966953,0.5791,0.15638144,-0.16615528,10.60874219,0.622430363,crawl
27/03/2021, 15:34:01,3.432063,-4.512217,8.966953,0.6304127,0.16737701,-0.22602005,10.60874219,0.690304496,crawl
27/03/2021, 15:34:01,3.5254688,-4.1793094,9.11784,0.6304127,0.16737701,-0.22602005,10.63158314,0.690304496,crawl
27/03/2021, 15:34:01,3.5254688,-4.1793094,9.11784,0.6316344,0.199142,-0.2883283,10.63158314,0.72232456,crawl
27/03/2021, 15:34:01,3.5709743,-3.7937112,9.091495,0.6316344,0.199142,-0.2883283,10.47851973,0.72232456,crawl
27/03/2021, 15:34:02,2.1291726,-2.560276,8.5119,-0.21502449,0.29077175,0.33964095,9.14006728,0.496124695,crawl
27/03/2021, 15:34:02,2.1291726,-2.560276,8.5119,-0.20280719,0.42882723,0.43737936,9.14006728,0.645231935,crawl
27/03/2021, 15:34:02,1.8226099,-2.699187,8.646021,-0.20280719,0.42882723,0.43737936,9.239112227,0.645231935,crawl
27/03/2021, 15:34:02,1.8226099,-2.699187,8.646021,-0.14538588,0.547335,0.50335276,9.239112227,0.757678486,crawl
27/03/2021, 15:34:02,1.3962965,-2.943479,9.19448,-0.14538588,0.547335,0.50335276,9.754597599,0.757678486,crawl
27/03/2021, 15:34:02,1.3962965,-2.943479,9.19448,-0.00977384,0.6157519,0.5448916,9.754597599,0.822285114,crawl
27/03/2021, 15:34:02,0.8765772,-3.295547,9.721385,-0.00977384,0.6157519,0.5448916,10.3021524,0.822285114,crawl
27/03/2021, 15:34:02,0.8765772,-3.295547,9.721385,0.15515971,0.64018655,0.565661,10.3021524,0.868265935,crawl
27/03/2021, 15:34:02,0.5628296,-3.4344583,9.948912,0.15515971,0.64018655,0.565661,10.5400723,0.868265935,crawl
27/03/2021, 15:34:02,0.5628296,-3.4344583,9.948912,0.3298671,0.61697364,0.55466545,10.5400723,0.892817186,crawl
27/03/2021, 15:34:02,0.39517823,-3.3673975,10.360855,0.3298671,0.61697364,0.55466545,10.9015068,0.892817186,crawl
27/03/2021, 15:34:02,0.39517823,-3.3673975,10.360855,0.52290046,0.5644393,0.5131266,10.9015068,0.924832705,crawl
27/03/2021, 15:34:02,0.5029541,-3.307522,10.265054,0.52290046,0.5644393,0.5131266,10.79648061,0.924832705,crawl
27/03/2021, 15:34:02,0.5029541,-3.307522,10.265054,0.6682863,0.49113548,0.47036606,10.79648061,0.953448949,crawl
27/03/2021, 15:34:02,0.5460645,-3.3458424,10.327325,0.6682863,0.49113548,0.47036606,10.86952099,0.953448949,crawl
27/03/2021, 15:34:02,0.5460645,-3.3458424,10.327325,0.7342597,0.4312707,0.44715318,10.86952099,0.961809606,crawl
27/03/2021, 15:34:02,0.5221143,-3.3841627,10.27224,0.7342597,0.4312707,0.44715318,10.82793001,0.961809606,crawl
27/03/2021, 15:34:02,0.5221143,-3.3841627,10.27224,0.7318163,0.3995057,0.43860108,10.82793001,0.942088529,crawl
27/03/2021, 15:34:02,0.43349856,-3.271597,10.403965,0.7318163,0.3995057,0.43860108,10.91484104,0.942088529,crawl
27/03/2021, 15:34:02,0.43349856,-3.271597,10.403965,0.7611378,0.39706227,0.41416648,10.91484104,0.953164753,crawl
27/03/2021, 15:34:03,-2.6512868,-1.5064673,7.151529,0.6255258,0.25167638,0.75991607,7.77451802,1.015921218,crawl
27/03/2021, 15:34:03,-2.6512868,-1.5064673,7.151529,0.46547914,0.23823735,0.77579856,7.77451802,0.935570022,crawl
27/03/2021, 15:34:03,-2.687212,-1.2669654,8.51669,0.46547914,0.23823735,0.77579856,9.019995702,0.935570022,crawl
27/03/2021, 15:34:03,-2.687212,-1.2669654,8.51669,0.3909536,0.26145023,0.7489205,9.019995702,0.884354486,crawl
27/03/2021, 15:34:03,-2.2872438,-0.81909674,7.2640944,0.3909536,0.26145023,0.7489205,7.659599901,0.884354486,crawl
27/03/2021, 15:34:03,-2.2872438,-0.81909674,7.2640944,0.16615528,0.2553416,0.7147121,7.659599901,0.776930026,crawl
27/03/2021, 15:34:03,-2.308799,-1.3603711,8.605306,0.16615528,0.2553416,0.7147121,9.012904539,0.776930026,crawl
27/03/2021, 15:34:03,-2.308799,-1.3603711,8.605306,-0.16615528,0.31154117,0.733038,9.012904539,0.813640092,crawl
27/03/2021, 15:34:03,-1.3699512,-1.2693604,7.462881,-0.16615528,0.31154117,0.733038,7.693025182,0.813640092,crawl
27/03/2021, 15:34:03,-1.3699512,-1.2693604,7.462881,-0.47158778,0.5277874,0.80389833,7.693025182,1.071077537,crawl
27/03/2021, 15:34:03,-1.6310084,-1.0418335,9.297466,-0.47158778,0.5277874,0.80389833,9.496761797,1.071077537,crawl
27/03/2021, 15:34:03,-1.6310084,-1.0418335,9.297466,-0.63285613,0.8173374,0.87353694,9.496761797,1.353371379,crawl
27/03/2021, 15:34:03,-2.668052,-1.5328126,7.4580913,-0.63285613,0.8173374,0.87353694,8.067908089,1.353371379,crawl
27/03/2021, 15:34:03,-2.668052,-1.5328126,7.4580913,-0.7305946,0.99448824,0.9553929,8.067908089,1.560625157,crawl
27/03/2021, 15:34:03,-3.6068995,-2.1100123,8.406519,-0.7305946,0.99448824,0.9553929,9.387834495,1.560625157,crawl
27/03/2021, 15:34:03,-3.6068995,-2.1100123,8.406519,-0.70860344,1.0238098,0.9724971,9.387834495,1.579891118,crawl
27/03/2021, 15:34:03,-3.999683,-3.0296998,7.544312,-0.70860344,1.0238098,0.9724971,9.060529111,1.579891118,crawl
27/03/2021, 15:34:03,-3.999683,-3.0296998,7.544312,-0.7367032,1.009149,0.9724971,9.060529111,1.583307887,crawl
