DATE,TIME,ax,ay,az,gx,gy,gz,ma,mg,label
10/07/2020, 15:05:00,-3.2757742,-0.85902333,8.394022,-0.31016225,0.48966557,1.01108,9.051421054,1.165442323,crawl
10/07/2020, 15:05:00,-3.2757742,-0.85902333,8.394022,-0.3309211,0.48356003,0.9866578,9.051421054,1.147533308,crawl
10/07/2020, 15:05:00,-3.3092737,-0.66999036,8.439486,-0.3309211,0.48356003,0.9866578,9.089834761,1.147533308,crawl
10/07/2020, 15:05:00,-3.3092737,-0.66999036,8.439486,-0.38953447,0.4591378,0.97566783,9.089834761,1.146504403,crawl
10/07/2020, 15:05:00,-3.359523,-0.63170516,8.396415,-0.38953447,0.4591378,0.97566783,9.065606839,1.146504403,crawl
10/07/2020, 15:05:00,-3.359523,-0.63170516,8.396415,-0.4371578,0.42983112,0.96956223,9.065606839,1.147132365,crawl
10/07/2020, 15:05:00,-3.397808,-0.715454,8.374879,-0.4371578,0.42983112,0.96956223,9.066177277,1.147132365,crawl
10/07/2020, 15:05:00,-3.397808,-0.715454,8.374879,-0.44692668,0.41029334,0.9634567,9.066177277,1.138566151,crawl
10/07/2020, 15:05:00,-3.4241292,-0.7728817,8.286345,-0.44692668,0.41029334,0.9634567,8.999195122,1.138566151,crawl
10/07/2020, 15:05:00,-3.4241292,-0.7728817,8.286345,-0.42983112,0.40174556,0.95613,8.999195122,1.12264817,crawl
10/07/2020, 15:05:00,-3.4217365,-0.81834537,8.238488,-0.42983112,0.40174556,0.95613,8.958273129,1.12264817,crawl
10/07/2020, 15:05:00,-3.4217365,-0.81834537,8.238488,-0.4041878,0.40540892,0.9378134,8.958273129,1.098734792,crawl
10/07/2020, 15:05:00,-3.4313076,-0.782453,8.183454,-0.4041878,0.40540892,0.9378134,8.908143263,1.098734792,crawl
10/07/2020, 15:05:00,-3.4313076,-0.782453,8.183454,-0.36633334,0.40785113,0.9060645,8.908143263,1.059006871,crawl
10/07/2020, 15:05:00,-3.3882368,-0.62931234,8.12124,-0.36633334,0.40785113,0.9060645,8.822171842,1.059006871,crawl
10/07/2020, 15:05:00,-3.3882368,-0.62931234,8.12124,-0.31871,0.40174556,0.8853056,8.822171842,1.023103872,crawl
10/07/2020, 15:05:00,-3.4193435,-0.42831525,8.111669,-0.31871,0.40174556,0.8853056,8.81331555,1.023103872,crawl
10/07/2020, 15:05:00,-3.4193435,-0.42831525,8.111669,-0.24910668,0.37488112,0.85722005,8.81331555,0.968202566,crawl
10/07/2020, 15:05:00,-3.481557,-0.37088752,8.157132,-0.24910668,0.37488112,0.85722005,8.876801273,0.968202566,crawl
10/07/2020, 15:05:00,-3.481557,-0.37088752,8.157132,-0.18927222,0.34191114,0.8169234,8.876801273,0.905588764,crawl
10/07/2020, 15:05:01,-8.185846,-3.790231,3.2949169,-7.183797,-0.6935911,0.92438114,9.603666396,7.276158793,crawl
10/07/2020, 15:05:01,-8.374879,-4.106084,3.1489546,-7.183797,-0.6935911,0.92438114,9.844513006,7.276158793,crawl
10/07/2020, 15:05:01,-8.374879,-4.106084,3.1489546,-7.3437624,-0.6581789,0.9194967,9.844513006,7.430310886,crawl
10/07/2020, 15:05:01,-8.585447,-4.388437,2.8594232,-7.3437624,-0.6581789,0.9194967,10.05706636,7.430310886,crawl
10/07/2020, 15:05:01,-8.585447,-4.388437,2.8594232,-7.5208235,-0.71923447,0.91094893,10.05706636,7.609856239,crawl
10/07/2020, 15:05:01,-8.633304,-4.9316072,2.524428,-7.5208235,-0.71923447,0.91094893,10.25804163,7.609856239,crawl
10/07/2020, 15:05:01,-8.633304,-4.9316072,2.524428,-7.690558,-0.7998278,0.9072856,10.25804163,7.785086597,crawl
10/07/2020, 15:05:01,-8.403593,-5.651847,2.1774685,-7.690558,-0.7998278,0.9072856,10.35881841,7.785086597,crawl
10/07/2020, 15:05:01,-8.403593,-5.651847,2.1774685,-7.7259703,-0.86821,0.9426978,10.35881841,7.83154419,crawl
10/07/2020, 15:05:01,-8.078169,-6.599405,1.9573289,-7.7259703,-0.86821,0.9426978,10.61320369,7.83154419,crawl
10/07/2020, 15:05:01,-8.078169,-6.599405,1.9573289,-7.657588,-0.8779789,1.0477134,10.61320369,7.778637696,crawl
10/07/2020, 15:05:01,-7.585248,-7.585248,1.942972,-7.657588,-0.8779789,1.0477134,10.90170235,7.778637696,crawl
10/07/2020, 15:05:01,-7.585248,-7.585248,1.942972,-7.515939,-0.79128003,1.1905833,10.90170235,7.650683328,crawl
10/07/2020, 15:05:01,-7.1545396,-8.346166,2.0697916,-7.515939,-0.79128003,1.1905833,11.18615014,7.650683328,crawl
10/07/2020, 15:05:01,-7.1545396,-8.346166,2.0697916,-7.27538,-0.6801589,1.3383378,11.18615014,7.428655347,crawl
10/07/2020, 15:05:01,-6.943971,-8.750552,2.3162522,-7.27538,-0.6801589,1.3383378,11.40858989,7.428655347,crawl
10/07/2020, 15:05:01,-6.943971,-8.750552,2.3162522,-6.983535,-0.6056711,1.4457957,11.40858989,7.157298446,crawl
10/07/2020, 15:05:01,-6.9344,-8.985049,2.455036,-6.983535,-0.6056711,1.4457957,11.61224422,7.157298446,crawl
10/07/2020, 15:05:01,-6.9344,-8.985049,2.455036,-6.740534,-0.5262989,1.4775445,11.61224422,6.920615919,crawl
10/07/2020, 15:05:01,-6.9894347,-9.174082,2.347359,-6.740534,-0.5262989,1.4775445,11.76970979,6.920615919,crawl
10/07/2020, 15:05:02,-6.6305118,-4.9052863,-1.6845472,0.24178001,0.31993112,0.28329778,8.418029415,0.490989945,crawl
10/07/2020, 15:05:02,-6.707082,-4.955536,-1.5577276,0.24178001,0.31993112,0.28329778,8.483442541,0.490989945,crawl
10/07/2020, 15:05:02,-6.707082,-4.955536,-1.5577276,0.33458444,0.3944189,0.29062447,8.483442541,0.593275314,crawl
10/07/2020, 15:05:02,-6.8458657,-4.7856455,-1.8424734,0.33458444,0.3944189,0.29062447,8.553536604,0.593275314,crawl
10/07/2020, 15:05:02,-6.8458657,-4.7856455,-1.8424734,0.35290113,0.41884112,0.27841336,8.553536604,0.614394899,crawl
10/07/2020, 15:05:02,-7.025327,-4.651647,-2.2875385,0.35290113,0.41884112,0.27841336,8.730743126,0.614394899,crawl
10/07/2020, 15:05:02,-7.025327,-4.651647,-2.2875385,0.41884112,0.36511225,0.32725778,8.730743126,0.644850754,crawl
10/07/2020, 15:05:02,-7.085148,-4.213761,-2.1655045,0.41884112,0.36511225,0.32725778,8.523174892,0.644850754,crawl
10/07/2020, 15:05:02,-7.085148,-4.213761,-2.1655045,0.5690378,0.35656446,0.38709223,8.523174892,0.775101687,crawl
10/07/2020, 15:05:02,-7.0085773,-4.0510488,-2.201397,0.5690378,0.35656446,0.38709223,8.389118007,0.775101687,crawl
10/07/2020, 15:05:02,-7.0085773,-4.0510488,-2.201397,0.6007867,0.32481557,0.37732336,8.389118007,0.780270924,crawl
10/07/2020, 15:05:02,-6.991828,-4.1347976,-2.347359,0.6007867,0.32481557,0.37732336,8.455312133,0.780270924,crawl
10/07/2020, 15:05:02,-6.991828,-4.1347976,-2.347359,0.57148004,0.2869611,0.3712178,8.455312133,0.739417848,crawl
10/07/2020, 15:05:02,-7.02772,-4.273581,-2.5818555,0.57148004,0.2869611,0.3712178,8.620807436,0.739417848,crawl
10/07/2020, 15:05:02,-7.02772,-4.273581,-2.5818555,0.6423045,0.24666445,0.38465002,8.620807436,0.788260132,crawl
10/07/2020, 15:05:02,-6.9320073,-4.421936,-2.8809586,0.6423045,0.24666445,0.38465002,8.71241447,0.788260132,crawl
10/07/2020, 15:05:02,-6.9320073,-4.421936,-2.8809586,0.75953114,0.24666445,0.34801668,8.71241447,0.871117967,crawl
10/07/2020, 15:05:02,-6.778867,-4.587041,-3.495914,0.75953114,0.24666445,0.34801668,8.900302998,0.871117967,crawl
10/07/2020, 15:05:02,-6.778867,-4.587041,-3.495914,0.8169234,0.2759711,0.2515489,8.900302998,0.898220856,crawl
10/07/2020, 15:05:02,-6.8339014,-4.8622155,-4.2257247,0.8169234,0.2759711,0.2515489,9.39149069,0.898220856,crawl
10/07/2020, 15:05:03,-11.13859,-10.679168,-2.5411777,2.6852233,4.5437546,-2.2688246,15.6387465,5.744884247,crawl
10/07/2020, 15:05:03,-11.13859,-10.679168,-2.5411777,2.5081623,4.039436,-2.2492867,15.6387465,5.259962971,crawl
10/07/2020, 15:05:03,-12.1866455,-12.576675,-2.440679,2.5081623,4.039436,-2.2492867,17.68174221,5.259962971,crawl
10/07/2020, 15:05:03,-12.1866455,-12.576675,-2.440679,2.6424847,3.4471967,-2.4214635,17.68174221,4.972863951,crawl
10/07/2020, 15:05:03,-13.153346,-14.534005,-0.4139583,2.6424847,3.4471967,-2.4214635,19.60661063,4.972863951,crawl
10/07/2020, 15:05:03,-13.153346,-14.534005,-0.4139583,3.8379524,3.119939,-2.4458857,19.60661063,5.51781252,crawl
10/07/2020, 15:05:03,-13.304094,-15.1657095,1.6821543,3.8379524,3.119939,-2.4458857,20.24419208,5.51781252,crawl
10/07/2020, 15:05:03,-13.304094,-15.1657095,1.6821543,5.8527856,3.2371657,-2.4336746,20.24419208,7.117381033,crawl
10/07/2020, 15:05:03,-12.078969,-14.091332,2.4861426,5.8527856,3.2371657,-2.4336746,18.72559871,7.117381033,crawl
10/07/2020, 15:05:03,-12.078969,-14.091332,2.4861426,7.075118,3.0710945,-2.636379,18.72559871,8.151037443,crawl
10/07/2020, 15:05:03,-11.222338,-11.239088,3.4576287,7.075118,3.0710945,-2.636379,16.25463505,8.151037443,crawl
10/07/2020, 15:05:03,-11.222338,-11.239088,3.4576287,7.467095,2.6962135,-2.6717913,16.25463505,8.376487462,crawl
10/07/2020, 15:05:03,-11.1936245,-7.932207,3.5174494,7.467095,2.6962135,-2.6717913,14.16296541,8.376487462,crawl
10/07/2020, 15:05:03,-11.1936245,-7.932207,3.5174494,7.2875915,2.548459,-2.426348,14.16296541,8.092638462,crawl
10/07/2020, 15:05:03,-11.083554,-4.955536,2.7445676,7.2875915,2.548459,-2.426348,12.44729539,8.092638462,crawl
10/07/2020, 15:05:03,-11.083554,-4.955536,2.7445676,6.404728,1.6778067,-2.2700458,12.44729539,6.999191604,crawl
10/07/2020, 15:05:03,-13.069597,-3.0747771,2.5722845,6.404728,1.6778067,-2.2700458,13.67059888,6.999191604,crawl
10/07/2020, 15:05:03,-13.069597,-3.0747771,2.5722845,5.979781,0.5336256,-2.4300113,13.67059888,6.476688481,crawl
10/07/2020, 15:05:03,-12.547962,-3.3523445,3.644269,5.979781,0.5336256,-2.4300113,13.48963548,6.476688481,crawl
10/07/2020, 15:05:03,-12.547962,-3.3523445,3.644269,5.131109,1.4140468,-2.0881002,13.48963548,5.717339651,crawl
10/07/2020, 15:05:04,6.364908,-5.1756754,-4.54397,-3.9930334,-0.081814446,0.5043189,9.378024138,4.025586536,crawl
10/07/2020, 15:05:04,6.364908,-5.1756754,-4.54397,-4.1700945,-0.1856089,0.6227667,9.378024138,4.220423799,crawl
10/07/2020, 15:05:04,6.6041903,-5.864808,-4.5678983,-4.1700945,-0.1856089,0.6227667,9.9436914,4.220423799,crawl
10/07/2020, 15:05:04,6.6041903,-5.864808,-4.5678983,-4.273889,-0.19171445,0.67161113,9.9436914,4.330582372,crawl
10/07/2020, 15:05:04,6.8721867,-6.9678993,-3.9194436,-4.273889,-0.19171445,0.67161113,10.54232463,4.330582372,crawl
10/07/2020, 15:05:04,6.8721867,-6.9678993,-3.9194436,-4.1908536,-0.14409111,0.6203245,10.54232463,4.238964329,crawl
10/07/2020, 15:05:04,6.960721,-8.207381,-3.0939198,-4.1908536,-0.14409111,0.6203245,11.1975481,4.238964329,crawl
10/07/2020, 15:05:04,6.960721,-8.207381,-3.0939198,-3.7817812,-0.17828223,0.50676113,11.1975481,3.81974612,crawl
10/07/2020, 15:05:04,6.613762,-9.260223,-2.3018954,-3.7817812,-0.17828223,0.50676113,11.61000887,3.81974612,crawl
10/07/2020, 15:05:04,6.613762,-9.260223,-2.3018954,-3.107728,-0.3162678,0.42128336,11.61000887,3.15205938,crawl
10/07/2020, 15:05:04,6.053841,-9.894321,-1.7635103,-3.107728,-0.3162678,0.42128336,11.73271315,3.15205938,crawl
10/07/2020, 15:05:04,6.053841,-9.894321,-1.7635103,-2.438559,-0.4933289,0.3724389,11.73271315,2.515681699,crawl
10/07/2020, 15:05:04,5.4628143,-9.923036,-1.3926228,-2.438559,-0.4933289,0.3724389,11.412641,2.515681699,crawl
10/07/2020, 15:05:04,5.4628143,-9.923036,-1.3926228,-1.9354612,-0.6581789,0.3260367,11.412641,2.070147178,crawl
10/07/2020, 15:05:04,4.9770713,-9.468399,-1.227518,-1.9354612,-0.6581789,0.3260367,10.76701535,2.070147178,crawl
10/07/2020, 15:05:04,4.9770713,-9.468399,-1.227518,-1.62652,-0.7998278,0.30772,10.76701535,1.838473162,crawl
10/07/2020, 15:05:04,4.56072,-9.032906,-1.3543376,-1.62652,-0.7998278,0.30772,10.20920076,1.838473162,crawl
10/07/2020, 15:05:04,4.56072,-9.032906,-1.3543376,-1.4873134,-0.9133912,0.3260367,10.20920076,1.77558004,crawl
10/07/2020, 15:05:04,4.2257247,-8.740981,-1.6342978,-1.4873134,-0.9133912,0.3260367,9.845426821,1.77558004,crawl
10/07/2020, 15:05:04,4.2257247,-8.740981,-1.6342978,-1.4848711,-1.0196278,0.3602278,9.845426821,1.836912426,crawl
10/07/2020, 15:05:05,2.6991038,-8.530413,5.343173,-0.65451556,-0.28085557,0.8535567,10.42125712,1.111678686,crawl
10/07/2020, 15:05:05,2.6991038,-8.530413,5.343173,-0.18927222,-0.17095557,0.5238567,10.42125712,0.582645367,crawl
10/07/2020, 15:05:05,3.8548372,-9.60479,5.4987063,-0.18927222,-0.17095557,0.5238567,11.71953612,0.582645367,crawl
10/07/2020, 15:05:05,3.8548372,-9.60479,5.4987063,0.3944189,0.023201112,0.08792,11.71953612,0.404764726,crawl
10/07/2020, 15:05:05,3.5844483,-10.061819,5.2307105,0.3944189,0.023201112,0.08792,11.89322519,0.404764726,crawl
10/07/2020, 15:05:05,3.5844483,-10.061819,5.2307105,0.8914111,0.17217667,-0.10867889,11.89322519,0.914368473,crawl
10/07/2020, 15:05:05,2.2229323,-9.667004,4.599005,0.8914111,0.17217667,-0.10867889,10.93358296,0.914368473,crawl
10/07/2020, 15:05:05,2.2229323,-9.667004,4.599005,1.0916734,0.12455334,-0.091583334,10.93358296,1.102566006,crawl
10/07/2020, 15:05:05,0.8781659,-9.042477,3.871587,1.0916734,0.12455334,-0.091583334,9.875563051,1.102566006,crawl
10/07/2020, 15:05:05,0.8781659,-9.042477,3.871587,0.81448114,0.003663334,-0.035412222,9.875563051,0.815258837,crawl
10/07/2020, 15:05:05,0.069391854,-8.60459,3.1657043,0.81448114,0.003663334,-0.035412222,9.16872264,0.815258837,crawl
10/07/2020, 15:05:05,0.069391854,-8.60459,3.1657043,0.18927222,-0.12943779,-0.013432222,9.16872264,0.229692275,crawl
10/07/2020, 15:05:05,-0.0741775,-8.743374,2.5722845,0.18927222,-0.12943779,-0.013432222,9.114205193,0.229692275,crawl
10/07/2020, 15:05:05,-0.0741775,-8.743374,2.5722845,-0.62154555,-0.25765446,-0.02075889,9.114205193,0.673153494,crawl
10/07/2020, 15:05:05,0.24885355,-9.250652,2.3306093,-0.62154555,-0.25765446,-0.02075889,9.542967888,0.673153494,crawl
10/07/2020, 15:05:05,0.24885355,-9.250652,2.3306093,-1.3078101,-0.3162678,-0.10867889,9.542967888,1.349890214,crawl
10/07/2020, 15:05:05,0.7298109,-9.49472,2.0745773,-1.3078101,-0.3162678,-0.10867889,9.746086991,1.349890214,crawl
10/07/2020, 15:05:05,0.7298109,-9.49472,2.0745773,-1.7803801,-0.34191114,-0.26986557,9.746086991,1.832889538,crawl
10/07/2020, 15:05:05,1.1557333,-9.49472,1.5768701,-1.7803801,-0.34191114,-0.26986557,9.693913318,1.832889538,crawl
10/07/2020, 15:05:05,1.1557333,-9.49472,1.5768701,-2.1467135,-0.36755446,-0.40663,9.693913318,2.215586395,crawl
10/07/2020, 15:05:06,3.2566316,-10.466207,-0.81834537,-3.9905913,1.0684723,-0.66428447,10.9916704,4.184223424,crawl
10/07/2020, 15:05:06,3.2566316,-10.466207,-0.81834537,-3.69264,1.1441811,-0.6386411,10.9916704,3.91823986,crawl
10/07/2020, 15:05:06,3.2925239,-10.114461,-1.5553347,-3.69264,1.1441811,-0.6386411,10.74998138,3.91823986,crawl
10/07/2020, 15:05:06,3.2925239,-10.114461,-1.5553347,-3.1223812,1.1881411,-0.49577114,10.74998138,3.377385488,crawl
10/07/2020, 15:05:06,3.6251264,-10.068997,-2.0697916,-3.1223812,1.1881411,-0.49577114,10.90001314,3.377385488,crawl
10/07/2020, 15:05:06,3.6251264,-10.068997,-2.0697916,-2.6840024,1.3993934,-0.3724389,10.90001314,3.04973468,crawl
10/07/2020, 15:05:06,3.9577286,-9.439685,-2.1272194,-2.6840024,1.3993934,-0.3724389,10.45448845,3.04973468,crawl
10/07/2020, 15:05:06,3.9577286,-9.439685,-2.1272194,-2.4336746,1.6582689,-0.27230778,10.45448845,2.957495444,crawl
10/07/2020, 15:05:06,4.0773697,-9.24826,-2.103291,-2.4336746,1.6582689,-0.27230778,10.32371451,2.957495444,crawl
10/07/2020, 15:05:06,4.0773697,-9.24826,-2.103291,-2.3628502,1.8365512,-0.16851334,10.32371451,2.997395208,crawl
10/07/2020, 15:05:06,3.830909,-9.30808,-1.9310079,-2.3628502,1.8365512,-0.16851334,10.24914647,2.997395208,crawl
10/07/2020, 15:05:06,3.830909,-9.30808,-1.9310079,-2.438559,1.8621945,-0.07204556,10.24914647,3.069125173,crawl
10/07/2020, 15:05:06,3.4337006,-9.769895,-1.7826529,-2.438559,1.8621945,-0.07204556,10.50804412,3.069125173,crawl
10/07/2020, 15:05:06,3.4337006,-9.769895,-1.7826529,-2.4983935,1.7034501,-0.019537779,10.50804412,3.023920332,crawl
10/07/2020, 15:05:06,3.1944182,-10.310673,-1.8257236,-2.4983935,1.7034501,-0.019537779,10.94749045,3.023920332,crawl
10/07/2020, 15:05:06,3.1944182,-10.310673,-1.8257236,-2.51671,1.4897556,0.03174889,10.94749045,2.924757985,crawl
10/07/2020, 15:05:06,3.4408789,-11.131411,-2.0267208,-2.51671,1.4897556,0.03174889,11.82605371,2.924757985,crawl
10/07/2020, 15:05:06,3.4408789,-11.131411,-2.0267208,-2.4202423,1.3432223,0.02075889,11.82605371,2.768076915,crawl
10/07/2020, 15:05:06,4.1228333,-11.91865,-2.0338993,-2.4202423,1.3432223,0.02075889,12.77453367,2.768076915,crawl
10/07/2020, 15:05:06,4.1228333,-11.91865,-2.0338993,-2.0783312,1.3871822,-0.026864445,12.77453367,2.498891147,crawl
10/07/2020, 15:05:07,4.7808595,-3.6993039,6.053841,-0.31504667,0.7424356,-1.5239468,8.555142231,1.724203793,crawl
10/07/2020, 15:05:07,4.7808595,-3.6993039,6.053841,-0.4566956,0.7216767,-1.5117356,8.555142231,1.736298513,crawl
10/07/2020, 15:05:07,4.7545385,-3.830909,6.640083,-0.4566956,0.7216767,-1.5117356,9.020654113,1.736298513,crawl
10/07/2020, 15:05:07,4.7545385,-3.830909,6.640083,-0.45791668,0.72778225,-1.5092934,9.020654113,1.737043858,crawl
10/07/2020, 15:05:07,4.8622155,-3.9888353,7.0133634,-0.45791668,0.72778225,-1.5092934,9.420149294,1.737043858,crawl
10/07/2020, 15:05:07,4.8622155,-3.9888353,7.0133634,-0.3260367,0.7863956,-1.4799867,9.420149294,1.707360101,crawl
10/07/2020, 15:05:07,5.1014977,-3.9242291,7.2622166,-0.3260367,0.7863956,-1.4799867,9.70384677,1.707360101,crawl
10/07/2020, 15:05:07,5.1014977,-3.9242291,7.2622166,-0.18927222,0.81448114,-1.4519012,9.70384677,1.675476227,crawl
10/07/2020, 15:05:07,5.369494,-3.574877,7.3268228,-0.18927222,0.81448114,-1.4519012,9.761841161,1.675476227,crawl
10/07/2020, 15:05:07,5.369494,-3.574877,7.3268228,-0.12943779,0.7680789,-1.4921979,9.761841161,1.683256921,crawl
10/07/2020, 15:05:07,5.5537415,-3.4360933,7.503892,-0.12943779,0.7680789,-1.4921979,9.947822669,1.683256921,crawl
10/07/2020, 15:05:07,5.5537415,-3.4360933,7.503892,-0.16729222,0.70580226,-1.56058,9.947822669,1.720916472,crawl
10/07/2020, 15:05:07,5.8193445,-3.5246277,7.702496,-0.16729222,0.70580226,-1.56058,10.27697506,1.720916472,crawl
10/07/2020, 15:05:07,5.8193445,-3.5246277,7.702496,-0.20514667,0.65085226,-1.5837811,10.27697506,1.724545294,crawl
10/07/2020, 15:05:07,6.099305,-3.5437703,7.9537425,-0.20514667,0.65085226,-1.5837811,10.63117356,1.724545294,crawl
10/07/2020, 15:05:07,6.099305,-3.5437703,7.9537425,-0.1856089,0.61788225,-1.5874445,10.63117356,1.713537078,crawl
10/07/2020, 15:05:07,6.309873,-3.4648073,8.169097,-0.1856089,0.61788225,-1.5874445,10.8882291,1.713537078,crawl
10/07/2020, 15:05:07,6.309873,-3.4648073,8.169097,-0.16973445,0.58124894,-1.5752333,10.8882291,1.68760783,crawl
10/07/2020, 15:05:07,6.3050876,-3.278167,8.159525,-0.16973445,0.58124894,-1.5752333,10.82027518,1.68760783,crawl
10/07/2020, 15:05:07,6.3050876,-3.278167,8.159525,-0.18683001,0.56293225,-1.5618012,10.82027518,1.670634954,crawl
10/07/2020, 15:05:08,3.900301,-8.922835,4.5918264,1.0477134,-2.1662512,2.73651,10.76634611,3.644013549,crawl
10/07/2020, 15:05:08,4.019942,-9.040084,4.208975,1.0477134,-2.1662512,2.73651,10.75167512,3.644013549,crawl
10/07/2020, 15:05:08,4.019942,-9.040084,4.208975,1.29682,-2.1894524,2.9184556,10.75167512,3.872057228,crawl
10/07/2020, 15:05:08,3.9984066,-8.891729,3.7663028,1.29682,-2.1894524,2.9184556,10.45156178,3.872057228,crawl
10/07/2020, 15:05:08,3.9984066,-8.891729,3.7663028,1.4628912,-2.2236435,3.107728,10.45156178,4.091774025,crawl
10/07/2020, 15:05:08,3.739982,-8.520842,3.3403804,1.4628912,-2.2236435,3.107728,9.886877541,4.091774025,crawl
10/07/2020, 15:05:08,3.739982,-8.520842,3.3403804,1.5276101,-2.3054578,3.2908945,9.886877541,4.298687588,crawl
10/07/2020, 15:05:08,3.278167,-8.078169,2.955136,1.5276101,-2.3054578,3.2908945,9.205217018,4.298687588,crawl
10/07/2020, 15:05:08,3.278167,-8.078169,2.955136,1.5178412,-2.4226844,3.4618502,9.205217018,4.489726985,crawl
10/07/2020, 15:05:08,2.8163524,-7.783852,2.5627131,1.5178412,-2.4226844,3.4618502,8.665315508,4.489726985,crawl
10/07/2020, 15:05:08,2.8163524,-7.783852,2.5627131,1.4555645,-2.60463,3.6010568,8.665315508,4.676577337,crawl
10/07/2020, 15:05:08,2.4478576,-7.982456,2.3569303,1.4555645,-2.60463,3.6010568,8.675640279,4.676577337,crawl
10/07/2020, 15:05:08,2.4478576,-7.982456,2.3569303,1.3859612,-2.790239,3.7085147,8.675640279,4.843490869,crawl
10/07/2020, 15:05:08,2.3856442,-8.544769,2.2492533,1.3859612,-2.790239,3.7085147,9.152241293,4.843490869,crawl
10/07/2020, 15:05:08,2.3856442,-8.544769,2.2492533,1.394509,-2.8915913,3.790329,9.152241293,4.967146999,crawl
10/07/2020, 15:05:08,2.455036,-9.164511,2.2947168,1.394509,-2.8915913,3.790329,9.761208102,4.967146999,crawl
10/07/2020, 15:05:08,2.455036,-9.164511,2.2947168,1.515399,-2.9294457,3.8855758,9.761208102,5.096644534,crawl
10/07/2020, 15:05:08,2.565106,-9.812965,2.2205393,1.515399,-2.9294457,3.8855758,10.38291159,5.096644534,crawl
10/07/2020, 15:05:08,2.565106,-9.812965,2.2205393,1.6863545,-2.933109,3.986928,10.38291159,5.229007076,crawl
10/07/2020, 15:05:08,2.6895328,-10.322637,1.9645073,1.6863545,-2.933109,3.986928,10.84664474,5.229007076,crawl
10/07/2020, 15:05:09,-8.539984,-1.2179468,3.1465619,-0.6618422,0.09646778,1.2504178,9.182350914,1.41805709,crawl
10/07/2020, 15:05:09,-8.472985,-1.0049855,3.400201,-0.6618422,0.09646778,1.2504178,9.184924741,1.41805709,crawl
10/07/2020, 15:05:09,-8.472985,-1.0049855,3.400201,-0.57148004,0.12577444,1.2015734,9.184924741,1.33648315,crawl
10/07/2020, 15:05:09,-8.518449,-0.7393822,3.6011982,-0.57148004,0.12577444,1.2015734,9.277892269,1.33648315,crawl
10/07/2020, 15:05:09,-8.518449,-0.7393822,3.6011982,-0.53484666,0.123332225,1.17593,9.277892269,1.297722316,crawl
10/07/2020, 15:05:09,-8.537591,-0.47856453,3.9433718,-0.53484666,0.123332225,1.17593,9.41645712,1.297722316,crawl
10/07/2020, 15:05:09,-8.537591,-0.47856453,3.9433718,-0.5507211,0.11234222,1.1441811,9.41645712,1.274780365,crawl
10/07/2020, 15:05:09,-8.46102,-0.25603202,4.1228333,-0.5507211,0.11234222,1.1441811,9.415528334,1.274780365,crawl
10/07/2020, 15:05:09,-8.46102,-0.25603202,4.1228333,-0.5739222,0.085477784,1.0953367,9.415528334,1.239538461,crawl
10/07/2020, 15:05:09,-8.312666,-0.050249275,4.2520456,-0.5739222,0.085477784,1.0953367,9.337174737,1.239538461,crawl
10/07/2020, 15:05:09,-8.312666,-0.050249275,4.2520456,-0.6007867,0.070824444,1.06603,9.337174737,1.225716427,crawl
10/07/2020, 15:05:09,-8.10449,0.09092726,4.342973,-0.6007867,0.070824444,1.06603,9.195240452,1.225716427,crawl
10/07/2020, 15:05:09,-8.10449,0.09092726,4.342973,-0.6032289,0.048844445,1.0489345,9.195240452,1.21100554,crawl
10/07/2020, 15:05:09,-7.9393854,0.19142582,4.362116,-0.6032289,0.048844445,1.0489345,9.060824431,1.21100554,crawl
10/07/2020, 15:05:09,-7.9393854,0.19142582,4.362116,-0.56049,0.035412222,1.0184067,9.060824431,1.162994147,crawl
10/07/2020, 15:05:09,-7.8173513,0.19860429,4.5894337,-0.56049,0.035412222,1.0184067,9.067156504,1.162994147,crawl
10/07/2020, 15:05:09,-7.8173513,0.19860429,4.5894337,-0.48356003,0.059834447,0.9732256,9.067156504,1.088383441,crawl
10/07/2020, 15:05:09,-7.7479596,0.15792629,4.833502,-0.48356003,0.059834447,0.9732256,9.133376084,1.088383441,crawl
10/07/2020, 15:05:09,-7.7479596,0.15792629,4.833502,-0.40174556,0.09524667,0.92316,9.133376084,1.011284252,crawl
10/07/2020, 15:05:09,-7.8628154,0.16510476,4.948357,-0.40174556,0.09524667,0.92316,9.291790103,1.011284252,crawl
10/07/2020, 15:05:10,5.3336015,-8.848659,-2.5842485,0.52141446,-0.029306669,0.23079,10.65008937,0.570960546,crawl
10/07/2020, 15:05:10,5.3336015,-8.848659,-2.5842485,-0.14287001,-0.28818223,0.057392225,10.65008937,0.326733384,crawl
10/07/2020, 15:05:10,5.5944195,-9.226724,-1.7778672,-0.14287001,-0.28818223,0.057392225,10.93575653,0.326733384,crawl
10/07/2020, 15:05:10,5.5944195,-9.226724,-1.7778672,-0.31993112,-0.59956557,-0.09646778,10.93575653,0.686396985,crawl
10/07/2020, 15:05:10,5.8672013,-9.784252,-2.0410776,-0.31993112,-0.59956557,-0.09646778,11.5897213,0.686396985,crawl
10/07/2020, 15:05:10,5.8672013,-9.784252,-2.0410776,-0.13188,-0.63009334,-0.17584,11.5897213,0.667330244,crawl
10/07/2020, 15:05:10,6.1160545,-9.769895,-2.428715,-0.13188,-0.63009334,-0.17584,11.77945755,0.667330244,crawl
10/07/2020, 15:05:10,6.1160545,-9.769895,-2.428715,0.30772,-0.50676113,-0.21735778,11.77945755,0.631460889,crawl
10/07/2020, 15:05:10,5.960521,-9.731609,-3.7256248,0.30772,-0.50676113,-0.21735778,12.00467883,0.631460889,crawl
10/07/2020, 15:05:10,5.960521,-9.731609,-3.7256248,0.8364611,-0.27475002,-0.24666445,12.00467883,0.914329341,crawl
10/07/2020, 15:05:10,5.6446686,-8.930014,-5.1469617,0.8364611,-0.27475002,-0.24666445,11.75153785,0.914329341,crawl
10/07/2020, 15:05:10,5.6446686,-8.930014,-5.1469617,1.1844778,0.085477784,-0.2869611,11.75153785,1.221736798,crawl
10/07/2020, 15:05:10,5.2833524,-6.920043,-6.1734824,1.1844778,0.085477784,-0.2869611,10.67298892,1.221736798,crawl
10/07/2020, 15:05:10,5.2833524,-6.920043,-6.1734824,0.98910004,0.46158,-0.18438779,10.67298892,1.106966055,crawl
10/07/2020, 15:05:10,4.8263235,-5.194818,-6.5539412,0.98910004,0.46158,-0.18438779,9.65575884,1.106966055,crawl
10/07/2020, 15:05:10,4.8263235,-5.194818,-6.5539412,0.42006224,0.5788067,0.091583334,9.65575884,0.721011089,crawl
10/07/2020, 15:05:10,4.304688,-4.2927237,-7.070791,0.42006224,0.5788067,0.091583334,9.324907348,0.721011089,crawl
10/07/2020, 15:05:10,4.304688,-4.2927237,-7.070791,-0.31016225,0.46035892,0.45791668,9.324907348,0.719596161,crawl
10/07/2020, 15:05:10,4.4745784,-4.321438,-4.8287163,-0.31016225,0.46035892,0.45791668,7.874844605,0.719596161,crawl
10/07/2020, 15:05:10,4.4745784,-4.321438,-4.8287163,-0.9133912,0.2735289,0.58247,7.874844605,1.117306044,crawl
10/07/2020, 15:05:11,0.6628119,-7.066005,-7.1688967,-0.36267,3.41789,4.2348137,10.08765726,5.454094706,crawl
10/07/2020, 15:05:11,0.11006984,-7.003792,-6.678368,-0.36267,3.41789,4.2348137,9.678110117,5.454094706,crawl
10/07/2020, 15:05:11,0.11006984,-7.003792,-6.678368,-0.106236674,3.5998356,4.3373866,9.678110117,5.637643605,crawl
10/07/2020, 15:05:11,-0.38524446,-6.9726853,-6.15434,-0.106236674,3.5998356,4.3373866,9.308203498,5.637643605,crawl
10/07/2020, 15:05:11,-0.38524446,-6.9726853,-6.15434,0.3052778,3.757359,4.4192014,9.308203498,5.808638582,crawl
10/07/2020, 15:05:11,-0.89730847,-7.355537,-6.029913,0.3052778,3.757359,4.4192014,9.553477707,5.808638582,crawl
10/07/2020, 15:05:11,-0.89730847,-7.355537,-6.029913,0.6764956,3.919767,4.4216437,9.553477707,5.947533287,crawl
10/07/2020, 15:05:11,-1.2969099,-8.403593,-6.515656,0.6764956,3.919767,4.4216437,10.71242852,5.947533287,crawl
10/07/2020, 15:05:11,-1.2969099,-8.403593,-6.515656,0.89019006,4.1554413,4.2861004,10.71242852,6.035792173,crawl
10/07/2020, 15:05:11,-1.7682959,-9.415757,-6.8219376,0.89019006,4.1554413,4.2861004,11.76104526,6.035792173,crawl
10/07/2020, 15:05:11,-1.7682959,-9.415757,-6.8219376,1.1771512,4.431412,4.0699635,11.76104526,6.130880993,crawl
10/07/2020, 15:05:11,-2.495714,-9.911072,-6.5850477,1.1771512,4.431412,4.0699635,12.15815715,6.130880993,crawl
10/07/2020, 15:05:11,-2.495714,-9.911072,-6.5850477,1.6570479,4.6194634,3.93442,12.15815715,6.290064526,crawl
10/07/2020, 15:05:11,-3.426522,-10.150353,-6.235696,1.6570479,4.6194634,3.93442,12.3957505,6.290064526,crawl
10/07/2020, 15:05:11,-3.426522,-10.150353,-6.235696,2.2224224,4.6927304,3.9014502,12.3957505,6.494782009,crawl
10/07/2020, 15:05:11,-4.290331,-10.135997,-5.8480587,2.2224224,4.6927304,3.9014502,12.4637539,6.494782009,crawl
10/07/2020, 15:05:11,-4.290331,-10.135997,-5.8480587,2.7780278,4.7098255,3.900229,12.4637539,6.716522967,crawl
10/07/2020, 15:05:11,-4.9316072,-9.844072,-5.491528,2.7780278,4.7098255,3.900229,12.30379577,6.716522967,crawl
10/07/2020, 15:05:11,-4.9316072,-9.844072,-5.491528,3.2664723,4.70372,3.845279,12.30379577,6.897897845,crawl
10/07/2020, 15:05:11,-5.209175,-9.391829,-5.2139606,3.2664723,4.70372,3.845279,11.93848124,6.897897845,crawl
10/07/2020, 15:05:12,-10.736595,-5.130212,0.701097,2.35186,-0.21613668,-1.691239,11.91994488,2.904866623,crawl
10/07/2020, 15:05:12,-10.549955,-4.912465,0.64845496,2.35186,-0.21613668,-1.691239,11.65565809,2.904866623,crawl
10/07/2020, 15:05:12,-10.549955,-4.912465,0.64845496,2.4458857,-0.20881,-1.8475412,11.65565809,3.072355254,crawl
10/07/2020, 15:05:12,-10.322637,-4.7449675,0.7369894,2.4458857,-0.20881,-1.8475412,11.38484501,3.072355254,crawl
10/07/2020, 15:05:12,-10.322637,-4.7449675,0.7369894,2.5325844,-0.20881,-1.9879689,11.38484501,3.226392093,crawl
10/07/2020, 15:05:12,-10.114461,-4.599005,0.91884387,2.5325844,-0.20881,-1.9879689,11.14887632,3.226392093,crawl
10/07/2020, 15:05:12,-10.114461,-4.599005,0.91884387,2.60463,-0.21491556,-2.108859,11.14887632,3.358209738,crawl
10/07/2020, 15:05:12,-9.932607,-4.546363,1.1174482,2.60463,-0.21491556,-2.108859,10.98065489,3.358209738,crawl
10/07/2020, 15:05:12,-9.932607,-4.546363,1.1174482,2.6644645,-0.23323223,-2.2126534,10.98065489,3.471253846,crawl
10/07/2020, 15:05:12,-9.856036,-4.5966125,1.3399807,2.6644645,-0.23323223,-2.2126534,10.95745608,3.471253846,crawl
10/07/2020, 15:05:12,-9.856036,-4.5966125,1.3399807,2.7291834,-0.25643334,-2.3054578,10.95745608,3.581806261,crawl
10/07/2020, 15:05:12,-9.949356,-4.723432,1.4811572,2.7291834,-0.25643334,-2.3054578,11.11279998,3.581806261,crawl
10/07/2020, 15:05:12,-9.949356,-4.723432,1.4811572,2.7987869,-0.31016225,-2.3970413,11.11279998,3.698001583,crawl
10/07/2020, 15:05:12,-10.107283,-4.9196434,1.5481563,2.7987869,-0.31016225,-2.3970413,11.34710718,3.698001583,crawl
10/07/2020, 15:05:12,-10.107283,-4.9196434,1.5481563,2.8610635,-0.3931978,-2.4849613,11.34710718,3.809897803,crawl
10/07/2020, 15:05:12,-10.224531,-5.1182475,1.6271194,2.8610635,-0.3931978,-2.4849613,11.54924296,3.809897803,crawl
10/07/2020, 15:05:12,-10.224531,-5.1182475,1.6271194,2.9123502,-0.47745445,-2.54968,11.54924296,3.900078767,crawl
10/07/2020, 15:05:12,-10.327422,-5.2546387,1.6534405,2.9123502,-0.47745445,-2.54968,11.70473157,3.900078767,crawl
10/07/2020, 15:05:12,-10.327422,-5.2546387,1.6534405,2.955089,-0.5421733,-2.6119568,11.70473157,3.981057895,crawl
10/07/2020, 15:05:12,-10.518848,-5.2809596,1.6749759,2.955089,-0.5421733,-2.6119568,11.88866059,3.981057895,crawl
10/07/2020, 15:05:13,-8.69791,-8.516056,4.395615,2.9318879,0.22590557,0.96589893,12.94211291,3.095151131,crawl
10/07/2020, 15:05:13,-8.69791,-8.516056,4.395615,3.2933369,0.19049335,0.48478112,12.94211291,3.334271761,crawl
10/07/2020, 15:05:13,-9.312865,-7.513463,3.8955152,3.2933369,0.19049335,0.48478112,12.58398286,3.334271761,crawl
10/07/2020, 15:05:13,-9.312865,-7.513463,3.8955152,3.327528,0.08059334,0.013432222,12.58398286,3.328530952,crawl
10/07/2020, 15:05:13,-9.930214,-6.8721867,3.586841,3.327528,0.08059334,0.013432222,12.59767944,3.328530952,crawl
10/07/2020, 15:05:13,-9.930214,-6.8721867,3.586841,3.12116,-0.098910004,-0.34801668,12.59767944,3.142059632,crawl
10/07/2020, 15:05:13,-10.289138,-6.314659,3.2398818,3.12116,-0.098910004,-0.34801668,12.49952443,3.142059632,crawl
10/07/2020, 15:05:13,-10.289138,-6.314659,3.2398818,2.790239,-0.35534334,-0.63619894,12.49952443,2.883825964,crawl
10/07/2020, 15:05:13,-10.356136,-5.76431,2.9790642,2.790239,-0.35534334,-0.63619894,12.22095134,2.883825964,crawl
10/07/2020, 15:05:13,-10.356136,-5.76431,2.9790642,2.3897145,-0.6068922,-0.91217005,12.22095134,2.628898567,crawl
10/07/2020, 15:05:13,-10.188639,-5.204389,2.806781,2.3897145,-0.6068922,-0.91217005,11.78015467,2.628898567,crawl
10/07/2020, 15:05:13,-10.188639,-5.204389,2.806781,1.922029,-0.8425667,-1.2101212,11.78015467,2.422500247,crawl
10/07/2020, 15:05:13,-9.958928,-4.7210393,2.7086751,1.922029,-0.8425667,-1.2101212,11.34924588,2.422500247,crawl
10/07/2020, 15:05:13,-9.958928,-4.7210393,2.7086751,1.4384689,-1.0696933,-1.5129567,11.34924588,2.345735445,crawl
10/07/2020, 15:05:13,-9.8632145,-4.4004006,2.7445676,1.4384689,-1.0696933,-1.5129567,11.14357112,2.345735445,crawl
10/07/2020, 15:05:13,-9.8632145,-4.4004006,2.7445676,1.053819,-1.2259957,-1.8048023,11.14357112,2.422996297,crawl
10/07/2020, 15:05:13,-9.963714,-4.194618,2.8785655,1.053819,-1.2259957,-1.8048023,11.18733888,2.422996297,crawl
10/07/2020, 15:05:13,-9.963714,-4.194618,2.8785655,0.8816423,-1.2919356,-2.107638,11.18733888,2.624600552,crawl
10/07/2020, 15:05:13,-10.226924,-4.115655,3.0460632,0.8816423,-1.2919356,-2.107638,11.43709272,2.624600552,crawl
10/07/2020, 15:05:13,-10.226924,-4.115655,3.0460632,0.9378134,-1.2821667,-2.4092524,11.43709272,2.885817497,crawl
10/07/2020, 15:05:14,-9.382257,-5.003392,5.163711,-0.2735289,0.53484666,1.834109,11.8205161,1.92998307,crawl
10/07/2020, 15:05:14,-9.382257,-5.003392,5.163711,-0.2955089,0.48111778,1.6997868,11.8205161,1.791109972,crawl
10/07/2020, 15:05:14,-9.238688,-5.022535,5.312066,-0.2955089,0.48111778,1.6997868,11.78122519,1.791109972,crawl
10/07/2020, 15:05:14,-9.238688,-5.022535,5.312066,-0.32359445,0.44326335,1.5447056,11.78122519,1.639302062,crawl
10/07/2020, 15:05:14,-9.052048,-5.0344987,5.436493,-0.32359445,0.44326335,1.5447056,11.69791436,1.639302062,crawl
10/07/2020, 15:05:14,-9.052048,-5.0344987,5.436493,-0.35778558,0.3944189,1.3774134,11.69791436,1.476768242,crawl
10/07/2020, 15:05:14,-8.95155,-5.070391,5.4891353,-0.35778558,0.3944189,1.3774134,11.66060512,1.476768242,crawl
10/07/2020, 15:05:14,-8.95155,-5.070391,5.4891353,-0.36755446,0.34313223,1.2040156,11.66060512,1.304794849,crawl
10/07/2020, 15:05:14,-8.944371,-5.1613183,5.4867425,-0.36755446,0.34313223,1.2040156,11.69381573,1.304794849,crawl
10/07/2020, 15:05:14,-8.944371,-5.1613183,5.4867425,-0.34557447,0.28818223,1.0391656,11.69381573,1.132402706,crawl
10/07/2020, 15:05:14,-9.035298,-5.3240304,5.4819565,-0.34557447,0.28818223,1.0391656,11.83358622,1.132402706,crawl
10/07/2020, 15:05:14,-9.035298,-5.3240304,5.4819565,-0.29306668,0.22102112,0.88408446,11.83358622,0.957258456,crawl
10/07/2020, 15:05:14,-9.159725,-5.503492,5.424529,-0.29306668,0.22102112,0.88408446,11.98392691,0.957258456,crawl
10/07/2020, 15:05:14,-9.159725,-5.503492,5.424529,-0.20636779,0.1526389,0.7228978,11.98392691,0.767116397,crawl
10/07/2020, 15:05:14,-9.236296,-5.6446686,5.4029937,-0.20636779,0.1526389,0.7228978,12.09809003,0.767116397,crawl
10/07/2020, 15:05:14,-9.236296,-5.6446686,5.4029937,-0.09402556,0.081814446,0.5568267,12.09809003,0.570605288,crawl
10/07/2020, 15:05:14,-9.329616,-5.8672013,5.424529,-0.09402556,0.081814446,0.5568267,12.28378176,0.570605288,crawl
10/07/2020, 15:05:14,-9.329616,-5.8672013,5.424529,0.058613338,0.015874445,0.38709223,12.28378176,0.391826388,crawl
10/07/2020, 15:05:14,-9.52822,-6.111269,5.4963136,0.058613338,0.015874445,0.38709223,12.58348328,0.391826388,crawl
10/07/2020, 15:05:14,-9.52822,-6.111269,5.4963136,0.24422224,-0.042738892,0.22102112,12.58348328,0.332146727,crawl
10/07/2020, 15:05:15,-10.090533,-5.477171,2.9120653,-0.98055226,-0.015874445,3.3421812,11.84476201,3.483089137,crawl
10/07/2020, 15:05:15,-10.191031,-5.4987063,2.7876384,-0.98055226,-0.015874445,3.3421812,11.91066,3.483089137,crawl
10/07/2020, 15:05:15,-10.191031,-5.4987063,2.7876384,-0.9402556,-0.046402223,3.3543923,11.91066,3.483989289,crawl
10/07/2020, 15:05:15,-10.229317,-5.4843497,2.6321049,-0.9402556,-0.046402223,3.3543923,11.90147001,3.483989289,crawl
10/07/2020, 15:05:15,-10.229317,-5.4843497,2.6321049,-0.9072856,-0.08425667,3.3666034,11.90147001,3.487733444,crawl
10/07/2020, 15:05:15,-10.188639,-5.501099,2.5459633,-0.9072856,-0.08425667,3.3666034,11.85547885,3.487733444,crawl
10/07/2020, 15:05:15,-10.188639,-5.501099,2.5459633,-0.88042116,-0.098910004,3.3531713,11.85547885,3.468239136,crawl
10/07/2020, 15:05:15,-10.0881405,-5.5465627,2.548356,-0.88042116,-0.098910004,3.3531713,11.79105825,3.468239136,crawl
10/07/2020, 15:05:15,-10.0881405,-5.5465627,2.548356,-0.83768225,-0.09768889,3.328749,11.79105825,3.433922565,crawl
10/07/2020, 15:05:15,-9.954143,-5.5920267,2.6009982,-0.83768225,-0.09768889,3.328749,11.70986373,3.433922565,crawl
10/07/2020, 15:05:15,-9.954143,-5.5920267,2.6009982,-0.7863956,-0.09402556,3.2762413,11.70986373,3.370610617,crawl
10/07/2020, 15:05:15,-9.80818,-5.6709895,2.8283165,-0.7863956,-0.09402556,3.2762413,11.67732367,3.370610617,crawl
10/07/2020, 15:05:15,-9.80818,-5.6709895,2.8283165,-0.7387723,-0.09768889,3.1895423,11.67732367,3.275440067,crawl
10/07/2020, 15:05:15,-9.65504,-5.723632,3.1872396,-0.7387723,-0.09768889,3.1895423,11.66782977,3.275440067,crawl
10/07/2020, 15:05:15,-9.65504,-5.723632,3.1872396,-0.71435004,-0.10135223,3.0735369,11.66782977,3.157086817,crawl
10/07/2020, 15:05:15,-9.499506,-5.704489,3.4719856,-0.71435004,-0.10135223,3.0735369,11.61191179,3.157086817,crawl
10/07/2020, 15:05:15,-9.499506,-5.704489,3.4719856,-0.7302245,-0.10379445,2.9453201,11.61191179,3.036266088,crawl
10/07/2020, 15:05:15,-9.288938,-5.6374903,3.6251264,-0.7302245,-0.10379445,2.9453201,11.45457109,3.036266088,crawl
10/07/2020, 15:05:15,-9.288938,-5.6374903,3.6251264,-0.78273225,-0.11844778,2.8207667,11.45457109,2.929748172,crawl
10/07/2020, 15:05:15,-8.968299,-5.5465627,3.6251264,-0.78273225,-0.11844778,2.8207667,11.1506181,2.929748172,crawl
10/07/2020, 15:05:16,-8.927621,-4.290331,3.1202407,-0.09768889,0.7668578,2.8976967,10.38485704,2.999043242,crawl
10/07/2020, 15:05:16,-8.927621,-4.290331,3.1202407,0.08059334,0.7863956,2.8744957,10.38485704,2.981214371,crawl
10/07/2020, 15:05:16,-9.037691,-4.220939,3.0939198,0.08059334,0.7863956,2.8744957,10.44358787,2.981214371,crawl
10/07/2020, 15:05:16,-9.037691,-4.220939,3.0939198,0.2515489,0.8071545,2.8537369,10.44358787,2.976338246,crawl
10/07/2020, 15:05:16,-9.312865,-4.101298,2.993421,0.2515489,0.8071545,2.8537369,10.60710484,2.976338246,crawl
10/07/2020, 15:05:16,-9.312865,-4.101298,2.993421,0.39930335,0.8205867,2.832978,10.60710484,2.976335006,crawl
10/07/2020, 15:05:16,-9.753145,-3.9720855,2.8426733,0.39930335,0.8205867,2.832978,10.90789146,2.976335006,crawl
10/07/2020, 15:05:16,-9.753145,-3.9720855,2.8426733,0.49821335,0.83768225,2.8280935,10.90789146,2.991327648,crawl
10/07/2020, 15:05:16,-10.34178,-3.8165522,2.617748,0.49821335,0.83768225,2.8280935,11.33009632,2.991327648,crawl
10/07/2020, 15:05:16,-10.34178,-3.8165522,2.617748,0.5189722,0.8621045,2.8305357,11.33009632,3.00407862,crawl
10/07/2020, 15:05:16,-10.987842,-3.6370904,2.2827528,0.5189722,0.8621045,2.8305357,11.79712042,3.00407862,crawl
10/07/2020, 15:05:16,-10.987842,-3.6370904,2.2827528,0.44448447,0.8669889,2.8268723,11.79712042,2.990057436,crawl
10/07/2020, 15:05:16,-11.609976,-3.4169507,1.9094725,0.44448447,0.8669889,2.8268723,12.25206822,2.990057436,crawl
10/07/2020, 15:05:16,-11.609976,-3.4169507,1.9094725,0.26498112,0.82791334,2.8268723,12.25206822,2.957509556,crawl
10/07/2020, 15:05:16,-12.107682,-3.1800613,1.5457634,0.26498112,0.82791334,2.8268723,12.61341125,2.957509556,crawl
10/07/2020, 15:05:16,-12.107682,-3.1800613,1.5457634,-0.001221111,0.7485411,2.8390834,12.61341125,2.936104568,crawl
10/07/2020, 15:05:16,-12.392428,-2.9742785,1.2921243,-0.001221111,0.7485411,2.8390834,12.80969161,2.936104568,crawl
10/07/2020, 15:05:16,-12.392428,-2.9742785,1.2921243,-0.31016225,0.6569578,2.8537369,12.80969161,2.944759471,crawl
10/07/2020, 15:05:16,-12.354143,-2.87378,1.2562319,-0.31016225,0.6569578,2.8537369,12.74604185,2.944759471,crawl
10/07/2020, 15:05:16,-12.354143,-2.87378,1.2562319,-0.6191034,0.5739222,2.8708324,12.74604185,2.992382765,crawl
10/07/2020, 15:05:17,-7.3579297,-3.2183464,3.330809,-0.3394689,0.57148004,1.5190623,8.694318387,1.658125078,crawl
10/07/2020, 15:05:17,-7.3579297,-3.2183464,3.330809,-0.21247335,0.6349778,1.6411734,8.694318387,1.772510017,crawl
10/07/2020, 15:05:17,-7.8436728,-3.3882368,3.2470603,-0.21247335,0.6349778,1.6411734,9.140391194,1.772510017,crawl
10/07/2020, 15:05:17,-7.8436728,-3.3882368,3.2470603,-0.09768889,0.6984756,1.7669479,9.140391194,1.902502573,crawl
10/07/2020, 15:05:17,-8.532805,-3.5437703,3.1393833,-0.09768889,0.6984756,1.7669479,9.758217274,1.902502573,crawl
10/07/2020, 15:05:17,-8.532805,-3.5437703,3.1393833,-0.01099,0.7436567,1.911039,9.758217274,2.050662356,crawl
10/07/2020, 15:05:17,-9.298509,-3.6323047,2.9766715,-0.01099,0.7436567,1.911039,10.41712404,2.050662356,crawl
10/07/2020, 15:05:17,-9.298509,-3.6323047,2.9766715,0.04151778,0.78029,2.0502455,10.41712404,2.19410185,crawl
10/07/2020, 15:05:17,-10.013963,-3.6586258,2.78046,0.04151778,0.78029,2.0502455,11.01798303,2.19410185,crawl
10/07/2020, 15:05:17,-10.013963,-3.6586258,2.78046,0.05250778,0.78395337,2.1918945,11.01798303,2.328463353,crawl
10/07/2020, 15:05:17,-10.602597,-3.5892339,2.5435705,0.05250778,0.78395337,2.1918945,11.47899904,2.328463353,crawl
10/07/2020, 15:05:17,-10.602597,-3.5892339,2.5435705,0.008547778,0.7570889,2.3249958,11.47899904,2.445171146,crawl
10/07/2020, 15:05:17,-10.99502,-3.4863427,2.3042881,0.008547778,0.7570889,2.3249958,11.76243138,2.445171146,crawl
10/07/2020, 15:05:17,-10.99502,-3.4863427,2.3042881,-0.06227667,0.7302245,2.4556546,11.76243138,2.562683322,crawl
10/07/2020, 15:05:17,-11.16491,-3.3355947,2.199004,-0.06227667,0.7302245,2.4556546,11.85820528,2.562683322,crawl
10/07/2020, 15:05:17,-11.16491,-3.3355947,2.199004,-0.14042778,0.7106867,2.578987,11.85820528,2.678799893,crawl
10/07/2020, 15:05:17,-11.057234,-3.2063823,2.1272194,-0.14042778,0.7106867,2.578987,11.70762014,2.678799893,crawl
10/07/2020, 15:05:17,-11.057234,-3.2063823,2.1272194,-0.22590557,0.6874856,2.6949923,11.70762014,2.790457536,crawl
10/07/2020, 15:05:17,-10.727024,-3.050849,2.132005,-0.22590557,0.6874856,2.6949923,11.35438991,2.790457536,crawl
10/07/2020, 15:05:17,-10.727024,-3.050849,2.132005,-0.3309211,0.68138003,2.7963445,11.35438991,2.897124471,crawl
10/07/2020, 15:05:18,-8.6548395,-3.4408789,1.3734802,-0.6691689,-0.26620224,-1.0965579,9.414475147,1.311903109,crawl
10/07/2020, 15:05:18,-8.6548395,-3.4408789,1.3734802,-0.59834445,-0.15019667,-0.9549089,9.414475147,1.136849215,crawl
10/07/2020, 15:05:18,-8.73141,-3.3092737,1.564906,-0.59834445,-0.15019667,-0.9549089,9.467721183,1.136849215,crawl
10/07/2020, 15:05:18,-8.73141,-3.3092737,1.564906,-0.5641534,-0.04029667,-0.7766267,9.467721183,0.960750691,crawl
10/07/2020, 15:05:18,-8.9013,-3.129812,1.6414764,-0.5641534,-0.04029667,-0.7766267,9.577229102,0.960750691,crawl
10/07/2020, 15:05:18,-8.9013,-3.129812,1.6414764,-0.5788067,0.045181114,-0.56293225,9.577229102,0.808672522,crawl
10/07/2020, 15:05:18,-9.186047,-2.9503503,1.6749759,-0.5788067,0.045181114,-0.56293225,9.79252588,0.808672522,crawl
10/07/2020, 15:05:18,-9.186047,-2.9503503,1.6749759,-0.6288723,0.123332225,-0.32237336,9.79252588,0.717367242,crawl
10/07/2020, 15:05:18,-9.513863,-2.861816,1.6797615,-0.6288723,0.123332225,-0.32237336,10.07596998,0.717367242,crawl
10/07/2020, 15:05:18,-9.513863,-2.861816,1.6797615,-0.69481224,0.20148334,-0.064718895,10.07596998,0.726325077,crawl
10/07/2020, 15:05:18,-9.836894,-2.8115666,1.6510476,-0.69481224,0.20148334,-0.064718895,10.36317273,0.726325077,crawl
10/07/2020, 15:05:18,-9.836894,-2.8115666,1.6510476,-0.74732006,0.26620224,0.21003112,10.36317273,0.820648507,crawl
10/07/2020, 15:05:18,-10.047462,-2.8713872,1.6247265,-0.74732006,0.26620224,0.21003112,10.575259,0.820648507,crawl
10/07/2020, 15:05:18,-10.047462,-2.8713872,1.6247265,-0.79250115,0.31382558,0.4823389,10.575259,0.979385209,crawl
10/07/2020, 15:05:18,-10.059426,-3.0077782,1.6271194,-0.79250115,0.31382558,0.4823389,10.62479669,0.979385209,crawl
10/07/2020, 15:05:18,-10.059426,-3.0077782,1.6271194,-0.8169234,0.34801668,0.73633003,10.62479669,1.153542949,crawl
10/07/2020, 15:05:18,-9.827323,-3.1728828,1.7300107,-0.8169234,0.34801668,0.73633003,10.47074014,1.153542949,crawl
10/07/2020, 15:05:18,-9.827323,-3.1728828,1.7300107,-0.81081784,0.36267,0.9536878,10.47074014,1.303255728,crawl
10/07/2020, 15:05:18,-9.303294,-3.3427732,2.0075781,-0.81081784,0.36267,0.9536878,10.08740726,1.303255728,crawl
10/07/2020, 15:05:18,-9.303294,-3.3427732,2.0075781,-0.7680789,0.37976557,1.13197,10.08740726,1.419691273,crawl
10/07/2020, 15:05:19,-11.971292,-4.7808595,1.6797615,0.23689556,-0.3370267,-3.7561378,12.99961681,3.778660877,crawl
10/07/2020, 15:05:19,-12.05504,-4.965107,1.6295122,0.23689556,-0.3370267,-3.7561378,13.13893433,3.778660877,crawl
10/07/2020, 15:05:19,-12.05504,-4.965107,1.6295122,0.32359445,-0.34435335,-3.6279213,13.13893433,3.658566094,crawl
10/07/2020, 15:05:19,-12.000006,-4.9603214,1.5529419,0.32359445,-0.34435335,-3.6279213,13.0773298,3.658566094,crawl
10/07/2020, 15:05:19,-12.000006,-4.9603214,1.5529419,0.4041878,-0.35778558,-3.5119157,13.0773298,3.55315776,crawl
10/07/2020, 15:05:19,-11.770294,-4.8239303,1.4907285,0.4041878,-0.35778558,-3.5119157,12.80751342,3.55315776,crawl
10/07/2020, 15:05:19,-11.770294,-4.8239303,1.4907285,0.44448447,-0.37488112,-3.3421812,12.80751342,3.392385224,crawl
10/07/2020, 15:05:19,-11.480763,-4.7712884,1.4333007,0.44448447,-0.37488112,-3.3421812,12.51508981,3.392385224,crawl
10/07/2020, 15:05:19,-11.480763,-4.7712884,1.4333007,0.44204223,-0.40174556,-3.1480246,12.51508981,3.204194041,crawl
10/07/2020, 15:05:19,-11.042876,-4.7042894,1.3567305,0.44204223,-0.40174556,-3.1480246,12.07957666,3.204194041,crawl
10/07/2020, 15:05:19,-11.042876,-4.7042894,1.3567305,0.4163989,-0.41395667,-2.997828,12.07957666,3.054786562,crawl
10/07/2020, 15:05:19,-10.590633,-4.486542,1.3256238,0.4163989,-0.41395667,-2.997828,11.57790374,3.054786562,crawl
10/07/2020, 15:05:19,-10.590633,-4.486542,1.3256238,0.35900667,-0.4151778,-2.8769379,11.57790374,2.928827389,crawl
10/07/2020, 15:05:19,-10.2317095,-4.249653,1.2873386,0.35900667,-0.4151778,-2.8769379,11.1536841,2.928827389,crawl
10/07/2020, 15:05:19,-10.2317095,-4.249653,1.2873386,0.2845189,-0.42128336,-2.7401733,11.1536841,2.78693032,crawl
10/07/2020, 15:05:19,-9.954143,-4.125226,1.2179468,0.2845189,-0.42128336,-2.7401733,10.8437004,2.78693032,crawl
10/07/2020, 15:05:19,-9.954143,-4.125226,1.2179468,0.21369445,-0.43105224,-2.5777657,10.8437004,2.622279042,crawl
10/07/2020, 15:05:19,-9.626326,-3.9720855,1.1916257,0.21369445,-0.43105224,-2.5777657,10.48158288,2.622279042,crawl
10/07/2020, 15:05:19,-9.626326,-3.9720855,1.1916257,0.15996556,-0.43349445,-2.4410012,10.48158288,2.484349646,crawl
10/07/2020, 15:05:19,-9.190832,-3.7280176,1.2107682,0.15996556,-0.43349445,-2.4410012,9.991770117,2.484349646,crawl
10/07/2020, 15:05:20,-11.954542,-4.220939,1.5170496,0.20148334,-1.00009,-3.6560068,12.76827494,3.795676668,crawl
10/07/2020, 15:05:20,-11.954542,-4.2759743,1.3567305,0.20148334,-1.00009,-3.6560068,12.76854541,3.795676668,crawl
10/07/2020, 15:05:20,-11.954542,-4.2759743,1.3567305,0.21003112,-0.9952056,-3.5912879,12.76854541,3.732545466,crawl
10/07/2020, 15:05:20,-11.91865,-4.3334017,1.253839,0.21003112,-0.9952056,-3.5912879,12.74380997,3.732545466,crawl
10/07/2020, 15:05:20,-11.91865,-4.3334017,1.253839,0.23445335,-0.9634567,-3.5168002,12.74380997,3.653915786,crawl
10/07/2020, 15:05:20,-11.820544,-4.3908296,1.1150553,0.23445335,-0.9634567,-3.5168002,12.65890986,3.653915786,crawl
10/07/2020, 15:05:20,-11.820544,-4.3908296,1.1150553,0.25521225,-0.9329289,-3.4655135,12.65890986,3.597954038,crawl
10/07/2020, 15:05:20,-11.7463665,-4.3788652,1.0193424,0.25521225,-0.9329289,-3.4655135,12.57738628,3.597954038,crawl
10/07/2020, 15:05:20,-11.7463665,-4.3788652,1.0193424,0.26498112,-0.9194967,-3.394689,12.57738628,3.526982162,crawl
10/07/2020, 15:05:20,-11.660225,-4.369294,0.93559366,0.26498112,-0.9194967,-3.394689,12.4870698,3.526982162,crawl
10/07/2020, 15:05:20,-11.660225,-4.369294,0.93559366,0.26376,-0.90240115,-3.2640302,12.4870698,3.396732318,crawl
10/07/2020, 15:05:20,-11.566905,-4.402794,0.8327023,0.26376,-0.90240115,-3.2640302,12.40448624,3.396732318,crawl
10/07/2020, 15:05:20,-11.566905,-4.402794,0.8327023,0.25277,-0.8853056,-3.1443613,12.40448624,3.276380071,crawl
10/07/2020, 15:05:20,-11.373086,-4.3405805,0.66759753,0.25277,-0.8853056,-3.1443613,12.19153025,3.276380071,crawl
10/07/2020, 15:05:20,-11.373086,-4.3405805,0.66759753,0.24544334,-0.8767578,-3.0601046,12.19153025,3.192677073,crawl
10/07/2020, 15:05:20,-11.145768,-4.2448673,0.5838487,0.24544334,-0.8767578,-3.0601046,11.94101863,3.192677073,crawl
10/07/2020, 15:05:20,-11.145768,-4.2448673,0.5838487,0.23689556,-0.8547778,-2.9673002,11.94101863,3.097036479,crawl
10/07/2020, 15:05:20,-10.810773,-4.1443686,0.5479564,0.23689556,-0.8547778,-2.9673002,11.59089549,3.097036479,crawl
10/07/2020, 15:05:20,-10.810773,-4.1443686,0.5479564,0.19782001,-0.82791334,-2.867169,11.59089549,2.990857867,crawl
10/07/2020, 15:05:20,-10.518848,-4.0103707,0.5024927,0.19782001,-0.82791334,-2.867169,11.26861768,2.990857867,crawl
10/07/2020, 15:05:21,-10.973485,-5.0799623,3.1082766,0.74121445,-0.9268234,-3.1016223,12.48538237,3.320912766,crawl
10/07/2020, 15:05:21,-10.822737,-4.974678,2.9862428,0.74121445,-0.9268234,-3.1016223,12.2799307,3.320912766,crawl
10/07/2020, 15:05:21,-10.822737,-4.974678,2.9862428,0.6777167,-0.9646778,-3.2164068,12.2799307,3.425664317,crawl
10/07/2020, 15:05:21,-10.652846,-4.8263235,2.8929226,0.6777167,-0.9646778,-3.2164068,12.04763608,3.425664317,crawl
10/07/2020, 15:05:21,-10.652846,-4.8263235,2.8929226,0.6288723,-0.9927634,-3.3189802,12.04763608,3.520893237,crawl
10/07/2020, 15:05:21,-10.425529,-4.6731825,2.8187451,0.6288723,-0.9927634,-3.3189802,11.76756575,3.520893237,crawl
10/07/2020, 15:05:21,-10.425529,-4.6731825,2.8187451,0.6032289,-0.99032116,-3.4093423,11.76756575,3.601143704,crawl
10/07/2020, 15:05:21,-10.241281,-4.520042,2.6919255,0.6032289,-0.99032116,-3.4093423,11.51351682,3.601143704,crawl
10/07/2020, 15:05:21,-10.241281,-4.520042,2.6919255,0.6020078,-0.97566783,-3.4850512,11.51351682,3.668776727,crawl
10/07/2020, 15:05:21,-10.095319,-4.35733,2.5746772,0.6020078,-0.97566783,-3.4850512,11.29295124,3.668776727,crawl
10/07/2020, 15:05:21,-10.095319,-4.35733,2.5746772,0.6117767,-0.9646778,-3.5522125,11.29295124,3.731365367,crawl
10/07/2020, 15:05:21,-9.963714,-4.199404,2.4837499,0.6117767,-0.9646778,-3.5522125,11.09412434,3.731365367,crawl
10/07/2020, 15:05:21,-9.963714,-4.199404,2.4837499,0.6203245,-0.93903446,-3.613268,11.09412434,3.784480559,crawl
10/07/2020, 15:05:21,-9.870394,-4.063013,2.3042881,0.6203245,-0.93903446,-3.613268,10.91982106,3.784480559,crawl
10/07/2020, 15:05:21,-9.870394,-4.063013,2.3042881,0.6203245,-0.9170545,-3.6401324,10.91982106,3.804780608,crawl
10/07/2020, 15:05:21,-9.844072,-3.9625144,2.160719,0.6203245,-0.9170545,-3.6401324,10.82940381,3.804780608,crawl
10/07/2020, 15:05:21,-9.844072,-3.9625144,2.160719,0.6227667,-0.8914111,-3.6560068,10.82940381,3.814293898,crawl
10/07/2020, 15:05:21,-9.896714,-3.9553359,1.9788643,0.6227667,-0.8914111,-3.6560068,10.83999713,3.814293898,crawl
10/07/2020, 15:05:21,-9.896714,-3.9553359,1.9788643,0.61299783,-0.86088336,-3.6547856,10.83999713,3.804516331,crawl
10/07/2020, 15:05:21,-10.001999,-3.9481573,1.8185452,0.61299783,-0.86088336,-3.6547856,10.90573404,3.804516331,crawl
10/07/2020, 15:05:22,-8.283952,-3.603591,2.2779672,-0.22102112,-0.8120389,-1.559359,9.316590537,1.771964406,crawl
10/07/2020, 15:05:22,-8.578269,-3.6275191,2.4047868,-0.22102112,-0.8120389,-1.559359,9.619178439,1.771964406,crawl
10/07/2020, 15:05:22,-8.578269,-3.6275191,2.4047868,-0.117226675,-0.7631945,-1.8218979,9.619178439,1.978767235,crawl
10/07/2020, 15:05:22,-9.040084,-3.7040894,2.5292134,-0.117226675,-0.7631945,-1.8218979,10.09159628,1.978767235,crawl
10/07/2020, 15:05:22,-9.040084,-3.7040894,2.5292134,0,-0.7326667,-2.0636778,10.09159628,2.189878185,crawl
10/07/2020, 15:05:22,-9.552148,-3.8668015,2.656033,0,-0.7326667,-2.0636778,10.64190745,2.189878185,crawl
10/07/2020, 15:05:22,-9.552148,-3.8668015,2.656033,0.085477784,-0.72900337,-2.2908046,10.64190745,2.405522437,crawl
10/07/2020, 15:05:22,-10.030712,-4.065406,2.7206392,0.085477784,-0.72900337,-2.2908046,11.15995467,2.405522437,crawl
10/07/2020, 15:05:22,-10.030712,-4.065406,2.7206392,0.12943779,-0.7448778,-2.4849613,11.15995467,2.597427501,crawl
10/07/2020, 15:05:22,-10.451849,-4.3357944,2.7302105,0.12943779,-0.7448778,-2.4849613,11.64020233,2.597427501,crawl
10/07/2020, 15:05:22,-10.451849,-4.3357944,2.7302105,0.13920668,-0.7888378,-2.658359,11.64020233,2.77642151,crawl
10/07/2020, 15:05:22,-10.722239,-4.6372905,2.7230322,0.13920668,-0.7888378,-2.658359,11.99523934,2.77642151,crawl
10/07/2020, 15:05:22,-10.722239,-4.6372905,2.7230322,0.11600556,-0.83768225,-2.8146613,11.99523934,2.938960168,crawl
10/07/2020, 15:05:22,-10.786844,-4.898108,2.7206392,0.11600556,-0.83768225,-2.8146613,12.15521899,2.938960168,crawl
10/07/2020, 15:05:22,-10.786844,-4.898108,2.7206392,0.085477784,-0.88042116,-2.9746268,12.15521899,3.10336146,crawl
10/07/2020, 15:05:22,-10.710274,-5.0799623,2.754139,0.085477784,-0.88042116,-2.9746268,12.16968617,3.10336146,crawl
10/07/2020, 15:05:22,-10.710274,-5.0799623,2.754139,0.07448778,-0.9133912,-3.1284869,12.16968617,3.259948155,crawl
10/07/2020, 15:05:22,-10.573883,-5.2498527,2.7900312,0.07448778,-0.9133912,-3.1284869,12.13063188,3.259948155,crawl
10/07/2020, 15:05:22,-10.573883,-5.2498527,2.7900312,0.09036223,-0.92316,-3.2921157,12.13063188,3.420294644,crawl
10/07/2020, 15:05:22,-10.459028,-5.355137,2.845066,0.09036223,-0.92316,-3.2921157,12.08979585,3.420294644,crawl
10/07/2020, 15:05:23,-8.997013,-4.3645086,4.386044,0.21613668,0.58613336,1.9244711,10.91936639,2.023328087,crawl
10/07/2020, 15:05:23,-8.865408,-4.2448673,4.3094735,0.21613668,0.58613336,1.9244711,10.73247029,2.023328087,crawl
10/07/2020, 15:05:23,-8.865408,-4.2448673,4.3094735,0.20026223,0.5482789,1.8060234,10.73247029,1.898008198,crawl
10/07/2020, 15:05:23,-8.762517,-4.1276193,4.1228333,0.20026223,0.5482789,1.8060234,10.52695106,1.898008198,crawl
10/07/2020, 15:05:23,-8.762517,-4.1276193,4.1228333,0.14042778,0.47867557,1.6985656,10.52695106,1.770303752,crawl
10/07/2020, 15:05:23,-8.628518,-4.1515474,3.9744785,0.14042778,0.47867557,1.6985656,10.36740806,1.770303752,crawl
10/07/2020, 15:05:23,-8.628518,-4.1515474,3.9744785,0.06716111,0.3944189,1.5788968,10.36740806,1.628800743,crawl
10/07/2020, 15:05:23,-8.480164,-4.3094735,3.9314077,0.06716111,0.3944189,1.5788968,10.29275,1.628800743,crawl
10/07/2020, 15:05:23,-8.480164,-4.3094735,3.9314077,0.03052778,0.31504667,1.4470167,10.29275,1.481230477,crawl
10/07/2020, 15:05:23,-8.279166,-4.56072,3.9960139,0.03052778,0.31504667,1.4470167,10.26220673,1.481230477,crawl
10/07/2020, 15:05:23,-8.279166,-4.56072,3.9960139,0.06594,0.2515489,1.3078101,10.26220673,1.333413702,crawl
10/07/2020, 15:05:23,-8.075776,-4.9196434,4.101298,0.06594,0.2515489,1.3078101,10.3073612,1.333413702,crawl
10/07/2020, 15:05:23,-8.075776,-4.9196434,4.101298,0.17217667,0.20270446,1.1527289,10.3073612,1.183012196,crawl
10/07/2020, 15:05:23,-8.008778,-5.3383875,4.278367,0.17217667,0.20270446,1.1527289,10.53296371,1.183012196,crawl
10/07/2020, 15:05:23,-8.008778,-5.3383875,4.278367,0.34557447,0.1746189,0.9732256,10.53296371,1.047416598,crawl
10/07/2020, 15:05:23,-8.2145605,-5.800202,4.4147577,0.34557447,0.1746189,0.9732256,10.98232362,1.047416598,crawl
10/07/2020, 15:05:23,-8.2145605,-5.800202,4.4147577,0.5775856,0.14897557,0.7766267,10.98232362,0.979258832,crawl
10/07/2020, 15:05:23,-8.752945,-6.3290157,4.5391846,0.5775856,0.14897557,0.7766267,11.71642787,0.979258832,crawl
10/07/2020, 15:05:23,-8.752945,-6.3290157,4.5391846,0.8327978,0.08792,0.59468114,11.71642787,1.027096786,crawl
10/07/2020, 15:05:23,-9.406186,-6.7022963,4.5152564,0.8327978,0.08792,0.59468114,12.40099401,1.027096786,crawl
10/07/2020, 15:05:24,-10.375279,-4.462614,3.062813,-0.83524,0.54950005,3.52779,11.70222932,3.666725916,crawl
10/07/2020, 15:05:24,-10.375279,-4.462614,3.062813,-0.75098336,0.58124894,3.5241268,11.70222932,3.649835039,crawl
10/07/2020, 15:05:24,-10.561919,-4.5415773,3.0819557,-0.75098336,0.58124894,3.5241268,11.90287835,3.649835039,crawl
10/07/2020, 15:05:24,-10.561919,-4.5415773,3.0819557,-0.6691689,0.61299783,3.5058103,11.90287835,3.621361474,crawl
10/07/2020, 15:05:24,-10.782059,-4.5559344,3.0723844,-0.6691689,0.61299783,3.5058103,12.10160627,3.621361474,crawl
10/07/2020, 15:05:24,-10.782059,-4.5559344,3.0723844,-0.6007867,0.6288723,3.4838302,12.10160627,3.590751723,crawl
10/07/2020, 15:05:24,-11.009377,-4.5415773,3.1250265,-0.6007867,0.6288723,3.4838302,12.31251748,3.590751723,crawl
10/07/2020, 15:05:24,-11.009377,-4.5415773,3.1250265,-0.5568267,0.63131446,3.4581869,12.31251748,3.559167082,crawl
10/07/2020, 15:05:24,-11.148161,-4.5296135,3.141776,-0.5568267,0.63131446,3.4581869,12.43662525,3.559167082,crawl
10/07/2020, 15:05:24,-11.148161,-4.5296135,3.141776,-0.5262989,0.62643003,3.4288802,12.43662525,3.525141788,crawl
10/07/2020, 15:05:24,-11.229517,-4.54397,3.1513474,-0.5262989,0.62643003,3.4288802,12.5172164,3.525141788,crawl
10/07/2020, 15:05:24,-11.229517,-4.54397,3.1513474,-0.49821335,0.62154555,3.394689,12.5172164,3.486896814,crawl
10/07/2020, 15:05:24,-11.196017,-4.601398,3.199204,-0.49821335,0.62154555,3.394689,12.52032636,3.486896814,crawl
10/07/2020, 15:05:24,-11.196017,-4.601398,3.199204,-0.4591378,0.6288723,3.339739,12.52032636,3.429306782,crawl
10/07/2020, 15:05:24,-11.124232,-4.6731825,3.2470603,-0.4591378,0.6288723,3.339739,12.49522226,3.429306782,crawl
10/07/2020, 15:05:24,-11.124232,-4.6731825,3.2470603,-0.4151778,0.6337567,3.2774622,12.49522226,3.363893416,crawl
10/07/2020, 15:05:24,-11.030912,-4.6875396,3.3236306,-0.4151778,0.6337567,3.2774622,12.43786862,3.363893416,crawl
10/07/2020, 15:05:24,-11.030912,-4.6875396,3.3236306,-0.36755446,0.6447467,3.19809,12.43786862,3.283073979,crawl
10/07/2020, 15:05:24,-11.01177,-4.7306104,3.4743786,-0.36755446,0.6447467,3.19809,12.47834384,3.283073979,crawl
10/07/2020, 15:05:24,-11.01177,-4.7306104,3.4743786,-0.33214223,0.6740534,3.0955167,12.47834384,3.18541833,crawl
10/07/2020, 15:05:25,-7.771888,-3.1561332,1.5696917,-0.07204556,0.10013112,-0.85722005,8.53389408,0.866050243,crawl
10/07/2020, 15:05:25,-7.795816,-3.1082766,1.6103697,-0.07204556,0.10013112,-0.85722005,8.54572526,0.866050243,crawl
10/07/2020, 15:05:25,-7.795816,-3.1082766,1.6103697,-0.06105556,0.15752333,-0.6325356,8.54572526,0.654708056,crawl
10/07/2020, 15:05:25,-7.999206,-3.1345978,1.6510476,-0.06105556,0.15752333,-0.6325356,8.7486547,0.654708056,crawl
10/07/2020, 15:05:25,-7.999206,-3.1345978,1.6510476,-0.05372889,0.21491556,-0.3602278,8.7486547,0.422894259,crawl
10/07/2020, 15:05:25,-8.425129,-3.266203,1.7156538,-0.05372889,0.21491556,-0.3602278,9.197518526,0.422894259,crawl
10/07/2020, 15:05:25,-8.425129,-3.266203,1.7156538,-0.036633335,0.2759711,-0.05250778,9.197518526,0.283300414,crawl
10/07/2020, 15:05:25,-9.016156,-3.493521,1.7826529,-0.036633335,0.2759711,-0.05250778,9.832274028,0.283300414,crawl
10/07/2020, 15:05:25,-9.016156,-3.493521,1.7826529,-0.009768889,0.32970002,0.27719223,9.832274028,0.430851565,crawl
10/07/2020, 15:05:25,-9.698111,-3.7016966,1.8400806,-0.009768889,0.32970002,0.27719223,10.5423813,0.430851565,crawl
10/07/2020, 15:05:25,-9.698111,-3.7016966,1.8400806,0.012211111,0.35534334,0.6056711,10.5423813,0.702321502,crawl
10/07/2020, 15:05:25,-10.2317095,-3.8668015,1.847259,0.012211111,0.35534334,0.6056711,11.09289857,0.702321502,crawl
10/07/2020, 15:05:25,-10.2317095,-3.8668015,1.847259,-0.015874445,0.34313223,0.9048434,11.09289857,0.967849825,crawl
10/07/2020, 15:05:25,-10.348958,-3.8787656,1.8257236,-0.015874445,0.34313223,0.9048434,11.20174189,0.967849825,crawl
10/07/2020, 15:05:25,-10.348958,-3.8787656,1.8257236,-0.123332225,0.30649891,1.1502867,11.20174189,1.19679232,crawl
10/07/2020, 15:05:25,-9.987641,-3.694518,1.7754744,-0.123332225,0.30649891,1.1502867,10.79605265,1.19679232,crawl
10/07/2020, 15:05:25,-9.987641,-3.694518,1.7754744,-0.30772,0.24300112,1.3420012,10.79605265,1.398108853,crawl
10/07/2020, 15:05:25,-9.195618,-3.3690944,1.8233309,-0.30772,0.24300112,1.3420012,9.961662352,1.398108853,crawl
10/07/2020, 15:05:25,-9.195618,-3.3690944,1.8233309,-0.5262989,0.17828223,1.4763234,9.961662352,1.577436448,crawl
10/07/2020, 15:05:25,-8.216953,-3.1082766,2.0147567,-0.5262989,0.17828223,1.4763234,9.013265174,1.577436448,crawl
10/07/2020, 15:05:26,-8.551949,-2.9862428,2.5435705,-0.12455334,0.45425335,1.2321012,9.408677953,1.319065202,crawl
10/07/2020, 15:05:26,-9.032906,-3.1369905,2.2037897,-0.12455334,0.45425335,1.2321012,9.812786657,1.319065202,crawl
10/07/2020, 15:05:26,-9.032906,-3.1369905,2.2037897,-0.109900005,0.42861003,1.4140468,9.812786657,1.481658806,crawl
10/07/2020, 15:05:26,-9.439685,-3.3020952,1.8281165,-0.109900005,0.42861003,1.4140468,10.166292,1.481658806,crawl
10/07/2020, 15:05:26,-9.439685,-3.3020952,1.8281165,-0.13432223,0.39197668,1.5923289,10.166292,1.64535696,crawl
10/07/2020, 15:05:26,-9.705289,-3.4480574,1.4668003,-0.13432223,0.39197668,1.5923289,10.40352034,1.64535696,crawl
10/07/2020, 15:05:26,-9.705289,-3.4480574,1.4668003,-0.20270446,0.34557447,1.7718323,10.40352034,1.816562874,crawl
10/07/2020, 15:05:26,-9.772287,-3.495914,1.2059826,-0.20270446,0.34557447,1.7718323,10.44860799,1.816562874,crawl
10/07/2020, 15:05:26,-9.772287,-3.495914,1.2059826,-0.31016225,0.29062447,1.9427879,10.44860799,1.988740297,crawl
10/07/2020, 15:05:26,-9.659825,-3.481557,1.0624132,-0.31016225,0.29062447,1.9427879,10.32289618,1.988740297,crawl
10/07/2020, 15:05:26,-9.659825,-3.481557,1.0624132,-0.46646446,0.23689556,2.09909,10.32289618,2.163304843,crawl
10/07/2020, 15:05:26,-9.401401,-3.4049866,1.0480564,-0.46646446,0.23689556,2.09909,10.05378976,2.163304843,crawl
10/07/2020, 15:05:26,-9.401401,-3.4049866,1.0480564,-0.61788225,0.18316667,2.2382967,10.05378976,2.329227519,crawl
10/07/2020, 15:05:26,-9.135797,-3.359523,1.1509477,-0.61788225,0.18316667,2.2382967,9.801727108,2.329227519,crawl
10/07/2020, 15:05:26,-9.135797,-3.359523,1.1509477,-0.77296335,0.14409111,2.3579657,9.801727108,2.485605934,crawl
10/07/2020, 15:05:26,-8.906086,-3.318845,1.3567305,-0.77296335,0.14409111,2.3579657,9.600719617,2.485605934,crawl
10/07/2020, 15:05:26,-8.906086,-3.318845,1.3567305,-0.91461223,0.117226675,2.4703078,9.600719617,2.636793202,crawl
10/07/2020, 15:05:26,-8.709874,-3.347559,1.6175481,-0.91461223,0.117226675,2.4703078,9.470191167,2.636793202,crawl
10/07/2020, 15:05:26,-8.709874,-3.347559,1.6175481,-1.0257334,0.10379445,2.5545645,9.470191167,2.754759855,crawl
10/07/2020, 15:05:26,-8.573483,-3.4049866,1.8496519,-1.0257334,0.10379445,2.5545645,9.408494296,2.754759855,crawl
10/07/2020, 15:05:27,-8.736196,-2.105684,1.0336994,-1.1222012,-0.2075889,0.15141778,9.045637217,1.151241085,crawl
10/07/2020, 15:05:27,-8.736196,-2.105684,1.0336994,-1.2015734,-0.10501556,0.19782001,9.045637217,1.222268216,crawl
10/07/2020, 15:05:27,-7.6833534,-1.9669002,1.3184453,-1.2015734,-0.10501556,0.19782001,8.039957365,1.222268216,crawl
10/07/2020, 15:05:27,-7.6833534,-1.9669002,1.3184453,-1.1722667,0.048844445,0.23811668,8.039957365,1.197202824,crawl
10/07/2020, 15:05:27,-6.95115,-2.0075781,1.591227,-1.1722667,0.048844445,0.23811668,7.408161648,1.197202824,crawl
10/07/2020, 15:05:27,-6.95115,-2.0075781,1.591227,-1.0501556,0.22590557,0.2955089,7.408161648,1.114085139,crawl
10/07/2020, 15:05:27,-6.7501526,-2.1296122,1.7324036,-1.0501556,0.22590557,0.2955089,7.287045387,1.114085139,crawl
10/07/2020, 15:05:27,-6.7501526,-2.1296122,1.7324036,-0.86576784,0.38220778,0.3370267,7.287045387,1.004601275,crawl
10/07/2020, 15:05:27,-6.946364,-2.3138595,1.8568304,-0.86576784,0.38220778,0.3370267,7.553392376,1.004601275,crawl
10/07/2020, 15:05:27,-6.946364,-2.3138595,1.8568304,-0.64963114,0.49821335,0.3944189,7.553392376,0.908737272,crawl
10/07/2020, 15:05:27,-7.3603225,-2.5172493,1.9190438,-0.64963114,0.49821335,0.3944189,8.012092126,0.908737272,crawl
10/07/2020, 15:05:27,-7.3603225,-2.5172493,1.9190438,-0.4566956,0.58491224,0.47501224,8.012092126,0.881095806,crawl
10/07/2020, 15:05:27,-7.920243,-2.6919255,1.8903298,-0.4566956,0.58491224,0.47501224,8.576132912,0.881095806,crawl
10/07/2020, 15:05:27,-7.920243,-2.6919255,1.8903298,-0.32359445,0.6203245,0.57148004,8.576132912,0.903385453,crawl
10/07/2020, 15:05:27,-8.4682,-2.8187451,1.8711873,-0.32359445,0.6203245,0.57148004,9.119049996,0.903385453,crawl
10/07/2020, 15:05:27,-8.4682,-2.8187451,1.8711873,-0.2503278,0.6203245,0.6972545,9.119049996,0.96624546,crawl
10/07/2020, 15:05:27,-8.985049,-2.9671001,1.8281165,-0.2503278,0.6203245,0.6972545,9.637261194,0.96624546,crawl
10/07/2020, 15:05:27,-8.985049,-2.9671001,1.8281165,-0.21491556,0.60811335,0.84745115,9.637261194,1.064971358,crawl
10/07/2020, 15:05:27,-9.501899,-3.0987053,1.7754744,-0.21491556,0.60811335,0.84745115,10.15087997,1.064971358,crawl
10/07/2020, 15:05:27,-9.501899,-3.0987053,1.7754744,-0.20392556,0.58124894,1.009859,10.15087997,1.182899445,crawl
10/07/2020, 15:05:28,-6.7908306,-1.0313065,2.2085752,-0.74732006,0.35534334,0.63986224,7.215038333,1.046030517,crawl
10/07/2020, 15:05:28,-6.7908306,-1.0313065,2.2085752,-0.5653745,0.5018767,0.7131289,7.215038333,1.039269654,crawl
10/07/2020, 15:05:28,-6.9990063,-1.3064811,2.321038,-0.5653745,0.5018767,0.7131289,7.488671387,1.039269654,crawl
10/07/2020, 15:05:28,-6.9990063,-1.3064811,2.321038,-0.35290113,0.60933447,0.78395337,7.488671387,1.053760213,crawl
10/07/2020, 15:05:28,-7.728817,-1.6965113,2.3521447,-0.35290113,0.60933447,0.78395337,8.255019519,1.053760213,crawl
10/07/2020, 15:05:28,-7.728817,-1.6965113,2.3521447,-0.16729222,0.6520734,0.8877478,8.255019519,1.114128621,crawl
10/07/2020, 15:05:28,-8.719446,-2.0937197,2.2707887,-0.16729222,0.6520734,0.8877478,9.250345138,1.114128621,crawl
10/07/2020, 15:05:28,-8.719446,-2.0937197,2.2707887,-0.04396,0.63619894,1.0159645,9.250345138,1.199527178,crawl
10/07/2020, 15:05:28,-9.635897,-2.4311078,2.1678972,-0.04396,0.63619894,1.0159645,10.17155682,1.199527178,crawl
10/07/2020, 15:05:28,-9.635897,-2.4311078,2.1678972,-0.001221111,0.59590226,1.1478444,10.17155682,1.293308874,crawl
10/07/2020, 15:05:28,-10.439885,-2.6656044,2.0147567,-0.001221111,0.59590226,1.1478444,10.96156434,1.293308874,crawl
10/07/2020, 15:05:28,-10.439885,-2.6656044,2.0147567,-0.024422223,0.53973114,1.2687345,10.96156434,1.378982694,crawl
10/07/2020, 15:05:28,-11.002198,-2.8929226,1.9070797,-0.024422223,0.53973114,1.2687345,11.53491743,1.378982694,crawl
10/07/2020, 15:05:28,-11.002198,-2.8929226,1.9070797,-0.089141116,0.4701278,1.3859612,11.53491743,1.466238267,crawl
10/07/2020, 15:05:28,-11.356337,-3.0317063,1.8257236,-0.089141116,0.4701278,1.3859612,11.89499437,1.466238267,crawl
10/07/2020, 15:05:28,-11.356337,-3.0317063,1.8257236,-0.19049335,0.41029334,1.4921979,11.89499437,1.559257139,crawl
10/07/2020, 15:05:28,-11.466406,-3.050849,1.7563318,-0.19049335,0.41029334,1.4921979,11.99461731,1.559257139,crawl
10/07/2020, 15:05:28,-11.466406,-3.050849,1.7563318,-0.31993112,0.34679556,1.5984346,11.99461731,1.666618177,crawl
10/07/2020, 15:05:28,-11.356337,-2.9790642,1.7300107,-0.31993112,0.34679556,1.5984346,11.86735614,1.666618177,crawl
10/07/2020, 15:05:28,-11.356337,-2.9790642,1.7300107,-0.47623336,0.2820767,1.6875756,11.86735614,1.77602838,crawl
10/07/2020, 15:05:29,-9.131011,-2.3186452,1.2011969,-1.3603178,-0.4798967,-0.23689556,9.497070696,1.461808788,crawl
10/07/2020, 15:05:29,-9.131011,-2.3186452,1.2011969,-1.3566545,-0.3724389,-0.07326667,9.497070696,1.408754856,crawl
10/07/2020, 15:05:29,-9.372686,-2.4335005,1.3351951,-1.3566545,-0.3724389,-0.07326667,9.77506628,1.408754856,crawl
10/07/2020, 15:05:29,-9.372686,-2.4335005,1.3351951,-1.3285689,-0.26864445,0.12455334,9.77506628,1.361168172,crawl
10/07/2020, 15:05:29,-9.683753,-2.6512475,1.4356936,-1.3285689,-0.26864445,0.12455334,10.14225823,1.361168172,crawl
10/07/2020, 15:05:29,-9.683753,-2.6512475,1.4356936,-1.2614079,-0.15752333,0.34313223,10.14225823,1.316701597,crawl
10/07/2020, 15:05:29,-10.061819,-2.885744,1.550549,-1.2614079,-0.15752333,0.34313223,10.58167871,1.316701597,crawl
10/07/2020, 15:05:29,-10.061819,-2.885744,1.550549,-1.1576134,-0.058613338,0.5775856,10.58167871,1.295032586,crawl
10/07/2020, 15:05:29,-10.492527,-3.1465619,1.698904,-1.1576134,-0.058613338,0.5775856,11.08513642,1.295032586,crawl
10/07/2020, 15:05:29,-10.492527,-3.1465619,1.698904,-1.0257334,0.03174889,0.7998278,11.08513642,1.301100086,crawl
10/07/2020, 15:05:29,-10.798809,-3.3427732,1.8137596,-1.0257334,0.03174889,0.7998278,11.4489359,1.301100086,crawl
10/07/2020, 15:05:29,-10.798809,-3.3427732,1.8137596,-0.90240115,0.10501556,1.0086378,11.4489359,1.35746318,crawl
10/07/2020, 15:05:29,-10.877771,-3.4025939,1.861616,-0.90240115,0.10501556,1.0086378,11.54855702,1.35746318,crawl
10/07/2020, 15:05:29,-10.877771,-3.4025939,1.861616,-0.8266923,0.16607112,1.1930256,11.54855702,1.46092772,crawl
10/07/2020, 15:05:29,-10.743773,-3.3930225,1.9118652,-0.8266923,0.16607112,1.1930256,11.42788252,1.46092772,crawl
10/07/2020, 15:05:29,-10.743773,-3.3930225,1.9118652,-0.8169234,0.21125223,1.3627601,11.42788252,1.602843196,crawl
10/07/2020, 15:05:29,-10.353744,-3.2757742,1.9381863,-0.8169234,0.21125223,1.3627601,11.03119524,1.602843196,crawl
10/07/2020, 15:05:29,-10.353744,-3.2757742,1.9381863,-0.83890337,0.22102112,1.4970822,11.03119524,1.730278708,crawl
10/07/2020, 15:05:29,-9.683753,-3.0843484,1.9908284,-0.83890337,0.22102112,1.4970822,10.35623848,1.730278708,crawl
10/07/2020, 15:05:29,-9.683753,-3.0843484,1.9908284,-0.8450089,0.23567446,1.5898868,10.35623848,1.815853104,crawl
10/07/2020, 15:05:30,-8.094919,-1.9525433,1.9597218,0.56659555,-1.1148745,-1.0977789,8.554569051,1.664059549,crawl
10/07/2020, 15:05:30,-8.094919,-1.9525433,1.9597218,0.30161446,-1.0990001,-0.98055226,8.554569051,1.503414521,crawl
10/07/2020, 15:05:30,-7.9298143,-1.8065811,2.0075781,0.30161446,-1.0990001,-0.98055226,8.377115305,1.503414521,crawl
10/07/2020, 15:05:30,-7.9298143,-1.8065811,2.0075781,0.07937223,-1.05504,-0.8584412,8.377115305,1.36247224,crawl
10/07/2020, 15:05:30,-7.7407813,-1.820938,2.1343977,0.07937223,-1.05504,-0.8584412,8.233538981,1.36247224,crawl
10/07/2020, 15:05:30,-7.7407813,-1.820938,2.1343977,-0.06960334,-1.0281756,-0.7424356,8.233538981,1.270118206,crawl
10/07/2020, 15:05:30,-7.6570325,-1.9788643,2.292324,-0.06960334,-1.0281756,-0.7424356,8.234124127,1.270118206,crawl
10/07/2020, 15:05:30,-7.6570325,-1.9788643,2.292324,-0.08669889,-0.97811,-0.6435256,8.234124127,1.174027725,crawl
10/07/2020, 15:05:30,-7.5661054,-2.3114667,2.3234308,-0.08669889,-0.97811,-0.6435256,8.24543263,1.174027725,crawl
10/07/2020, 15:05:30,-7.5661054,-2.3114667,2.3234308,0.002442222,-0.8498934,-0.54095227,8.24543263,1.007449301,crawl
10/07/2020, 15:05:30,-7.4153576,-2.6512475,2.507678,0.002442222,-0.8498934,-0.54095227,8.264689384,1.007449301,crawl
10/07/2020, 15:05:30,-7.4153576,-2.6512475,2.507678,0.10867889,-0.70336,-0.4359367,8.264689384,0.834606026,crawl
10/07/2020, 15:05:30,-7.1976104,-2.7756743,2.6608188,0.10867889,-0.70336,-0.4359367,8.160264701,0.834606026,crawl
10/07/2020, 15:05:30,-7.1976104,-2.7756743,2.6608188,0.17095557,-0.5690378,-0.33458444,8.160264701,0.681891904,crawl
10/07/2020, 15:05:30,-7.0396843,-2.6321049,2.792424,0.17095557,-0.5690378,-0.33458444,8.017653188,0.681891904,crawl
10/07/2020, 15:05:30,-7.0396843,-2.6321049,2.792424,0.16607112,-0.4591378,-0.21613668,8.017653188,0.53394962,crawl
10/07/2020, 15:05:30,-7.0636125,-2.3186452,2.8642087,0.16607112,-0.4591378,-0.21613668,7.967084047,0.53394962,crawl
10/07/2020, 15:05:30,-7.0636125,-2.3186452,2.8642087,0.102573335,-0.36267,-0.08059334,7.967084047,0.385416797,crawl
10/07/2020, 15:05:30,-7.3196445,-1.98365,2.9982069,0.102573335,-0.36267,-0.08059334,8.154833317,0.385416797,crawl
10/07/2020, 15:05:30,-7.3196445,-1.98365,2.9982069,-0.015874445,-0.2942878,0.06594,8.154833317,0.302002304,crawl
10/07/2020, 15:05:31,-10.035499,-1.9788643,4.627719,0.5800278,-2.514268,-2.6131778,11.22688376,3.672420665,crawl
10/07/2020, 15:05:31,-9.662218,-1.9381863,4.2664027,0.5800278,-2.514268,-2.6131778,10.73858542,3.672420665,crawl
10/07/2020, 15:05:31,-9.662218,-1.9381863,4.2664027,0.5458367,-2.4910667,-2.5826502,10.73858542,3.629522412,crawl
10/07/2020, 15:05:31,-9.288938,-1.8903298,3.9146578,0.5458367,-2.4910667,-2.5826502,10.25583999,3.629522412,crawl
10/07/2020, 15:05:31,-9.288938,-1.8903298,3.9146578,0.4908867,-2.4507701,-2.54968,10.25583999,3.570449845,crawl
10/07/2020, 15:05:31,-8.898908,-1.7563318,3.5940197,0.4908867,-2.4507701,-2.54968,9.756650871,3.570449845,crawl
10/07/2020, 15:05:31,-8.898908,-1.7563318,3.5940197,0.4383789,-2.4129157,-2.5252578,9.756650871,3.520122918,crawl
10/07/2020, 15:05:31,-8.525627,-1.7659031,3.4360933,0.4383789,-2.4129157,-2.5252578,9.360099853,3.520122918,crawl
10/07/2020, 15:05:31,-8.525627,-1.7659031,3.4360933,0.44448447,-2.3604078,-2.4849613,9.360099853,3.456027211,crawl
10/07/2020, 15:05:31,-8.068598,-1.9190438,3.345166,0.44448447,-2.3604078,-2.4849613,8.942881791,3.456027211,crawl
10/07/2020, 15:05:31,-8.068598,-1.9190438,3.345166,0.5104245,-2.2798145,-2.4214635,8.942881791,3.364754474,crawl
10/07/2020, 15:05:31,-7.6570325,-2.1415763,3.3355947,0.5104245,-2.2798145,-2.4214635,8.622220552,3.364754474,crawl
10/07/2020, 15:05:31,-7.6570325,-2.1415763,3.3355947,0.62765115,-2.177241,-2.3579657,8.622220552,3.270218189,crawl
10/07/2020, 15:05:31,-7.30768,-2.347359,3.4863427,0.62765115,-2.177241,-2.3579657,8.43011673,3.270218189,crawl
10/07/2020, 15:05:31,-7.30768,-2.347359,3.4863427,0.75953114,-2.0734468,-2.2859201,8.43011673,3.178285683,crawl
10/07/2020, 15:05:31,-7.0779696,-2.469393,3.5581272,0.75953114,-2.0734468,-2.2859201,8.297940934,3.178285683,crawl
10/07/2020, 15:05:31,-7.0779696,-2.469393,3.5581272,0.82791334,-1.9586623,-2.1918945,8.297940934,3.05388278,crawl
10/07/2020, 15:05:31,-6.853044,-2.37368,3.548556,0.82791334,-1.9586623,-2.1918945,8.074083237,3.05388278,crawl
10/07/2020, 15:05:31,-6.853044,-2.37368,3.548556,0.80471224,-1.8475412,-2.0710046,8.074083237,2.889641931,crawl
10/07/2020, 15:05:31,-6.652047,-2.0458634,3.481557,0.80471224,-1.8475412,-2.0710046,7.781807424,2.889641931,crawl
10/07/2020, 15:05:32,-11.30848,-0.9092726,3.586841,0.6471889,-2.4922879,-2.5753233,11.89848443,3.641791131,crawl
10/07/2020, 15:05:32,-10.863415,-1.1724831,3.4049866,0.6471889,-2.4922879,-2.5753233,11.4447556,3.641791131,crawl
10/07/2020, 15:05:32,-10.863415,-1.1724831,3.4049866,0.6435256,-2.5008357,-2.5887556,11.4447556,3.65649556,crawl
10/07/2020, 15:05:32,-10.372886,-1.4596218,3.2877383,0.6435256,-2.5008357,-2.5887556,10.97891055,3.65649556,crawl
10/07/2020, 15:05:32,-10.372886,-1.4596218,3.2877383,0.6740534,-2.4861822,-2.5960822,10.97891055,3.657197395,crawl
10/07/2020, 15:05:32,-9.956535,-1.6199409,3.1680973,0.6740534,-2.4861822,-2.5960822,10.57325138,3.657197395,crawl
10/07/2020, 15:05:32,-9.956535,-1.6199409,3.1680973,0.72778225,-2.449549,-2.5960822,10.57325138,3.64274621,crawl
10/07/2020, 15:05:32,-9.530613,-1.6247265,3.0293136,0.72778225,-2.449549,-2.5960822,10.13158724,3.64274621,crawl
10/07/2020, 15:05:32,-9.530613,-1.6247265,3.0293136,0.7522045,-2.3872724,-2.578987,10.13158724,3.593891238,crawl
10/07/2020, 15:05:32,-9.15494,-1.442872,2.8689942,0.7522045,-2.3872724,-2.578987,9.701851766,3.593891238,crawl
10/07/2020, 15:05:32,-9.15494,-1.442872,2.8689942,0.71435004,-2.3420913,-2.5277002,9.701851766,3.519226616,crawl
10/07/2020, 15:05:32,-8.810373,-1.2610176,2.7302105,0.71435004,-2.3420913,-2.5277002,9.309505502,3.519226616,crawl
10/07/2020, 15:05:32,-8.810373,-1.2610176,2.7302105,0.6227667,-2.294468,-2.4629812,9.309505502,3.423258375,crawl
10/07/2020, 15:05:32,-8.465807,-1.160519,2.658426,0.6227667,-2.294468,-2.4629812,8.948962001,3.423258375,crawl
10/07/2020, 15:05:32,-8.465807,-1.160519,2.658426,0.5189722,-2.2370756,-2.3823879,8.948962001,3.309019681,crawl
10/07/2020, 15:05:32,-8.13799,-1.1940185,2.6225336,0.5189722,-2.2370756,-2.3823879,8.633090039,3.309019681,crawl
10/07/2020, 15:05:32,-8.13799,-1.1940185,2.6225336,0.4371578,-2.1711357,-2.2908046,8.633090039,3.186333763,crawl
10/07/2020, 15:05:32,-7.8197446,-1.3806586,2.672783,0.4371578,-2.1711357,-2.2908046,8.37844807,3.186333763,crawl
10/07/2020, 15:05:32,-7.8197446,-1.3806586,2.672783,0.42006224,-2.0722256,-2.1992211,8.37844807,3.050761331,crawl
10/07/2020, 15:05:32,-7.479964,-1.6630118,2.6488547,0.42006224,-2.0722256,-2.1992211,8.107521061,3.050761331,crawl
10/07/2020, 15:05:33,-10.468599,-4.9938207,4.2520456,0.55438447,-0.25643334,-1.7816012,12.35353021,1.883401975,crawl
10/07/2020, 15:05:33,-10.468599,-4.9938207,4.2520456,0.7351089,-0.20392556,-2.0148335,12.35353021,2.154419778,crawl
10/07/2020, 15:05:33,-10.770095,-4.8646083,4.113262,0.7351089,-0.20392556,-2.0148335,12.51312443,2.154419778,crawl
10/07/2020, 15:05:33,-10.770095,-4.8646083,4.113262,0.87920004,-0.19293556,-2.2334123,12.51312443,2.407975745,crawl
10/07/2020, 15:05:33,-11.090733,-4.7545385,3.9314077,0.87920004,-0.19293556,-2.2334123,12.69117615,2.407975745,crawl
10/07/2020, 15:05:33,-11.090733,-4.7545385,3.9314077,1.0049745,-0.20881,-2.4471068,12.69117615,2.653659211,crawl
10/07/2020, 15:05:33,-11.397015,-4.7545385,3.751946,1.0049745,-0.20881,-2.4471068,12.90638127,2.653659211,crawl
10/07/2020, 15:05:33,-11.397015,-4.7545385,3.751946,1.1270856,-0.22102112,-2.6376002,12.90638127,2.876822368,crawl
10/07/2020, 15:05:33,-11.657832,-4.800002,3.6107693,1.1270856,-0.22102112,-2.6376002,13.11421844,2.876822368,crawl
10/07/2020, 15:05:33,-11.657832,-4.800002,3.6107693,1.2601867,-0.23079,-2.8183246,13.11421844,3.095850099,crawl
10/07/2020, 15:05:33,-11.925828,-4.898108,3.4648073,1.2601867,-0.23079,-2.8183246,13.34997095,3.095850099,crawl
10/07/2020, 15:05:33,-11.925828,-4.898108,3.4648073,1.4116045,-0.23201112,-2.9734056,13.34997095,3.299635942,crawl
10/07/2020, 15:05:33,-12.169896,-4.9698925,3.385844,1.4116045,-0.23201112,-2.9734056,13.57461391,3.299635942,crawl
10/07/2020, 15:05:33,-12.169896,-4.9698925,3.385844,1.5752333,-0.23079,-3.119939,13.57461391,3.502662419,crawl
10/07/2020, 15:05:33,-12.392428,-5.020142,3.3284163,1.5752333,-0.23079,-3.119939,13.778696,3.502662419,crawl
10/07/2020, 15:05:33,-12.392428,-5.020142,3.3284163,1.7229879,-0.23323223,-3.2664723,13.778696,3.700395396,crawl
10/07/2020, 15:05:33,-12.610175,-4.9698925,3.2590244,1.7229879,-0.23323223,-3.2664723,13.94050172,3.700395396,crawl
10/07/2020, 15:05:33,-12.610175,-4.9698925,3.2590244,1.8438779,-0.24544334,-3.393468,13.94050172,3.869851754,crawl
10/07/2020, 15:05:33,-12.825529,-4.8646083,3.1848469,1.8438779,-0.24544334,-3.393468,14.08196933,3.869851754,crawl
10/07/2020, 15:05:33,-12.825529,-4.8646083,3.1848469,1.9256923,-0.27108666,-3.5021467,14.08196933,4.005847045,crawl
10/07/2020, 15:05:34,-8.149954,-5.855237,3.6466618,0.3858711,0.123332225,0.16729222,10.67725105,0.438285342,crawl
10/07/2020, 15:05:34,-8.350951,-5.7188463,3.5006995,0.3858711,0.123332225,0.16729222,10.70973792,0.438285342,crawl
10/07/2020, 15:05:34,-8.350951,-5.7188463,3.5006995,0.36267,0.123332225,-0.035412222,10.70973792,0.384700397,crawl
10/07/2020, 15:05:34,-8.559127,-5.639883,3.3690944,0.36267,0.123332225,-0.035412222,10.78970482,0.384700397,crawl
10/07/2020, 15:05:34,-8.559127,-5.639883,3.3690944,0.3614489,0.12943779,-0.24788557,10.78970482,0.456997499,crawl
10/07/2020, 15:05:34,-8.927621,-5.6709895,3.4241292,0.3614489,0.12943779,-0.24788557,11.11697791,0.456997499,crawl
10/07/2020, 15:05:34,-8.927621,-5.6709895,3.4241292,0.4261678,0.15752333,-0.46280113,11.11697791,0.648550281,crawl
10/07/2020, 15:05:34,-9.506684,-5.8265233,3.6203406,0.4261678,0.15752333,-0.46280113,11.72315172,0.648550281,crawl
10/07/2020, 15:05:34,-9.506684,-5.8265233,3.6203406,0.5702589,0.17828223,-0.6777167,11.72315172,0.903481971,crawl
10/07/2020, 15:05:34,-10.210175,-6.06102,3.8739798,0.5702589,0.17828223,-0.6777167,12.48964957,0.903481971,crawl
10/07/2020, 15:05:34,-10.210175,-6.06102,3.8739798,0.75098336,0.17584,-0.8767578,12.48964957,1.167732825,crawl
10/07/2020, 15:05:34,-10.729417,-6.1710896,4.1347976,0.75098336,0.17584,-0.8767578,13.04987679,1.167732825,crawl
10/07/2020, 15:05:34,-10.729417,-6.1710896,4.1347976,0.9097278,0.15141778,-1.075799,13.04987679,1.416995236,crawl
10/07/2020, 15:05:34,-11.021341,-6.1399827,4.2831526,0.9097278,0.15141778,-1.075799,13.32346607,1.416995236,crawl
10/07/2020, 15:05:34,-11.021341,-6.1399827,4.2831526,1.0123012,0.10379445,-1.2785034,13.32346607,1.634043454,crawl
10/07/2020, 15:05:34,-11.10509,-6.0155563,4.3094735,1.0123012,0.10379445,-1.2785034,13.34471832,1.634043454,crawl
10/07/2020, 15:05:34,-11.10509,-6.0155563,4.3094735,1.0501556,0.045181114,-1.4946401,13.34471832,1.827243078,crawl
10/07/2020, 15:05:34,-11.054841,-5.8193445,4.2281175,1.0501556,0.045181114,-1.4946401,13.18905828,1.827243078,crawl
10/07/2020, 15:05:34,-11.054841,-5.8193445,4.2281175,1.0391656,-0.023201112,-1.7010078,13.18905828,1.993447053,crawl
10/07/2020, 15:05:34,-10.980663,-5.5968122,3.9864426,1.0391656,-0.023201112,-1.7010078,12.95341647,1.993447053,crawl
10/07/2020, 15:05:35,-8.834301,-4.7688956,1.18684,-2.097869,0.13920668,2.1357234,10.10919526,2.996956246,crawl
10/07/2020, 15:05:35,-8.834301,-4.7688956,1.18684,-1.9415667,0.16729222,2.1906734,10.10919526,2.932015978,crawl
10/07/2020, 15:05:35,-8.630911,-4.8047876,1.2801601,-1.9415667,0.16729222,2.1906734,9.960793971,2.932015978,crawl
10/07/2020, 15:05:35,-8.630911,-4.8047876,1.2801601,-1.7388623,0.21369445,2.2212012,9.960793971,2.828964832,crawl
10/07/2020, 15:05:35,-8.547162,-4.8358946,1.4380864,-1.7388623,0.21369445,2.2212012,9.925117033,2.828964832,crawl
10/07/2020, 15:05:35,-8.547162,-4.8358946,1.4380864,-1.5019667,0.25643334,2.2505078,9.925117033,2.717801974,crawl
10/07/2020, 15:05:35,-8.554341,-4.7856455,1.6654046,-1.5019667,0.25643334,2.2505078,9.942471041,2.717801974,crawl
10/07/2020, 15:05:35,-8.554341,-4.7856455,1.6654046,-1.2785034,0.29184556,2.2724879,9.942471041,2.623727497,crawl
10/07/2020, 15:05:35,-8.568698,-4.7138605,1.8735801,-1.2785034,0.29184556,2.2724879,9.957578396,2.623727497,crawl
10/07/2020, 15:05:35,-8.568698,-4.7138605,1.8735801,-1.1026634,0.31382558,2.2956889,9.957578396,2.566035939,crawl
10/07/2020, 15:05:35,-8.537591,-4.584648,2.065006,-1.1026634,0.31382558,2.2956889,9.908264636,2.566035939,crawl
10/07/2020, 15:05:35,-8.537591,-4.584648,2.065006,-0.9829945,0.32970002,2.32988,9.908264636,2.550160994,crawl
10/07/2020, 15:05:35,-8.458628,-4.4410787,2.1798615,-0.9829945,0.32970002,2.32988,9.799150914,2.550160994,crawl
10/07/2020, 15:05:35,-8.458628,-4.4410787,2.1798615,-0.9097278,0.34679556,2.3689556,9.799150914,2.561215052,crawl
10/07/2020, 15:05:35,-8.338987,-4.342973,2.2755744,-0.9097278,0.34679556,2.3689556,9.673591142,2.561215052,crawl
10/07/2020, 15:05:35,-8.338987,-4.342973,2.2755744,-0.8450089,0.36633334,2.4239056,9.673591142,2.592982565,crawl
10/07/2020, 15:05:35,-8.209774,-4.2664027,2.37368,-0.8450089,0.36633334,2.4239056,9.551802913,2.592982565,crawl
10/07/2020, 15:05:35,-8.209774,-4.2664027,2.37368,-0.77906895,0.39197668,2.4886246,9.551802913,2.637014677,crawl
10/07/2020, 15:05:35,-8.140383,-4.24726,2.5196424,-0.77906895,0.39197668,2.4886246,9.521220903,2.637014677,crawl
10/07/2020, 15:05:35,-8.140383,-4.24726,2.5196424,-0.7228978,0.42372558,2.5423534,9.521220903,2.676879788,crawl
10/07/2020, 15:05:36,-12.856636,-4.699504,2.993421,1.4787656,0.45059,3.7939923,14.01210181,4.096847143,crawl
10/07/2020, 15:05:36,-12.856636,-4.699504,2.993421,1.2626289,0.47745445,3.592509,14.01210181,3.837748776,crawl
10/07/2020, 15:05:36,-13.761123,-4.074977,2.1894326,1.2626289,0.47745445,3.592509,14.51783559,3.837748776,crawl
10/07/2020, 15:05:36,-13.761123,-4.074977,2.1894326,0.91461223,0.4249467,3.3800356,14.51783559,3.527284529,crawl
10/07/2020, 15:05:36,-14.35215,-3.5126636,1.6247265,0.91461223,0.4249467,3.3800356,14.86481586,3.527284529,crawl
10/07/2020, 15:05:36,-14.35215,-3.5126636,1.6247265,0.47501224,0.3309211,3.1455824,14.86481586,3.198411213,crawl
10/07/2020, 15:05:36,-14.335401,-3.0436704,1.4045869,0.47501224,0.3309211,3.1455824,14.72210935,3.198411213,crawl
10/07/2020, 15:05:36,-14.335401,-3.0436704,1.4045869,0.003663334,0.23811668,2.878159,14.72210935,2.887994541,crawl
10/07/2020, 15:05:36,-13.749159,-2.6823542,1.6007984,0.003663334,0.23811668,2.878159,14.09953719,2.887994541,crawl
10/07/2020, 15:05:36,-13.749159,-2.6823542,1.6007984,-0.4481478,0.18438779,2.603409,14.09953719,2.648126508,crawl
10/07/2020, 15:05:36,-12.873385,-2.3928227,2.0482562,-0.4481478,0.18438779,2.603409,13.25311308,2.648126508,crawl
10/07/2020, 15:05:36,-12.873385,-2.3928227,2.0482562,-0.8425667,0.18927222,2.3481967,13.25311308,2.501953361,crawl
10/07/2020, 15:05:36,-11.983255,-2.143969,2.457429,-0.8425667,0.18927222,2.3481967,12.41909699,2.501953361,crawl
10/07/2020, 15:05:36,-11.983255,-2.143969,2.457429,-1.1722667,0.2295689,2.1039746,12.41909699,2.419425589,crawl
10/07/2020, 15:05:36,-11.219945,-1.9740787,2.7972097,-1.1722667,0.2295689,2.1039746,11.73066638,2.419425589,crawl
10/07/2020, 15:05:36,-11.219945,-1.9740787,2.7972097,-1.449459,0.25521225,1.8719634,11.73066638,2.38124158,crawl
10/07/2020, 15:05:36,-10.73181,-1.9046868,2.9599216,-1.449459,0.25521225,1.8719634,11.29427755,2.38124158,crawl
10/07/2020, 15:05:36,-10.73181,-1.9046868,2.9599216,-1.6741434,0.26376,1.6741434,11.29427755,2.382243021,crawl
10/07/2020, 15:05:36,-10.3848505,-2.0219352,2.9455647,-1.6741434,0.26376,1.6741434,10.98224447,2.382243021,crawl
10/07/2020, 15:05:36,-10.3848505,-2.0219352,2.9455647,-1.8841745,0.2625389,1.5471479,10.98224447,2.452082101,crawl
10/07/2020, 15:05:37,-6.431907,-3.548556,1.3304094,-0.009768889,0.10745778,2.0087278,7.465364656,2.011623706,crawl
10/07/2020, 15:05:37,-6.745367,-3.546163,1.2418749,-0.009768889,0.10745778,2.0087278,7.721237116,2.011623706,crawl
10/07/2020, 15:05:37,-6.745367,-3.546163,1.2418749,-0.029306669,0.14042778,2.2553923,7.721237116,2.259949851,crawl
10/07/2020, 15:05:37,-7.066005,-3.5509489,1.18684,-0.029306669,0.14042778,2.2553923,7.996640359,2.259949851,crawl
10/07/2020, 15:05:37,-7.066005,-3.5509489,1.18684,-0.06960334,0.16485001,2.5252578,7.996640359,2.531589864,crawl
10/07/2020, 15:05:37,-7.470392,-3.5964124,1.174876,-0.06960334,0.16485001,2.5252578,8.373844749,2.531589864,crawl
10/07/2020, 15:05:37,-7.470392,-3.5964124,1.174876,-0.10501556,0.19293556,2.7975657,8.373844749,2.806176444,crawl
10/07/2020, 15:05:37,-8.032705,-3.6849468,1.1892328,-0.10501556,0.19293556,2.7975657,8.917256417,2.806176444,crawl
10/07/2020, 15:05:37,-8.032705,-3.6849468,1.1892328,-0.11234222,0.21980001,3.0808635,8.917256417,3.090736575,crawl
10/07/2020, 15:05:37,-8.776874,-3.9218364,1.2849457,-0.11234222,0.21980001,3.0808635,9.698731673,3.090736575,crawl
10/07/2020, 15:05:37,-8.776874,-3.9218364,1.2849457,-0.09768889,0.2503278,3.382478,9.698731673,3.393134913,crawl
10/07/2020, 15:05:37,-9.753145,-4.173083,1.3710874,-0.09768889,0.2503278,3.382478,10.696651,3.393134913,crawl
10/07/2020, 15:05:37,-9.753145,-4.173083,1.3710874,-0.064718895,0.27841336,3.6877558,10.696651,3.698816776,crawl
10/07/2020, 15:05:37,-10.978271,-4.426722,1.4524434,-0.064718895,0.27841336,3.6877558,11.92593324,3.698816776,crawl
10/07/2020, 15:05:37,-10.978271,-4.426722,1.4524434,-0.047623336,0.30405667,3.9966967,11.92593324,4.008528787,crawl
10/07/2020, 15:05:37,-12.373286,-4.6396832,1.3423735,-0.047623336,0.30405667,3.9966967,13.28257655,4.008528787,crawl
10/07/2020, 15:05:37,-12.373286,-4.6396832,1.3423735,-0.09768889,0.29917222,4.298311,13.28257655,4.309817467,crawl
10/07/2020, 15:05:37,-13.765908,-4.735396,1.1222339,-0.09768889,0.29917222,4.298311,14.60080864,4.309817467,crawl
10/07/2020, 15:05:37,-13.765908,-4.735396,1.1222339,-0.25521225,0.24055889,4.5816092,14.60080864,4.595013078,crawl
10/07/2020, 15:05:37,-15.014962,-4.7138605,0.86859465,-0.25521225,0.24055889,4.5816092,15.76147288,4.595013078,crawl
10/07/2020, 15:05:38,-7.685746,1.7252251,4.0941195,-0.8315767,0.1965989,0.40296668,8.877438315,0.944750278,crawl
10/07/2020, 15:05:38,-7.676175,1.6007984,4.0773697,-0.8315767,0.1965989,0.40296668,8.838052016,0.944750278,crawl
10/07/2020, 15:05:38,-7.676175,1.6007984,4.0773697,-0.7986067,0.19537778,0.34801668,8.838052016,0.892782582,crawl
10/07/2020, 15:05:38,-7.745567,1.4787644,4.072584,-0.7986067,0.19537778,0.34801668,8.875048824,0.892782582,crawl
10/07/2020, 15:05:38,-7.745567,1.4787644,4.072584,-0.74121445,0.18927222,0.29795113,8.875048824,0.820973641,crawl
10/07/2020, 15:05:38,-7.812566,1.4333007,4.048656,-0.74121445,0.18927222,0.29795113,8.915276256,0.820973641,crawl
10/07/2020, 15:05:38,-7.812566,1.4333007,4.048656,-0.6838223,0.19171445,0.24666445,8.915276256,0.751804951,crawl
10/07/2020, 15:05:38,-7.7742805,1.5840486,3.9984066,-0.6838223,0.19171445,0.24666445,8.884587994,0.751804951,crawl
10/07/2020, 15:05:38,-7.7742805,1.5840486,3.9984066,-0.6447467,0.20148334,0.21980001,8.884587994,0.710356188,crawl
10/07/2020, 15:05:38,-7.7072816,1.8041883,3.95055,-0.6447467,0.20148334,0.21980001,8.846701683,0.710356188,crawl
10/07/2020, 15:05:38,-7.7072816,1.8041883,3.95055,-0.66062117,0.22224224,0.18805112,8.846701683,0.721924622,crawl
10/07/2020, 15:05:38,-7.6594253,1.9812572,3.8500516,-0.66062117,0.22224224,0.18805112,8.798583581,0.721924622,crawl
10/07/2020, 15:05:38,-7.6594253,1.9812572,3.8500516,-0.70336,0.23079,0.15019667,8.798583581,0.755339914,crawl
10/07/2020, 15:05:38,-7.6402826,2.0745773,3.8165522,-0.70336,0.23079,0.15019667,8.788848627,0.755339914,crawl
10/07/2020, 15:05:38,-7.6402826,2.0745773,3.8165522,-0.7351089,0.22346334,0.11966889,8.788848627,0.777587051,crawl
10/07/2020, 15:05:38,-7.645068,2.0793629,3.8237305,-0.7351089,0.22346334,0.11966889,8.797257069,0.777587051,crawl
10/07/2020, 15:05:38,-7.645068,2.0793629,3.8237305,-0.7448778,0.23567446,0.089141116,8.797257069,0.786340605,crawl
10/07/2020, 15:05:38,-7.628319,1.9597218,3.8931224,-0.7448778,0.23567446,0.089141116,8.78567922,0.786340605,crawl
10/07/2020, 15:05:38,-7.628319,1.9597218,3.8931224,-0.73999333,0.25643334,0.05250778,8.78567922,0.784923727,crawl
10/07/2020, 15:05:38,-7.6139617,1.9142581,3.9074793,-0.73999333,0.25643334,0.05250778,8.769560493,0.784923727,crawl
10/07/2020, 15:05:39,-10.090533,-4.752146,0.9667004,0.2869611,-0.9194967,2.6314945,11.19536781,2.802246297,crawl
10/07/2020, 15:05:39,-10.090533,-4.752146,0.9667004,0.18927222,-0.97688895,2.8061135,11.19536781,2.977315717,crawl
10/07/2020, 15:05:39,-10.193424,-4.668397,0.94277215,0.18927222,-0.97688895,2.8061135,11.25116202,2.977315717,crawl
10/07/2020, 15:05:39,-10.193424,-4.668397,0.94277215,0.054950003,-1.0123012,2.9734056,11.25116202,3.141482786,crawl
10/07/2020, 15:05:39,-10.145568,-4.56072,0.96430755,0.054950003,-1.0123012,2.9734056,11.16524086,3.141482786,crawl
10/07/2020, 15:05:39,-10.145568,-4.56072,0.96430755,-0.08303556,-1.0086378,3.1028435,11.16524086,3.263722264,crawl
10/07/2020, 15:05:39,-10.109675,-4.486542,0.98584294,-0.08303556,-1.0086378,3.1028435,11.10434529,3.263722264,crawl
10/07/2020, 15:05:39,-10.109675,-4.486542,0.98584294,-0.20392556,-0.96712005,3.2017534,11.10434529,3.35084042,crawl
10/07/2020, 15:05:39,-10.27478,-4.517649,1.0839486,-0.20392556,-0.96712005,3.2017534,11.27631182,3.35084042,crawl
10/07/2020, 15:05:39,-10.27478,-4.517649,1.0839486,-0.28085557,-0.9072856,3.2896736,11.27631182,3.424032583,crawl
10/07/2020, 15:05:39,-10.719846,-4.613362,1.0863415,-0.28085557,-0.9072856,3.2896736,11.72085059,3.424032583,crawl
10/07/2020, 15:05:39,-10.719846,-4.613362,1.0863415,-0.32237336,-0.85722005,3.360498,11.72085059,3.483058611,crawl
10/07/2020, 15:05:39,-11.263016,-4.6564326,1.0336994,-0.32237336,-0.85722005,3.360498,12.23137045,3.483058611,crawl
10/07/2020, 15:05:39,-11.263016,-4.6564326,1.0336994,-0.3492378,-0.8218078,3.4081213,12.23137045,3.523155719,crawl
10/07/2020, 15:05:39,-11.741581,-4.694718,0.9762716,-0.3492378,-0.8218078,3.4081213,12.68298884,3.523155719,crawl
10/07/2020, 15:05:39,-11.741581,-4.694718,0.9762716,-0.37488112,-0.80593336,3.4239957,12.68298884,3.537486567,crawl
10/07/2020, 15:05:39,-12.033505,-4.7306104,0.9906286,-0.37488112,-0.80593336,3.4239957,12.96785536,3.537486567,crawl
10/07/2020, 15:05:39,-12.033505,-4.7306104,0.9906286,-0.40174556,-0.7900589,3.4203324,12.96785536,3.533308155,crawl
10/07/2020, 15:05:39,-12.078969,-4.7306104,1.0600204,-0.40174556,-0.7900589,3.4203324,13.01552189,3.533308155,crawl
10/07/2020, 15:05:39,-12.078969,-4.7306104,1.0600204,-0.43227336,-0.74609894,3.383699,13.01552189,3.4918394,crawl
10/07/2020, 15:05:40,-8.690732,-3.9074793,0.014356935,0.53973114,-0.46768558,-2.60463,9.528768191,2.700765986,crawl
10/07/2020, 15:05:40,-8.690732,-3.9074793,0.014356935,0.4921078,-0.48111778,-2.4507701,9.528768191,2.545568443,crawl
10/07/2020, 15:05:40,-8.508878,-3.8380876,0.009571291,0.4921078,-0.48111778,-2.4507701,9.334452761,2.545568443,crawl
10/07/2020, 15:05:40,-8.508878,-3.8380876,0.009571291,0.4371578,-0.4933289,-2.2883623,9.334452761,2.381403411,crawl
10/07/2020, 15:05:40,-8.420342,-3.7471602,-0.021535404,0.4371578,-0.4933289,-2.2883623,9.216498262,2.381403411,crawl
10/07/2020, 15:05:40,-8.420342,-3.7471602,-0.021535404,0.36633334,-0.5153089,-2.141829,9.216498262,2.23319836,crawl
10/07/2020, 15:05:40,-8.267202,-3.6203406,-0.07178468,0.36633334,-0.5153089,-2.141829,9.025444817,2.23319836,crawl
10/07/2020, 15:05:40,-8.267202,-3.6203406,-0.07178468,0.29306668,-0.53484666,-1.9891901,9.025444817,2.080583162,crawl
10/07/2020, 15:05:40,-8.073383,-3.4863427,-0.11246266,0.29306668,-0.53484666,-1.9891901,8.794700192,2.080583162,crawl
10/07/2020, 15:05:40,-8.073383,-3.4863427,-0.11246266,0.20514667,-0.5568267,-1.8255612,8.794700192,1.91958712,crawl
10/07/2020, 15:05:40,-7.8867435,-3.345166,-0.17228323,0.20514667,-0.5568267,-1.8255612,8.568578681,1.91958712,crawl
10/07/2020, 15:05:40,-7.8867435,-3.345166,-0.17228323,0.117226675,-0.5678167,-1.6607112,8.568578681,1.759010931,crawl
10/07/2020, 15:05:40,-7.6426754,-3.2590244,-0.24885355,0.117226675,-0.5678167,-1.6607112,8.312259336,1.759010931,crawl
10/07/2020, 15:05:40,-7.6426754,-3.2590244,-0.24885355,0.04151778,-0.56171113,-1.4921979,8.312259336,1.594960065,crawl
10/07/2020, 15:05:40,-7.436893,-3.1896327,-0.3062813,0.04151778,-0.56171113,-1.4921979,8.097835636,1.594960065,crawl
10/07/2020, 15:05:40,-7.436893,-3.1896327,-0.3062813,-0.03174889,-0.56049,-1.3273479,8.097835636,1.441183342,crawl
10/07/2020, 15:05:40,-7.2263246,-3.1322048,-0.33020952,-0.03174889,-0.56049,-1.3273479,7.882861896,1.441183342,crawl
10/07/2020, 15:05:40,-7.2263246,-3.1322048,-0.33020952,-0.08669889,-0.5458367,-1.1588345,7.882861896,1.283881492,crawl
10/07/2020, 15:05:40,-7.042077,-3.1082766,-0.37088752,-0.08669889,-0.5458367,-1.1588345,7.706477171,1.283881492,crawl
10/07/2020, 15:05:40,-7.042077,-3.1082766,-0.37088752,-0.11844778,-0.5153089,-0.9866578,7.706477171,1.119404649,crawl
10/07/2020, 15:05:41,-11.119447,-3.5964124,-0.06460621,0.7338878,-1.4152678,-1.900049,11.68676398,2.480274259,crawl
10/07/2020, 15:05:41,-10.8251295,-3.3547373,-0.18424734,0.7338878,-1.4152678,-1.900049,11.33453299,2.480274259,crawl
10/07/2020, 15:05:41,-10.8251295,-3.3547373,-0.18424734,0.3931978,-1.4372479,-1.8206767,11.33453299,2.352689854,crawl
10/07/2020, 15:05:41,-10.466207,-3.158526,-0.22492532,0.3931978,-1.4372479,-1.8206767,10.93473169,2.352689854,crawl
10/07/2020, 15:05:41,-10.466207,-3.158526,-0.22492532,0.057392225,-1.4445745,-1.7559578,10.93473169,2.274527912,crawl
10/07/2020, 15:05:41,-10.064212,-2.993421,-0.22013968,0.057392225,-1.4445745,-1.7559578,10.50225649,2.274527912,crawl
10/07/2020, 15:05:41,-10.064212,-2.993421,-0.22013968,-0.26498112,-1.4348056,-1.7083346,10.50225649,2.246617275,crawl
10/07/2020, 15:05:41,-9.671789,-2.861816,-0.25124636,-0.26498112,-1.4348056,-1.7083346,10.08943115,2.246617275,crawl
10/07/2020, 15:05:41,-9.671789,-2.861816,-0.25124636,-0.54950005,-1.3969512,-1.6863545,10.08943115,2.257701157,crawl
10/07/2020, 15:05:41,-9.32483,-2.8402805,-0.2440679,-0.54950005,-1.3969512,-1.6863545,9.750857306,2.257701157,crawl
10/07/2020, 15:05:41,-9.32483,-2.8402805,-0.2440679,-0.80104893,-1.3371167,-1.6485001,9.750857306,2.268724982,crawl
10/07/2020, 15:05:41,-9.097511,-2.8977082,-0.26081768,-0.80104893,-1.3371167,-1.6485001,9.551410903,2.268724982,crawl
10/07/2020, 15:05:41,-9.097511,-2.8977082,-0.26081768,-0.9915423,-1.2504178,-1.6130879,9.551410903,2.269086465,crawl
10/07/2020, 15:05:41,-9.044869,-3.0197423,-0.24885355,-0.9915423,-1.2504178,-1.6130879,9.538890618,2.269086465,crawl
10/07/2020, 15:05:41,-9.044869,-3.0197423,-0.24885355,-1.1136534,-1.1624979,-1.5581379,9.538890618,2.24040598,crawl
10/07/2020, 15:05:41,-8.989835,-3.1728828,-0.24646074,-1.1136534,-1.1624979,-1.5581379,9.536511815,2.24040598,crawl
10/07/2020, 15:05:41,-8.989835,-3.1728828,-0.24646074,-1.1942468,-1.0684723,-1.5019667,9.536511815,2.196306523,crawl
10/07/2020, 15:05:41,-8.853444,-3.3355947,-0.2416751,-1.1942468,-1.0684723,-1.5019667,9.464040943,2.196306523,crawl
10/07/2020, 15:05:41,-8.853444,-3.3355947,-0.2416751,-1.2247745,-0.9402556,-1.4457957,9.464040943,2.115296235,crawl
10/07/2020, 15:05:41,-8.71466,-3.4911282,-0.18664017,-1.2247745,-0.9402556,-1.4457957,9.389787231,2.115296235,crawl
10/07/2020, 15:05:42,-9.997213,-3.8404803,1.1365907,0.6691689,-0.63619894,-1.7889278,10.76965193,2.013156413,crawl
10/07/2020, 15:05:42,-9.997213,-3.8404803,1.1365907,0.51775116,-0.6032289,-1.8048023,10.76965193,1.97212138,crawl
10/07/2020, 15:05:42,-9.403793,-3.7328033,1.2418749,0.51775116,-0.6032289,-1.8048023,10.19349809,1.97212138,crawl
10/07/2020, 15:05:42,-9.403793,-3.7328033,1.2418749,0.36755446,-0.5580478,-1.8377723,10.19349809,1.955484706,crawl
10/07/2020, 15:05:42,-8.863015,-3.6490545,1.3328022,0.36755446,-0.5580478,-1.8377723,9.677034596,1.955484706,crawl
10/07/2020, 15:05:42,-8.863015,-3.6490545,1.3328022,0.22590557,-0.5043189,-1.8780689,9.677034596,1.957680708,crawl
10/07/2020, 15:05:42,-8.453842,-3.5557344,1.3663018,0.22590557,-0.5043189,-1.8780689,9.272403947,1.957680708,crawl
10/07/2020, 15:05:42,-8.453842,-3.5557344,1.3663018,0.09036223,-0.45303226,-1.9354612,9.272403947,1.989827498,crawl
10/07/2020, 15:05:42,-8.128419,-3.4576287,1.3998013,0.09036223,-0.45303226,-1.9354612,8.943479979,1.989827498,crawl
10/07/2020, 15:05:42,-8.128419,-3.4576287,1.3998013,-0.04029667,-0.4041878,-1.9965167,8.943479979,2.037417618,crawl
10/07/2020, 15:05:42,-7.893922,-3.3810585,1.3447664,-0.04029667,-0.4041878,-1.9965167,8.692177811,2.037417618,crawl
10/07/2020, 15:05:42,-7.893922,-3.3810585,1.3447664,-0.1526389,-0.3492378,-2.0600145,8.692177811,2.094976219,crawl
10/07/2020, 15:05:42,-7.7096744,-3.3260236,1.268196,-0.1526389,-0.3492378,-2.0600145,8.491750857,2.094976219,crawl
10/07/2020, 15:05:42,-7.7096744,-3.3260236,1.268196,-0.24178001,-0.2845189,-2.1174068,8.491750857,2.150074493,crawl
10/07/2020, 15:05:42,-7.580462,-3.2709885,1.119841,-0.24178001,-0.2845189,-2.1174068,8.331675292,2.150074493,crawl
10/07/2020, 15:05:42,-7.580462,-3.2709885,1.119841,-0.30649891,-0.21003112,-2.1821256,8.331675292,2.213532619,crawl
10/07/2020, 15:05:42,-7.470392,-3.2303107,0.96909314,-0.30649891,-0.21003112,-2.1821256,8.196389975,2.213532619,crawl
10/07/2020, 15:05:42,-7.470392,-3.2303107,0.96909314,-0.34313223,-0.12211112,-2.24196,8.196389975,2.271351076,crawl
10/07/2020, 15:05:42,-7.4416785,-3.2159536,0.7704889,-0.34313223,-0.12211112,-2.24196,8.143377058,2.271351076,crawl
10/07/2020, 15:05:42,-7.4416785,-3.2159536,0.7704889,-0.3504589,-0.026864445,-2.2956889,8.143377058,2.322440636,crawl
10/07/2020, 15:05:43,-7.9633136,0.59342,3.8404803,0.04396,0.14409111,-0.17095557,8.860914154,0.227860785,crawl
10/07/2020, 15:05:43,-7.9800634,0.5814559,3.830909,0.04396,0.14409111,-0.17095557,8.871040937,0.227860785,crawl
10/07/2020, 15:05:43,-7.9800634,0.5814559,3.830909,0.054950003,0.11600556,-0.20026223,8.871040937,0.237869198,crawl
10/07/2020, 15:05:43,-7.9154572,0.6891329,3.7734814,0.054950003,0.11600556,-0.20026223,8.795938227,0.237869198,crawl
10/07/2020, 15:05:43,-7.9154572,0.6891329,3.7734814,0.028085556,0.09402556,-0.23201112,8.795938227,0.251910234,crawl
10/07/2020, 15:05:43,-7.908279,0.849452,3.7136607,0.028085556,0.09402556,-0.23201112,8.778024862,0.251910234,crawl
10/07/2020, 15:05:43,-7.908279,0.849452,3.7136607,-0.013432222,0.07204556,-0.2625389,8.778024862,0.272575982,crawl
10/07/2020, 15:05:43,-7.999206,1.0935199,3.6203406,-0.013432222,0.07204556,-0.2625389,8.848160796,0.272575982,crawl
10/07/2020, 15:05:43,-7.999206,1.0935199,3.6203406,-0.06716111,0.046402223,-0.30405667,8.848160796,0.314824146,crawl
10/07/2020, 15:05:43,-8.142776,1.2969099,3.5653057,-0.06716111,0.046402223,-0.30405667,8.983216216,0.314824146,crawl
10/07/2020, 15:05:43,-8.142776,1.2969099,3.5653057,-0.14042778,0.02198,-0.34191114,8.983216216,0.37027869,crawl
10/07/2020, 15:05:43,-8.305488,1.4548361,3.546163,-0.14042778,0.02198,-0.34191114,9.147291708,0.37027869,crawl
10/07/2020, 15:05:43,-8.305488,1.4548361,3.546163,-0.2283478,-0.008547778,-0.38465002,9.147291708,0.447405206,crawl
10/07/2020, 15:05:43,-8.410771,1.5194423,3.481557,-0.2283478,-0.008547778,-0.38465002,9.228814572,0.447405206,crawl
10/07/2020, 15:05:43,-8.410771,1.5194423,3.481557,-0.34801668,-0.03174889,-0.42006224,9.228814572,0.546420982,crawl
10/07/2020, 15:05:43,-8.477771,1.4763715,3.3930225,-0.34801668,-0.03174889,-0.42006224,9.250128251,0.546420982,crawl
10/07/2020, 15:05:43,-8.477771,1.4763715,3.3930225,-0.48600224,-0.03052778,-0.44204223,9.250128251,0.657671235,crawl
10/07/2020, 15:05:43,-8.669196,1.3686945,3.2973096,-0.48600224,-0.03052778,-0.44204223,9.375528631,0.657671235,crawl
10/07/2020, 15:05:43,-8.669196,1.3686945,3.2973096,-0.6056711,-0.013432222,-0.45791668,9.375528631,0.75941135,crawl
10/07/2020, 15:05:43,-9.099904,1.0935199,3.2350962,-0.6056711,-0.013432222,-0.45791668,9.719562092,0.75941135,crawl
10/07/2020, 15:05:44,-7.5637126,-3.9960139,1.4452649,-0.5421733,-0.28085557,2.9929435,8.67563634,3.054593706,crawl
10/07/2020, 15:05:44,-7.5637126,-3.9960139,1.4452649,-0.6288723,-0.2759711,3.1895423,8.67563634,3.262640102,crawl
10/07/2020, 15:05:44,-8.0614195,-3.979264,1.2634103,-0.6288723,-0.2759711,3.1895423,9.078393688,3.262640102,crawl
10/07/2020, 15:05:44,-8.0614195,-3.979264,1.2634103,-0.76075226,-0.25765446,3.3898046,9.078393688,3.483662593,crawl
10/07/2020, 15:05:44,-8.702696,-3.9074793,1.0336994,-0.76075226,-0.25765446,3.3898046,9.595511649,3.483662593,crawl
10/07/2020, 15:05:44,-8.702696,-3.9074793,1.0336994,-0.9414767,-0.23933779,3.590067,9.595511649,3.719172136,crawl
10/07/2020, 15:05:44,-9.523434,-3.8524444,0.79920274,-0.9414767,-0.23933779,3.590067,10.30416625,3.719172136,crawl
10/07/2020, 15:05:44,-9.523434,-3.8524444,0.79920274,-1.1832567,-0.23689556,3.7952135,10.30416625,3.98244413,crawl
10/07/2020, 15:05:44,-10.561919,-3.8380876,0.6197411,-1.1832567,-0.23689556,3.7952135,11.25473823,3.98244413,crawl
10/07/2020, 15:05:44,-10.561919,-3.8380876,0.6197411,-1.4702178,-0.27841336,3.98937,11.25473823,4.260766164,crawl
10/07/2020, 15:05:44,-11.760723,-3.8907297,0.51206404,-1.4702178,-0.27841336,3.98937,12.39816902,4.260766164,crawl
10/07/2020, 15:05:44,-11.760723,-3.8907297,0.51206404,-1.7962545,-0.34191114,4.152999,12.39816902,4.537712372,crawl
10/07/2020, 15:05:44,-12.935599,-4.024728,0.3278167,-1.7962545,-0.34191114,4.152999,13.55122237,4.537712372,crawl
10/07/2020, 15:05:44,-12.935599,-4.024728,0.3278167,-2.122291,-0.43105224,4.2799945,13.55122237,4.796694519,crawl
10/07/2020, 15:05:44,-13.914264,-4.2185464,0.148355,-2.122291,-0.43105224,4.2799945,14.54045659,4.796694519,crawl
10/07/2020, 15:05:44,-13.914264,-4.2185464,0.148355,-2.4214635,-0.5287411,4.3886733,14.54045659,5.040189082,crawl
10/07/2020, 15:05:44,-14.550755,-4.4339004,0.043070808,-2.4214635,-0.5287411,4.3886733,15.21137027,5.040189082,crawl
10/07/2020, 15:05:44,-14.550755,-4.4339004,0.043070808,-2.6827812,-0.6191034,4.4753723,15.21137027,5.254480127,crawl
10/07/2020, 15:05:44,-14.928821,-4.7018967,0.023928227,-2.6827812,-0.6191034,4.4753723,15.65177593,5.254480127,crawl
10/07/2020, 15:05:44,-14.928821,-4.7018967,0.023928227,-2.9025812,-0.6777167,4.535207,15.65177593,5.427004539,crawl
10/07/2020, 15:05:45,-6.936793,-3.3427732,0.1363909,-0.7631945,0.48966557,0.9194967,7.701417414,1.291399405,crawl
10/07/2020, 15:05:45,-7.259824,-3.5198421,0.36131623,-0.7631945,0.48966557,0.9194967,8.076192157,1.291399405,crawl
10/07/2020, 15:05:45,-7.259824,-3.5198421,0.36131623,-0.6655056,0.57270116,1.1173167,8.076192157,1.421014061,crawl
10/07/2020, 15:05:45,-7.5637126,-3.6370904,0.57427746,-0.6655056,0.57270116,1.1173167,8.412370044,1.421014061,crawl
10/07/2020, 15:05:45,-7.5637126,-3.6370904,0.57427746,-0.59468114,0.6459678,1.2772822,8.412370044,1.549958049,crawl
10/07/2020, 15:05:45,-7.853244,-3.7280176,0.83988076,-0.59468114,0.6459678,1.2772822,8.733667804,1.549958049,crawl
10/07/2020, 15:05:45,-7.853244,-3.7280176,0.83988076,-0.51653004,0.7167922,1.416489,8.733667804,1.669441666,crawl
10/07/2020, 15:05:45,-8.207381,-3.8261235,1.079163,-0.51653004,0.7167922,1.416489,9.119480276,1.669441666,crawl
10/07/2020, 15:05:45,-8.207381,-3.8261235,1.079163,-0.4273889,0.7778478,1.5398211,9.119480276,1.777289421,crawl
10/07/2020, 15:05:45,-8.595019,-3.9696927,1.3854443,-0.4273889,0.7778478,1.5398211,9.568295225,1.777289421,crawl
10/07/2020, 15:05:45,-8.595019,-3.9696927,1.3854443,-0.30283555,0.82791334,1.6668167,9.568295225,1.885584214,crawl
10/07/2020, 15:05:45,-9.049655,-4.139583,1.6510476,-0.30283555,0.82791334,1.6668167,10.08753495,1.885584214,crawl
10/07/2020, 15:05:45,-9.049655,-4.139583,1.6510476,-0.12455334,0.8865267,1.7986968,10.08753495,2.009167278,crawl
10/07/2020, 15:05:45,-9.516255,-4.3262234,1.8855443,-0.12455334,0.8865267,1.7986968,10.62217503,2.009167278,crawl
10/07/2020, 15:05:45,-9.516255,-4.3262234,1.8855443,0.09524667,0.95735115,1.9342401,10.62217503,2.160295796,crawl
10/07/2020, 15:05:45,-9.9756775,-4.4434714,2.0338993,0.09524667,0.95735115,1.9342401,11.10834489,2.160295796,crawl
10/07/2020, 15:05:45,-9.9756775,-4.4434714,2.0338993,0.31138334,1.0355023,2.0612357,11.10834489,2.327641961,crawl
10/07/2020, 15:05:45,-10.427921,-4.462614,2.0410776,0.31138334,1.0355023,2.0612357,11.52486289,2.327641961,crawl
10/07/2020, 15:05:45,-10.427921,-4.462614,2.0410776,0.47745445,1.1075479,2.2102113,11.52486289,2.517867937,crawl
10/07/2020, 15:05:45,-10.829915,-4.398008,1.9645073,0.47745445,1.1075479,2.2102113,11.85279808,2.517867937,crawl
10/07/2020, 15:05:46,-11.143375,-3.534199,1.0911272,0.006105556,-0.61788225,-3.5534334,11.74120676,3.606758214,crawl
10/07/2020, 15:05:46,-10.925629,-3.548556,0.94755775,0.006105556,-0.61788225,-3.5534334,11.52646857,3.606758214,crawl
10/07/2020, 15:05:46,-10.925629,-3.548556,0.94755775,-0.04396,-0.56171113,-3.5741923,11.52646857,3.618328671,crawl
10/07/2020, 15:05:46,-10.803595,-3.586841,0.8063812,-0.04396,-0.56171113,-3.5741923,11.41198212,3.618328671,crawl
10/07/2020, 15:05:46,-10.803595,-3.586841,0.8063812,-0.08425667,-0.50798225,-3.5815191,11.41198212,3.618345535,crawl
10/07/2020, 15:05:46,-10.679168,-3.5676985,0.72023964,-0.08425667,-0.50798225,-3.5815191,11.28236861,3.618345535,crawl
10/07/2020, 15:05:46,-10.679168,-3.5676985,0.72023964,-0.13676445,-0.44570556,-3.5754135,11.28236861,3.605681546,crawl
10/07/2020, 15:05:46,-10.614561,-3.5006995,0.6269195,-0.13676445,-0.44570556,-3.5754135,11.19450008,3.605681546,crawl
10/07/2020, 15:05:46,-10.614561,-3.5006995,0.6269195,-0.1965989,-0.3931978,-3.547328,11.19450008,3.574463813,crawl
10/07/2020, 15:05:46,-10.559526,-3.4576287,0.52163535,-0.1965989,-0.3931978,-3.547328,11.12343915,3.574463813,crawl
10/07/2020, 15:05:46,-10.559526,-3.4576287,0.52163535,-0.27230778,-0.34557447,-3.4911568,11.12343915,3.518770973,crawl
10/07/2020, 15:05:46,-10.502099,-3.3882368,0.45942193,-0.27230778,-0.34557447,-3.4911568,11.04469561,3.518770973,crawl
10/07/2020, 15:05:46,-10.502099,-3.3882368,0.45942193,-0.35168,-0.30772,-3.4117846,11.04469561,3.443638326,crawl
10/07/2020, 15:05:46,-10.439885,-3.330809,0.45224348,-0.35168,-0.30772,-3.4117846,10.96768049,3.443638326,crawl
10/07/2020, 15:05:46,-10.439885,-3.330809,0.45224348,-0.41273558,-0.28329778,-3.3006635,10.96768049,3.338410945,crawl
10/07/2020, 15:05:46,-10.315458,-3.2853456,0.45224348,-0.41273558,-0.28329778,-3.3006635,10.83543721,3.338410945,crawl
10/07/2020, 15:05:46,-10.315458,-3.2853456,0.45224348,-0.44326335,-0.25643334,-3.152909,10.83543721,3.194225395,crawl
10/07/2020, 15:05:46,-10.109675,-3.2614172,0.485743,-0.44326335,-0.25643334,-3.152909,10.63382927,3.194225395,crawl
10/07/2020, 15:05:46,-10.109675,-3.2614172,0.485743,-0.44082114,-0.24178001,-2.9831746,10.63382927,3.025245663,crawl
10/07/2020, 15:05:46,-9.798609,-3.2231321,0.53359944,-0.44082114,-0.24178001,-2.9831746,10.32889361,3.025245663,crawl
10/07/2020, 15:05:47,-11.10509,-4.922036,3.9673,0.23079,0.3724389,-1.1026634,12.77845593,1.186524898,crawl
10/07/2020, 15:05:47,-11.10509,-4.922036,3.9673,0.35778558,0.27841336,-1.1539501,12.77845593,1.239808591,crawl
10/07/2020, 15:05:47,-11.382657,-5.139783,3.9577286,0.35778558,0.27841336,-1.1539501,13.10136885,1.239808591,crawl
10/07/2020, 15:05:47,-11.382657,-5.139783,3.9577286,0.43471557,0.17584,-1.2052367,13.10136885,1.293248921,crawl
10/07/2020, 15:05:47,-11.191232,-5.0679984,3.885944,0.43471557,0.17584,-1.2052367,12.88521771,1.293248921,crawl
10/07/2020, 15:05:47,-11.191232,-5.0679984,3.885944,0.4383789,0.085477784,-1.2504178,12.88521771,1.327790367,crawl
10/07/2020, 15:05:47,-10.683953,-4.867001,3.7040894,0.4383789,0.085477784,-1.2504178,12.31076096,1.327790367,crawl
10/07/2020, 15:05:47,-10.683953,-4.867001,3.7040894,0.37610224,0.025643334,-1.295599,12.31076096,1.349328426,crawl
10/07/2020, 15:05:47,-10.243673,-4.6229334,3.4313076,0.37610224,0.025643334,-1.295599,11.75066925,1.349328426,crawl
10/07/2020, 15:05:47,-10.243673,-4.6229334,3.4313076,0.2942878,-0.03174889,-1.35177,11.75066925,1.383797511,crawl
10/07/2020, 15:05:47,-10.018748,-4.421936,3.1609187,0.2942878,-0.03174889,-1.35177,11.39825612,1.383797511,crawl
10/07/2020, 15:05:47,-10.018748,-4.421936,3.1609187,0.23689556,-0.08059334,-1.4018356,11.39825612,1.423993586,crawl
10/07/2020, 15:05:47,-9.877572,-4.3070807,2.8905299,0.23689556,-0.08059334,-1.4018356,11.1567261,1.423993586,crawl
10/07/2020, 15:05:47,-9.877572,-4.3070807,2.8905299,0.23323223,-0.12211112,-1.4470167,11.1567261,1.47077047,crawl
10/07/2020, 15:05:47,-9.753145,-4.254439,2.751746,0.23323223,-0.12211112,-1.4470167,10.99073235,1.47077047,crawl
10/07/2020, 15:05:47,-9.753145,-4.254439,2.751746,0.27719223,-0.13798556,-1.4921979,10.99073235,1.52398492,crawl
10/07/2020, 15:05:47,-9.60479,-4.2281175,2.6895328,0.27719223,-0.13798556,-1.4921979,10.83339972,1.52398492,crawl
10/07/2020, 15:05:47,-9.60479,-4.2281175,2.6895328,0.35778558,-0.12089001,-1.5337156,10.83339972,1.579527928,crawl
10/07/2020, 15:05:47,-9.485149,-4.2352962,2.5914268,0.35778558,-0.12089001,-1.5337156,10.70613311,1.579527928,crawl
10/07/2020, 15:05:47,-9.485149,-4.2352962,2.5914268,0.45059,-0.102573335,-1.559359,10.70613311,1.626392634,crawl
10/07/2020, 15:05:48,-5.45085,-3.7208393,5.4819565,0.71801335,-0.22102112,0.48722336,8.579525483,0.895421743,crawl
10/07/2020, 15:05:48,-5.6733823,-4.658826,5.625526,0.71801335,-0.22102112,0.48722336,9.248700843,0.895421743,crawl
10/07/2020, 15:05:48,-5.6733823,-4.658826,5.625526,0.4713489,-0.35168,0.5250778,9.248700843,0.788387813,crawl
10/07/2020, 15:05:48,-5.5920267,-5.582455,5.582455,0.4713489,-0.35168,0.5250778,9.67462526,0.788387813,crawl
10/07/2020, 15:05:48,-5.5920267,-5.582455,5.582455,0.56659555,-0.34801668,0.6423045,9.67462526,0.924500501,crawl
10/07/2020, 15:05:48,-5.1828537,-6.1854467,5.300102,0.56659555,-0.34801668,0.6423045,9.654678012,0.924500501,crawl
10/07/2020, 15:05:48,-5.1828537,-6.1854467,5.300102,0.9597934,-0.17217667,0.7338878,9.654678012,1.220425929,crawl
10/07/2020, 15:05:48,-4.510471,-6.2715883,4.776074,0.9597934,-0.17217667,0.7338878,9.0822932,1.220425929,crawl
10/07/2020, 15:05:48,-4.510471,-6.2715883,4.776074,1.2345434,0.014653334,0.81570226,9.0822932,1.479757551,crawl
10/07/2020, 15:05:48,-3.9888353,-5.611169,5.7954164,1.2345434,0.014653334,0.81570226,8.999048508,1.479757551,crawl
10/07/2020, 15:05:48,-3.9888353,-5.611169,5.7954164,0.7424356,0.11600556,0.92193896,8.999048508,1.189386107,crawl
10/07/2020, 15:05:48,-4.0869412,-4.479364,7.470392,0.7424356,0.11600556,0.92193896,9.621566913,1.189386107,crawl
10/07/2020, 15:05:48,-4.0869412,-4.479364,7.470392,-0.64841,0.018316668,1.0452712,9.621566913,1.230188137,crawl
10/07/2020, 15:05:48,-4.8119664,-3.5030923,7.6331043,-0.64841,0.018316668,1.0452712,9.679408971,1.230188137,crawl
10/07/2020, 15:05:48,-4.8119664,-3.5030923,7.6331043,-1.7718323,-0.36633334,1.17593,9.679408971,2.157869643,crawl
10/07/2020, 15:05:48,-6.1040907,-2.9575288,7.1712894,-1.7718323,-0.36633334,1.17593,9.870881026,2.157869643,crawl
10/07/2020, 15:05:48,-6.1040907,-2.9575288,7.1712894,-2.3860512,-0.65085226,1.0196278,9.870881026,2.675161633,crawl
10/07/2020, 15:05:48,-6.74776,-3.979264,6.381658,-2.3860512,-0.65085226,1.0196278,10.10407663,2.675161633,crawl
10/07/2020, 15:05:48,-6.74776,-3.979264,6.381658,-2.7987869,-0.7436567,0.72534,10.10407663,2.98535616,crawl
10/07/2020, 15:05:48,-7.082755,-5.9437714,5.3982077,-2.7987869,-0.7436567,0.72534,10.70674944,2.98535616,crawl
10/07/2020, 15:05:49,-5.2570314,-7.719246,-4.2281175,0.6520734,-1.5666857,-0.7851745,10.25183468,1.869813543,crawl
10/07/2020, 15:05:49,-5.2570314,-7.719246,-4.2281175,0.58613336,-1.5276101,-0.7265611,10.25183468,1.790261405,crawl
10/07/2020, 15:05:49,-5.218746,-7.240681,-4.706682,0.58613336,-1.5276101,-0.7265611,10.09037328,1.790261405,crawl
10/07/2020, 15:05:49,-5.218746,-7.240681,-4.706682,0.37488112,-1.4946401,-0.63131446,10.09037328,1.665245586,crawl
10/07/2020, 15:05:49,-5.2331033,-6.862615,-4.955536,0.37488112,-1.4946401,-0.63131446,9.951793404,1.665245586,crawl
10/07/2020, 15:05:49,-5.2331033,-6.862615,-4.955536,0.15386,-1.449459,-0.52019334,9.951793404,1.547645075,crawl
10/07/2020, 15:05:49,-5.1661043,-6.704689,-5.127819,0.15386,-1.449459,-0.52019334,9.896262783,1.547645075,crawl
10/07/2020, 15:05:49,-5.1661043,-6.704689,-5.127819,0.048844445,-1.3664234,-0.40174556,9.896262783,1.42509582,crawl
10/07/2020, 15:05:49,-5.048856,-6.8602223,-5.2929235,0.048844445,-1.3664234,-0.40174556,10.02839139,1.42509582,crawl
10/07/2020, 15:05:49,-5.048856,-6.8602223,-5.2929235,0.06960334,-1.2491968,-0.3052778,10.02839139,1.287839944,crawl
10/07/2020, 15:05:49,-4.910072,-7.04447,-5.3718867,0.06960334,-1.2491968,-0.3052778,10.12869823,1.287839944,crawl
10/07/2020, 15:05:49,-4.910072,-7.04447,-5.3718867,0.19293556,-1.1124322,-0.22590557,10.12869823,1.151417798,crawl
10/07/2020, 15:05:49,-4.7282176,-7.176075,-5.4173503,0.19293556,-1.1124322,-0.22590557,10.15872915,1.151417798,crawl
10/07/2020, 15:05:49,-4.7282176,-7.176075,-5.4173503,0.3504589,-0.95613,-0.14897557,10.15872915,1.029174321,crawl
10/07/2020, 15:05:49,-4.5008993,-7.259824,-5.436493,0.3504589,-0.95613,-0.14897557,10.12514649,1.029174321,crawl
10/07/2020, 15:05:49,-4.5008993,-7.259824,-5.436493,0.48356003,-0.78273225,-0.08303556,10.12514649,0.923793795,crawl
10/07/2020, 15:05:49,-4.3262234,-7.2933235,-5.453243,0.48356003,-0.78273225,-0.08303556,10.08199551,0.923793795,crawl
10/07/2020, 15:05:49,-4.3262234,-7.2933235,-5.453243,0.5458367,-0.6117767,-0.03174889,10.08199551,0.820497668,crawl
10/07/2020, 15:05:49,-4.28076,-7.4033933,-5.386244,0.5458367,-0.6117767,-0.03174889,10.10676798,0.820497668,crawl
10/07/2020, 15:05:49,-4.28076,-7.4033933,-5.386244,0.5104245,-0.48844448,0.009768889,10.10676798,0.706545542,crawl
10/07/2020, 15:05:50,-10.554741,-5.2642097,2.115255,0.01099,0.12577444,2.5570068,11.98285292,2.560121862,crawl
10/07/2020, 15:05:50,-10.554741,-5.2642097,2.115255,-0.013432222,0.046402223,2.3689556,11.98285292,2.369448097,crawl
10/07/2020, 15:05:50,-10.250853,-5.139783,1.9190438,-0.013432222,0.046402223,2.3689556,11.6266967,2.369448097,crawl
10/07/2020, 15:05:50,-10.250853,-5.139783,1.9190438,-0.03297,-0.018316668,2.1662512,11.6266967,2.166579495,crawl
10/07/2020, 15:05:50,-9.961321,-4.962714,1.8257236,-0.03297,-0.018316668,2.1662512,11.27784167,2.166579495,crawl
10/07/2020, 15:05:50,-9.961321,-4.962714,1.8257236,-0.04029667,-0.06594,1.9647678,11.27784167,1.966286975,crawl
10/07/2020, 15:05:50,-9.722038,-4.7688956,1.847259,-0.04029667,-0.06594,1.9647678,10.98511536,1.966286975,crawl
10/07/2020, 15:05:50,-9.722038,-4.7688956,1.847259,-0.023201112,-0.10379445,1.7596211,10.98511536,1.762832422,crawl
10/07/2020, 15:05:50,-9.480363,-4.6492543,1.9310079,-0.023201112,-0.10379445,1.7596211,10.73413423,1.762832422,crawl
10/07/2020, 15:05:50,-9.480363,-4.6492543,1.9310079,0.017095556,-0.12455334,1.5422634,10.73413423,1.547379124,crawl
10/07/2020, 15:05:50,-9.238688,-4.558327,2.0721843,0.017095556,-0.12455334,1.5422634,10.5083614,1.547379124,crawl
10/07/2020, 15:05:50,-9.238688,-4.558327,2.0721843,0.06105556,-0.13310112,1.3249056,10.5083614,1.332973604,crawl
10/07/2020, 15:05:50,-9.02812,-4.4554358,2.254039,0.06105556,-0.13310112,1.3249056,10.31690609,1.332973604,crawl
10/07/2020, 15:05:50,-9.02812,-4.4554358,2.254039,0.091583334,-0.14042778,1.1063267,10.31690609,1.118957656,crawl
10/07/2020, 15:05:50,-8.829515,-4.290331,2.5172493,0.091583334,-0.14042778,1.1063267,10.13428964,1.118957656,crawl
10/07/2020, 15:05:50,-8.829515,-4.290331,2.5172493,0.10135223,-0.15630223,0.8865267,10.13428964,0.905887552,crawl
10/07/2020, 15:05:50,-8.630911,-4.199404,2.7445676,0.10135223,-0.15630223,0.8865267,9.982998846,0.905887552,crawl
10/07/2020, 15:05:50,-8.630911,-4.199404,2.7445676,0.068382226,-0.1746189,0.66428447,9.982998846,0.690247595,crawl
10/07/2020, 15:05:50,-8.506484,-4.091727,2.9431717,0.068382226,-0.1746189,0.66428447,9.887606308,0.690247595,crawl
10/07/2020, 15:05:50,-8.506484,-4.091727,2.9431717,-0.007326667,-0.19904111,0.45059,9.887606308,0.492648359,crawl
10/07/2020, 15:05:51,-11.363515,-1.3543376,1.134198,-5.338698,1.4274789,2.3958201,11.50000461,6.023233813,crawl
10/07/2020, 15:05:51,-11.363515,-1.3543376,1.134198,-5.14332,0.96956223,2.3872724,11.50000461,5.752639543,crawl
10/07/2020, 15:05:51,-12.19861,-3.0580273,1.3710874,-5.14332,0.96956223,2.3872724,12.65059307,5.752639543,crawl
10/07/2020, 15:05:51,-12.19861,-3.0580273,1.3710874,-4.2763314,1.0391656,2.4348958,12.65059307,5.029472434,crawl
10/07/2020, 15:05:51,-12.035898,-4.5224347,2.5914268,-4.2763314,1.0391656,2.4348958,13.1160495,5.029472434,crawl
10/07/2020, 15:05:51,-12.035898,-4.5224347,2.5914268,-3.2103012,1.460449,2.5106046,13.1160495,4.329212437,crawl
10/07/2020, 15:05:51,-11.413764,-4.910072,3.0532417,-3.2103012,1.460449,2.5106046,12.79472936,4.329212437,crawl
10/07/2020, 15:05:51,-11.413764,-4.910072,3.0532417,-2.5093834,1.7803801,2.5423534,12.79472936,3.991280424,crawl
10/07/2020, 15:05:51,-10.928021,-4.24726,2.9742785,-2.5093834,1.7803801,2.5423534,12.09575144,3.991280424,crawl
10/07/2020, 15:05:51,-10.928021,-4.24726,2.9742785,-2.3628502,1.9488934,2.5057201,12.09575144,3.957256628,crawl
10/07/2020, 15:05:51,-10.916057,-3.0053852,2.5220351,-2.3628502,1.9488934,2.5057201,11.59971092,3.957256628,crawl
10/07/2020, 15:05:51,-10.916057,-3.0053852,2.5220351,-2.7194145,1.944009,2.449549,11.59971092,4.144234062,crawl
10/07/2020, 15:05:51,-11.270195,-1.8257236,1.9597218,-2.7194145,1.944009,2.449549,11.58408701,4.144234062,crawl
10/07/2020, 15:05:51,-11.270195,-1.8257236,1.9597218,-3.4203324,1.7535156,2.3762822,11.58408701,4.518872434,crawl
10/07/2020, 15:05:51,-11.734403,-1.160519,1.5888343,-3.4203324,1.7535156,2.3762822,11.89821014,4.518872434,crawl
10/07/2020, 15:05:51,-11.734403,-1.160519,1.5888343,-4.2140546,1.4983034,2.316448,11.89821014,5.036774799,crawl
10/07/2020, 15:05:51,-11.988042,-1.0169497,1.3567305,-4.2140546,1.4983034,2.316448,12.10735529,5.036774799,crawl
10/07/2020, 15:05:51,-11.988042,-1.0169497,1.3567305,-4.7733235,1.2101212,2.3127844,12.10735529,5.4404028,crawl
10/07/2020, 15:05:51,-12.071791,-1.2394822,1.5433706,-4.7733235,1.2101212,2.3127844,12.23300615,5.4404028,crawl
10/07/2020, 15:05:51,-12.071791,-1.2394822,1.5433706,-4.9919024,0.98910004,2.3372068,12.23300615,5.599994981,crawl
10/07/2020, 15:05:52,-9.382257,-2.548356,2.952743,-0.06594,0.46768558,0.54095227,10.16068724,0.718127592,crawl
10/07/2020, 15:05:52,-9.389436,-2.5579274,2.9886355,-0.06594,0.46768558,0.54095227,10.18019837,0.718127592,crawl
10/07/2020, 15:05:52,-9.389436,-2.5579274,2.9886355,-0.081814446,0.44570556,0.5226356,10.18019837,0.691733331,crawl
10/07/2020, 15:05:52,-9.370294,-2.6536403,3.0125637,-0.081814446,0.44570556,0.5226356,10.19410365,0.691733331,crawl
10/07/2020, 15:05:52,-9.370294,-2.6536403,3.0125637,-0.06960334,0.4359367,0.49455002,10.19410365,0.662921672,crawl
10/07/2020, 15:05:52,-9.370294,-2.7589245,3.07717,-0.06960334,0.4359367,0.49455002,10.24124218,0.662921672,crawl
10/07/2020, 15:05:52,-9.370294,-2.7589245,3.07717,-0.029306669,0.43105224,0.46280113,10.24124218,0.633126999,crawl
10/07/2020, 15:05:52,-9.346365,-2.8307092,3.1609187,-0.029306669,0.43105224,0.46280113,10.26444641,0.633126999,crawl
10/07/2020, 15:05:52,-9.346365,-2.8307092,3.1609187,0.037854444,0.44326335,0.42861003,10.26444641,0.617755545,crawl
10/07/2020, 15:05:52,-9.355937,-2.7972097,3.2231321,0.037854444,0.44326335,0.42861003,10.28331271,0.617755545,crawl
10/07/2020, 15:05:52,-9.355937,-2.7972097,3.2231321,0.098910004,0.44082114,0.3944189,10.28331271,0.599727215,crawl
