DATE,TIME,ax,ay,az,gx,gy,gz,ma,mg,label
10/07/2020, 15:07:19,-4.429115,-1.9788643,7.173682,0.3174889,0.26986557,0.17584,8.659946797,0.452267998,crawl
10/07/2020, 15:07:19,-4.429115,-1.9788643,7.173682,0.3858711,0.27841336,0.21369445,8.659946797,0.521608887,crawl
10/07/2020, 15:07:19,-4.3525443,-1.9070797,7.3698936,0.3858711,0.27841336,0.21369445,8.769089227,0.521608887,crawl
10/07/2020, 15:07:19,-4.3525443,-1.9070797,7.3698936,0.3174889,0.25643334,0.24666445,8.769089227,0.476865405,crawl
10/07/2020, 15:07:19,-4.278367,-1.294517,7.5756764,0.3174889,0.25643334,0.24666445,8.796082791,0.476865405,crawl
10/07/2020, 15:07:19,-4.278367,-1.294517,7.5756764,0.045181114,0.15508112,0.16607112,8.796082791,0.231670248,crawl
10/07/2020, 15:07:19,-4.4004006,-0.7680961,7.776674,0.045181114,0.15508112,0.16607112,8.968285939,0.231670248,crawl
10/07/2020, 15:07:19,-4.4004006,-0.7680961,7.776674,-0.29184556,0.014653334,0.06105556,8.968285939,0.298523588,crawl
10/07/2020, 15:07:19,-4.5942197,-0.36610186,7.9346,-0.29184556,0.014653334,0.06105556,9.175988246,0.298523588,crawl
10/07/2020, 15:07:19,-4.5942197,-0.36610186,7.9346,-0.6032289,-0.11966889,0.023201112,9.175988246,0.615421866,crawl
10/07/2020, 15:07:19,-4.6061835,-0.21535404,7.9513497,-0.6032289,-0.11966889,0.023201112,9.191695528,0.615421866,crawl
10/07/2020, 15:07:19,-4.6061835,-0.21535404,7.9513497,-0.8669889,-0.20636779,0.08425667,9.191695528,0.895185232,crawl
10/07/2020, 15:07:19,-4.2281175,-0.4331009,8.006385,-0.8669889,-0.20636779,0.08425667,9.064587804,0.895185232,crawl
10/07/2020, 15:07:20,-4.2281175,-0.4331009,8.006385,-0.96589893,-0.19415668,0.2515489,9.064587804,1.01682565,crawl
10/07/2020, 15:07:20,-4.141976,-0.9762716,7.834101,-0.96589893,-0.19415668,0.2515489,8.915279698,1.01682565,crawl
10/07/2020, 15:07:20,-4.141976,-0.9762716,7.834101,-0.8218078,-0.21247335,0.2613178,8.915279698,0.888144118,crawl
10/07/2020, 15:07:20,-4.2975097,-1.5122639,7.759924,-0.8218078,-0.21247335,0.2613178,8.998441583,0.888144118,crawl
10/07/2020, 15:07:20,-4.2975097,-1.5122639,7.759924,-0.5702589,-0.15996556,0.20270446,8.998441583,0.62599785,crawl
10/07/2020, 15:07:20,-4.338187,-1.7778672,7.783852,-0.5702589,-0.15996556,0.20270446,9.086750444,0.62599785,crawl
10/07/2020, 15:07:20,-4.338187,-1.7778672,7.783852,-0.3492378,-0.11234222,0.19537778,9.086750444,0.415644432,crawl
10/07/2020, 15:07:20,-4.1850467,-1.7156538,7.7407813,-0.3492378,-0.11234222,0.19537778,8.965365513,0.415644432,crawl
10/07/2020, 15:07:20,-4.1850467,-1.7156538,7.7407813,-0.22224224,-0.10135223,0.22224224,8.965365513,0.330235518,crawl
10/07/2020, 15:07:20,-4.0271206,-1.5146568,7.776674,-0.22224224,-0.10135223,0.22224224,8.887549759,0.330235518,crawl
10/07/2020, 15:07:20,-4.0271206,-1.5146568,7.776674,-0.15752333,-0.098910004,0.25399113,8.887549759,0.314814679,crawl
10/07/2020, 15:07:20,-4.046263,-1.3280165,7.8987074,-0.15752333,-0.098910004,0.25399113,8.973597514,0.314814679,crawl
10/07/2020, 15:07:20,-4.046263,-1.3280165,7.8987074,-0.123332225,-0.10501556,0.27108666,8.973597514,0.315795954,crawl
10/07/2020, 15:07:20,-4.0869412,-1.0360922,8.020741,-0.123332225,-0.10501556,0.27108666,9.061394446,0.315795954,crawl
10/07/2020, 15:07:20,-4.0869412,-1.0360922,8.020741,-0.13676445,-0.11600556,0.28940335,9.061394446,0.340464542,crawl
10/07/2020, 15:07:20,-4.165904,-0.8757731,8.16431,-0.13676445,-0.11600556,0.28940335,9.207480665,0.340464542,crawl
10/07/2020, 15:07:20,-4.165904,-0.8757731,8.16431,-0.23445335,-0.17584,0.4481478,9.207480665,0.535466651,crawl
10/07/2020, 15:07:20,-4.046263,-0.36610186,8.372486,-0.23445335,-0.17584,0.4481478,9.306170015,0.535466651,crawl
10/07/2020, 15:07:20,-4.046263,-0.36610186,8.372486,-0.27963445,-0.21247335,0.3260367,9.306170015,0.479207962,crawl
10/07/2020, 15:07:20,-3.6729827,0.11246266,8.606983,-0.27963445,-0.21247335,0.3260367,9.358611503,0.479207962,crawl
10/07/2020, 15:07:21,-6.836294,-1.7012969,4.4434714,-1.2015734,-0.16973445,-0.08425667,8.329091645,1.216424078,crawl
10/07/2020, 15:07:21,-6.8721867,-1.6127625,4.5152564,-1.2015734,-0.16973445,-0.08425667,8.379468517,1.216424078,crawl
10/07/2020, 15:07:21,-6.8721867,-1.6127625,4.5152564,-1.16494,-0.23689556,-0.12699556,8.379468517,1.195546981,crawl
10/07/2020, 15:07:21,-6.9009004,-1.5888343,4.57747,-1.16494,-0.23689556,-0.12699556,8.432084572,1.195546981,crawl
10/07/2020, 15:07:21,-6.9009004,-1.5888343,4.57747,-1.1234223,-0.30039334,-0.17950334,8.432084572,1.176662736,crawl
10/07/2020, 15:07:21,-6.908079,-1.6127625,4.6492543,-1.1234223,-0.30039334,-0.17950334,8.481634629,1.176662736,crawl
10/07/2020, 15:07:21,-6.908079,-1.6127625,4.6492543,-1.0587034,-0.34191114,-0.22224224,8.481634629,1.134525352,crawl
10/07/2020, 15:07:21,-6.9056864,-1.6247265,4.7162533,-1.0587034,-0.34191114,-0.22224224,8.518878193,1.134525352,crawl
10/07/2020, 15:07:21,-6.9056864,-1.6247265,4.7162533,-0.9732256,-0.36877558,-0.26742333,8.518878193,1.07455978,crawl
10/07/2020, 15:07:21,-6.8602223,-1.5840486,4.7545385,-0.9732256,-0.36877558,-0.26742333,8.495734065,1.07455978,crawl
10/07/2020, 15:07:21,-6.8602223,-1.5840486,4.7545385,-0.89263225,-0.38831335,-0.32359445,8.495734065,1.025813314,crawl
10/07/2020, 15:07:21,-6.795616,-1.5361922,4.749753,-0.89263225,-0.38831335,-0.32359445,8.432107614,1.025813314,crawl
10/07/2020, 15:07:21,-6.795616,-1.5361922,4.749753,-0.8083756,-0.41884112,-0.39686114,8.432107614,0.993175591,crawl
10/07/2020, 15:07:21,-6.735796,-1.4524434,4.8789654,-0.8083756,-0.41884112,-0.39686114,8.443035135,0.993175591,crawl
10/07/2020, 15:07:21,-6.735796,-1.4524434,4.8789654,-0.72900337,-0.4359367,-0.47379112,8.443035135,0.972607186,crawl
10/07/2020, 15:07:21,-6.8171515,-1.3543376,5.0009995,-0.72900337,-0.4359367,-0.47379112,8.562580276,0.972607186,crawl
10/07/2020, 15:07:21,-6.8171515,-1.3543376,5.0009995,-0.6679478,-0.4249467,-0.54339445,8.562580276,0.96021431,crawl
10/07/2020, 15:07:21,-7.0301127,-1.2801601,5.032106,-0.6679478,-0.4249467,-0.54339445,8.739758864,0.96021431,crawl
10/07/2020, 15:07:21,-7.0301127,-1.2801601,5.032106,-0.61666113,-0.43227336,-0.61299783,8.739758864,0.971029117,crawl
10/07/2020, 15:07:21,-7.338787,-1.2059826,4.9316072,-0.61666113,-0.43227336,-0.61299783,8.923729028,0.971029117,crawl
10/07/2020, 15:07:22,-13.155739,-3.4360933,1.8257236,-1.35177,0.21735778,1.6631534,13.71909138,2.154206564,crawl
10/07/2020, 15:07:22,-13.155739,-3.4360933,1.8257236,-1.5483689,0.23079,1.8060234,13.71909138,2.390069193,crawl
10/07/2020, 15:07:22,-13.330415,-3.7663028,1.7084754,-1.5483689,0.23079,1.8060234,13.95721616,2.390069193,crawl
10/07/2020, 15:07:22,-13.330415,-3.7663028,1.7084754,-1.6790278,0.25521225,1.944009,13.95721616,2.581363673,crawl
10/07/2020, 15:07:22,-13.280166,-4.0869412,1.6821543,-1.6790278,0.25521225,1.944009,13.99626851,2.581363673,crawl
10/07/2020, 15:07:22,-13.280166,-4.0869412,1.6821543,-1.7303145,0.3052778,2.067341,13.99626851,2.713131393,crawl
10/07/2020, 15:07:22,-12.971492,-4.386044,1.713261,-1.7303145,0.3052778,2.067341,13.79971903,2.713131393,crawl
10/07/2020, 15:07:22,-12.971492,-4.386044,1.713261,-1.7083346,0.37732336,2.1699145,13.79971903,2.787347982,crawl
10/07/2020, 15:07:22,-12.497713,-4.6037908,1.7874385,-1.7083346,0.37732336,2.1699145,13.43810471,2.787347982,crawl
10/07/2020, 15:07:22,-12.497713,-4.6037908,1.7874385,-1.6436156,0.44570556,2.2505078,13.43810471,2.822217426,crawl
10/07/2020, 15:07:22,-11.846865,-4.699504,1.9477576,-1.6436156,0.44570556,2.2505078,12.89291665,2.822217426,crawl
10/07/2020, 15:07:22,-11.846865,-4.699504,1.9477576,-1.5422634,0.49455002,2.3030157,12.89291665,2.8154995,crawl
10/07/2020, 15:07:22,-11.064412,-4.7282176,2.225325,-1.5422634,0.49455002,2.3030157,12.23639363,2.8154995,crawl
10/07/2020, 15:07:22,-11.064412,-4.7282176,2.225325,-1.4372479,0.54339445,2.3213322,12.23639363,2.783799962,crawl
10/07/2020, 15:07:22,-10.24846,-4.6971107,2.507678,-1.4372479,0.54339445,2.3213322,11.54912231,2.783799962,crawl
10/07/2020, 15:07:22,-10.24846,-4.6971107,2.507678,-1.2931567,0.59956557,2.316448,11.54912231,2.719864784,crawl
10/07/2020, 15:07:22,-9.499506,-4.627719,2.7493532,-1.2931567,0.59956557,2.316448,10.91857772,2.719864784,crawl
10/07/2020, 15:07:22,-9.499506,-4.627719,2.7493532,-1.1075479,0.67161113,2.2859201,10.91857772,2.627385529,crawl
10/07/2020, 15:07:22,-8.882157,-4.551149,2.9072795,-1.1075479,0.67161113,2.2859201,10.39509255,2.627385529,crawl
10/07/2020, 15:07:22,-8.882157,-4.551149,2.9072795,-0.88286334,0.7570889,2.2566135,10.39509255,2.538687799,crawl
10/07/2020, 15:07:23,-9.97807,-3.050849,1.5625132,-0.74121445,-0.85722005,-2.70354,10.55040346,2.931442322,crawl
10/07/2020, 15:07:23,-9.97807,-3.050849,1.5625132,-0.8779789,-0.8218078,-2.6424847,10.55040346,2.903263724,crawl
10/07/2020, 15:07:23,-9.827323,-3.1537402,1.550549,-0.8779789,-0.8218078,-2.6424847,10.43678858,2.903263724,crawl
10/07/2020, 15:07:23,-9.827323,-3.1537402,1.550549,-0.98055226,-0.7778478,-2.5802078,10.43678858,2.867752149,crawl
10/07/2020, 15:07:23,-9.68136,-3.249453,1.5146568,-0.98055226,-0.7778478,-2.5802078,10.32384941,2.867752149,crawl
10/07/2020, 15:07:23,-9.68136,-3.249453,1.5146568,-1.0525978,-0.71923447,-2.5179312,10.32384941,2.822275307,crawl
10/07/2020, 15:07:23,-9.49472,-3.3044882,1.5170496,-1.0525978,-0.71923447,-2.5179312,10.16714306,2.822275307,crawl
10/07/2020, 15:07:23,-9.49472,-3.3044882,1.5170496,-1.1087689,-0.6655056,-2.449549,10.16714306,2.76993797,crawl
10/07/2020, 15:07:23,-9.253045,-3.306881,1.524228,-1.1087689,-0.6655056,-2.449549,9.943720422,2.76993797,crawl
10/07/2020, 15:07:23,-9.253045,-3.306881,1.524228,-1.1454023,-0.61544,-2.3970413,9.943720422,2.726998342,crawl
10/07/2020, 15:07:23,-8.925228,-3.2973096,1.6031911,-1.1454023,-0.61544,-2.3970413,9.648946556,2.726998342,crawl
10/07/2020, 15:07:23,-8.925228,-3.2973096,1.6031911,-1.1563922,-0.5519422,-2.328659,9.648946556,2.657919523,crawl
10/07/2020, 15:07:23,-8.554341,-3.2805598,1.7204394,-1.1563922,-0.5519422,-2.328659,9.321949349,2.657919523,crawl
10/07/2020, 15:07:23,-8.554341,-3.2805598,1.7204394,-1.1368545,-0.47623336,-2.2529502,9.321949349,2.568077297,crawl
10/07/2020, 15:07:23,-8.238488,-3.2733815,1.7970098,-1.1368545,-0.47623336,-2.2529502,9.045272707,2.568077297,crawl
10/07/2020, 15:07:23,-8.238488,-3.2733815,1.7970098,-1.0843467,-0.40052447,-2.1577034,9.045272707,2.447838122,crawl
10/07/2020, 15:07:23,-7.944171,-3.3020952,1.8305093,-1.0843467,-0.40052447,-2.1577034,8.79570628,2.447838122,crawl
10/07/2020, 15:07:23,-7.944171,-3.3020952,1.8305093,-1.0147433,-0.31382558,-2.0502455,8.79570628,2.309046821,crawl
10/07/2020, 15:07:23,-7.652247,-3.318845,1.8520447,-1.0147433,-0.31382558,-2.0502455,8.544102372,2.309046821,crawl
10/07/2020, 15:07:23,-7.652247,-3.318845,1.8520447,-0.9426978,-0.23445335,-1.9354612,8.544102372,2.1655617,crawl
10/07/2020, 15:07:24,-9.540184,-4.15394,2.885744,0.83401895,-0.7106867,-2.5777657,10.7980484,2.800988965,crawl
10/07/2020, 15:07:24,-9.540184,-4.15394,2.885744,0.9072856,-0.71801335,-2.6669068,10.7980484,2.907077971,crawl
10/07/2020, 15:07:24,-9.755538,-4.240082,2.8713872,0.9072856,-0.71801335,-2.6669068,11.01788,2.907077971,crawl
10/07/2020, 15:07:24,-9.755538,-4.240082,2.8713872,0.9512456,-0.72534,-2.7450578,11.01788,2.99438287,crawl
10/07/2020, 15:07:24,-10.073783,-4.319045,2.8115666,0.9512456,-0.72534,-2.7450578,11.31548317,2.99438287,crawl
10/07/2020, 15:07:24,-10.073783,-4.319045,2.8115666,0.97688895,-0.73999333,-2.801229,11.31548317,3.057578466,crawl
10/07/2020, 15:07:24,-10.444671,-4.412365,2.6991038,0.97688895,-0.73999333,-2.801229,11.65526798,3.057578466,crawl
10/07/2020, 15:07:24,-10.444671,-4.412365,2.6991038,0.99398446,-0.7656367,-2.8512945,11.65526798,3.115138049,crawl
10/07/2020, 15:07:24,-10.84188,-4.453043,2.6344976,0.99398446,-0.7656367,-2.8512945,12.01318144,3.115138049,crawl
10/07/2020, 15:07:24,-10.84188,-4.453043,2.6344976,0.99886894,-0.78761667,-2.8952546,12.01318144,3.16236912,crawl
10/07/2020, 15:07:24,-11.243874,-4.4889355,2.5818555,0.99886894,-0.78761667,-2.8952546,12.3790635,3.16236912,crawl
10/07/2020, 15:07:24,-11.243874,-4.4889355,2.5818555,1.0135223,-0.8181445,-2.9172347,12.3790635,3.194815467,crawl
10/07/2020, 15:07:24,-11.574083,-4.4985065,2.5674987,1.0135223,-0.8181445,-2.9172347,12.68022143,3.194815467,crawl
10/07/2020, 15:07:24,-11.574083,-4.4985065,2.5674987,1.020849,-0.8584412,-2.9270034,12.68022143,3.216582459,crawl
10/07/2020, 15:07:24,-11.717652,-4.429115,2.548356,1.020849,-0.8584412,-2.9270034,12.78337016,3.216582459,crawl
10/07/2020, 15:07:24,-11.717652,-4.429115,2.548356,0.99398446,-0.8987378,-2.9392145,12.78337016,3.230281166,crawl
10/07/2020, 15:07:24,-11.686545,-4.278367,2.5148566,0.99398446,-0.8987378,-2.9392145,12.69662439,3.230281166,crawl
10/07/2020, 15:07:24,-11.686545,-4.278367,2.5148566,0.9292656,-0.9365923,-2.955089,12.69662439,3.236246473,crawl
10/07/2020, 15:07:24,-11.464013,-4.1084766,2.4382863,0.9292656,-0.9365923,-2.955089,12.41967861,3.236246473,crawl
10/07/2020, 15:07:24,-11.464013,-4.1084766,2.4382863,0.83524,-0.97078335,-2.9721847,12.41967861,3.236344825,crawl
10/07/2020, 15:07:25,-9.365508,-3.1322048,3.5413775,-0.7265611,0.02198,2.8366413,10.4911774,2.928294406,crawl
10/07/2020, 15:07:25,-9.372686,-3.1202407,3.5844483,-0.7265611,0.02198,2.8366413,10.50863559,2.928294406,crawl
10/07/2020, 15:07:25,-9.372686,-3.1202407,3.5844483,-0.6581789,0.051286668,2.7181935,10.50863559,2.797213952,crawl
10/07/2020, 15:07:25,-9.3200445,-3.199204,3.6993039,-0.6581789,0.051286668,2.7181935,10.52534963,2.797213952,crawl
10/07/2020, 15:07:25,-9.3200445,-3.199204,3.6993039,-0.5470578,0.09036223,2.5899768,10.52534963,2.648663311,crawl
10/07/2020, 15:07:25,-9.2075815,-3.2757742,3.8500516,-0.5470578,0.09036223,2.5899768,10.50395887,2.648663311,crawl
10/07/2020, 15:07:25,-9.2075815,-3.2757742,3.8500516,-0.40785113,0.15019667,2.4642024,10.50395887,2.502238013,crawl
10/07/2020, 15:07:25,-9.049655,-3.330809,4.0438704,-0.40785113,0.15019667,2.4642024,10.45674101,2.502238013,crawl
10/07/2020, 15:07:25,-9.049655,-3.330809,4.0438704,-0.27719223,0.21369445,2.317669,10.45674101,2.343947536,crawl
10/07/2020, 15:07:25,-8.903693,-3.3786657,4.2257247,-0.27719223,0.21369445,2.317669,10.41863156,2.343947536,crawl
10/07/2020, 15:07:25,-8.903693,-3.3786657,4.2257247,-0.19782001,0.26009667,2.1467135,10.41863156,2.171442346,crawl
10/07/2020, 15:07:25,-8.822337,-3.4025939,4.3262234,-0.19782001,0.26009667,2.1467135,10.39843673,2.171442346,crawl
10/07/2020, 15:07:25,-8.822337,-3.4025939,4.3262234,-0.17584,0.28574002,1.9574412,10.39843673,1.985986697,crawl
10/07/2020, 15:07:25,-8.851051,-3.4121652,4.3836513,-0.17584,0.28574002,1.9574412,10.44989852,1.985986697,crawl
10/07/2020, 15:07:25,-8.851051,-3.4121652,4.3836513,-0.21613668,0.29673,1.7754956,10.44989852,1.81304952,crawl
10/07/2020, 15:07:25,-8.906086,-3.5318062,4.3118663,-0.21613668,0.29673,1.7754956,10.50638917,1.81304952,crawl
10/07/2020, 15:07:25,-8.906086,-3.5318062,4.3118663,-0.28818223,0.26986557,1.6069822,10.50638917,1.654771379,crawl
10/07/2020, 15:07:25,-8.946764,-3.7040894,4.223332,-0.28818223,0.26986557,1.6069822,10.56415623,1.654771379,crawl
10/07/2020, 15:07:25,-8.946764,-3.7040894,4.223332,-0.36389112,0.23445335,1.4311423,10.56415623,1.495176743,crawl
10/07/2020, 15:07:25,-8.879765,-3.9194436,4.1204405,-0.36389112,0.23445335,1.4311423,10.54468049,1.495176743,crawl
10/07/2020, 15:07:26,-9.542577,-3.871587,2.3688943,-1.4140468,0.123332225,2.6437056,10.56700612,3.000652999,crawl
10/07/2020, 15:07:26,-9.542577,-3.871587,2.3688943,-1.5373789,0.106236674,2.5887556,10.56700612,3.012718993,crawl
10/07/2020, 15:07:26,-9.233903,-4.1443686,2.5052853,-1.5373789,0.106236674,2.5887556,10.42675448,3.012718993,crawl
10/07/2020, 15:07:26,-9.233903,-4.1443686,2.5052853,-1.5923289,0.102573335,2.51671,10.42675448,2.979909743,crawl
10/07/2020, 15:07:26,-9.078369,-4.4051867,2.751746,-1.5923289,0.102573335,2.51671,10.4591855,2.979909743,crawl
10/07/2020, 15:07:26,-9.078369,-4.4051867,2.751746,-1.5935501,0.10745778,2.43978,10.4591855,2.916071927,crawl
10/07/2020, 15:07:26,-9.052048,-4.5966125,3.022135,-1.5935501,0.10745778,2.43978,10.59253106,2.916071927,crawl
10/07/2020, 15:07:26,-9.052048,-4.5966125,3.022135,-1.5886656,0.098910004,2.3677344,10.59253106,2.853034864,crawl
10/07/2020, 15:07:26,-9.147761,-4.706682,3.1848469,-1.5886656,0.098910004,2.3677344,10.76929174,2.853034864,crawl
10/07/2020, 15:07:26,-9.147761,-4.706682,3.1848469,-1.5862234,0.068382226,2.306679,10.76929174,2.800276548,crawl
10/07/2020, 15:07:26,-9.322437,-4.761717,3.237489,-1.5862234,0.068382226,2.306679,10.95733175,2.800276548,crawl
10/07/2020, 15:07:26,-9.322437,-4.761717,3.237489,-1.5764545,0.013432222,2.27493,10.95733175,2.767796196,crawl
10/07/2020, 15:07:26,-9.403793,-4.847859,3.2087753,-1.5764545,0.013432222,2.27493,11.05573624,2.767796196,crawl
10/07/2020, 15:07:26,-9.403793,-4.847859,3.2087753,-1.5373789,-0.05006556,2.2480657,11.05573624,2.723938307,crawl
10/07/2020, 15:07:26,-9.329616,-5.0344987,3.2398818,-1.5373789,-0.05006556,2.2480657,11.08533887,2.723938307,crawl
10/07/2020, 15:07:26,-9.329616,-5.0344987,3.2398818,-1.4409112,-0.098910004,2.2370756,11.08533887,2.662802151,crawl
10/07/2020, 15:07:26,-9.085547,-5.302495,3.1944182,-1.4409112,-0.098910004,2.2370756,10.99399533,2.662802151,crawl
10/07/2020, 15:07:26,-9.085547,-5.302495,3.1944182,-1.2723979,-0.12211112,2.2273068,10.99399533,2.568034901,crawl
10/07/2020, 15:07:26,-8.743374,-5.584848,3.1561332,-1.2723979,-0.12211112,2.2273068,10.84427451,2.568034901,crawl
10/07/2020, 15:07:26,-8.743374,-5.584848,3.1561332,-1.0440501,-0.10745778,2.2175379,10.84427451,2.453377678,crawl
10/07/2020, 15:07:27,-9.037691,-4.2711883,1.6007984,0.04396,0.86821,3.3128746,10.12351052,3.425034151,crawl
10/07/2020, 15:07:27,-9.944571,-4.536792,1.6893328,0.04396,0.86821,3.3128746,11.06032588,3.425034151,crawl
10/07/2020, 15:07:27,-9.944571,-4.536792,1.6893328,0.11234222,0.92316,3.6437957,11.06032588,3.76059736,crawl
10/07/2020, 15:07:27,-10.8682,-4.773681,1.7156538,0.11234222,0.92316,3.6437957,11.99371825,3.76059736,crawl
10/07/2020, 15:07:27,-10.8682,-4.773681,1.7156538,0.16729222,0.9817734,3.9625058,11.99371825,4.08574571,crawl
10/07/2020, 15:07:27,-11.729616,-4.9579287,1.6677973,0.16729222,0.9817734,3.9625058,12.84314992,4.08574571,crawl
10/07/2020, 15:07:27,-11.729616,-4.9579287,1.6677973,0.1856089,1.0269545,4.244582,12.84314992,4.370991206,crawl
10/07/2020, 15:07:27,-12.500106,-5.046463,1.6103697,0.1856089,1.0269545,4.244582,13.5761823,4.370991206,crawl
10/07/2020, 15:07:27,-12.500106,-5.046463,1.6103697,0.14409111,1.0782411,4.513227,13.5761823,4.64247606,crawl
10/07/2020, 15:07:27,-13.093526,-5.1062837,1.5768701,0.14409111,1.0782411,4.513227,14.14217353,4.64247606,crawl
10/07/2020, 15:07:27,-13.093526,-5.1062837,1.5768701,0.034191113,1.0867889,4.7440166,14.14217353,4.867029184,crawl
10/07/2020, 15:07:27,-13.442878,-5.197211,1.5577276,0.034191113,1.0867889,4.7440166,14.49649882,4.867029184,crawl
10/07/2020, 15:07:27,-13.442878,-5.197211,1.5577276,-0.09768889,1.0367234,4.889329,14.49649882,4.99898751,crawl
10/07/2020, 15:07:27,-13.430914,-5.2259245,1.7874385,-0.09768889,1.0367234,4.889329,14.52221306,4.99898751,crawl
10/07/2020, 15:07:27,-13.430914,-5.2259245,1.7874385,-0.20148334,0.99032116,4.980912,14.52221306,5.082402775,crawl
10/07/2020, 15:07:27,-13.174882,-5.3312087,2.268396,-0.20148334,0.99032116,4.980912,14.39253001,5.082402775,crawl
10/07/2020, 15:07:27,-13.174882,-5.3312087,2.268396,-0.24300112,0.9610145,5.030978,14.39253001,5.1277032,crawl
10/07/2020, 15:07:27,-12.873385,-5.505885,2.8115666,-0.24300112,0.9610145,5.030978,14.28088688,5.1277032,crawl
10/07/2020, 15:07:27,-12.873385,-5.505885,2.8115666,-0.19293556,0.94514006,5.0248723,14.28088688,5.116625405,crawl
10/07/2020, 15:07:27,-12.686746,-5.74756,3.333202,-0.19293556,0.94514006,5.0248723,14.32124981,5.116625405,crawl
10/07/2020, 15:07:28,-6.7525454,-3.9481573,1.6797615,0.25643334,0.21613668,3.2396078,8.000400849,3.256920615,crawl
10/07/2020, 15:07:28,-6.7525454,-3.9481573,1.6797615,0.2759711,0.27475002,3.5534334,8.000400849,3.574707917,crawl
10/07/2020, 15:07:28,-7.176075,-4.065406,1.7395821,0.2759711,0.27475002,3.5534334,8.429099749,3.574707917,crawl
10/07/2020, 15:07:28,-7.176075,-4.065406,1.7395821,0.2759711,0.35168,3.8513846,8.429099749,3.877241613,crawl
10/07/2020, 15:07:28,-7.647461,-4.1922255,1.7970098,0.2759711,0.35168,3.8513846,8.904361705,3.877241613,crawl
10/07/2020, 15:07:28,-7.647461,-4.1922255,1.7970098,0.25765446,0.43960002,4.1566625,8.904361705,4.187777076,crawl
10/07/2020, 15:07:28,-8.283952,-4.3501515,1.847259,0.25765446,0.43960002,4.1566625,9.537297371,4.187777076,crawl
10/07/2020, 15:07:28,-8.283952,-4.3501515,1.847259,0.21125223,0.53851,4.4753723,9.537297371,4.512602121,crawl
10/07/2020, 15:07:28,-9.064013,-4.486542,1.969293,0.21125223,0.53851,4.4753723,10.3035673,4.512602121,crawl
10/07/2020, 15:07:28,-9.064013,-4.486542,1.969293,0.15752333,0.63131446,4.7940826,10.3035673,4.838036783,crawl
10/07/2020, 15:07:28,-10.097712,-4.706682,2.1343977,0.15752333,0.63131446,4.7940826,11.34338089,4.838036783,crawl
10/07/2020, 15:07:28,-10.097712,-4.706682,2.1343977,0.12821667,0.6972545,5.087149,11.34338089,5.136310906,crawl
10/07/2020, 15:07:28,-11.330015,-4.979464,2.268396,0.12821667,0.6972545,5.087149,12.58212726,5.136310906,crawl
10/07/2020, 15:07:28,-11.330015,-4.979464,2.268396,0.15019667,0.74121445,5.3338137,12.58212726,5.387163089,crawl
10/07/2020, 15:07:28,-12.7393875,-5.4125648,2.5459633,0.15019667,0.74121445,5.3338137,14.0737266,5.387163089,crawl
10/07/2020, 15:07:28,-12.7393875,-5.4125648,2.5459633,0.22224224,0.78029,5.5340757,14.0737266,5.593231478,crawl
10/07/2020, 15:07:28,-14.1009035,-5.9007006,2.9312077,0.22224224,0.78029,5.5340757,15.56424509,5.593231478,crawl
10/07/2020, 15:07:28,-14.1009035,-5.9007006,2.9312077,0.34313223,0.8083756,5.689157,15.56424509,5.756537006,crawl
10/07/2020, 15:07:28,-15.311672,-6.3122663,3.3044882,0.34313223,0.8083756,5.689157,16.88821052,5.756537006,crawl
10/07/2020, 15:07:28,-15.311672,-6.3122663,3.3044882,0.4908867,0.80471224,5.7709713,16.88821052,5.847447413,crawl
10/07/2020, 15:07:29,-9.853643,-2.928815,1.1294123,0.94880337,-0.73999333,-3.0381246,10.34155778,3.267723796,crawl
10/07/2020, 15:07:29,-9.58804,-2.7349963,0.9834501,0.94880337,-0.73999333,-3.0381246,10.01887702,3.267723796,crawl
10/07/2020, 15:07:29,-9.58804,-2.7349963,0.9834501,0.7216767,-0.7216767,-3.0491145,10.01887702,3.215390111,crawl
10/07/2020, 15:07:29,-9.399008,-2.5938199,0.8709874,0.7216767,-0.7216767,-3.0491145,9.789170961,3.215390111,crawl
10/07/2020, 15:07:29,-9.399008,-2.5938199,0.8709874,0.49577114,-0.69114894,-3.0405667,9.789170961,3.15729657,crawl
10/07/2020, 15:07:29,-9.241081,-2.507678,0.7704889,0.49577114,-0.69114894,-3.0405667,9.606231557,3.15729657,crawl
10/07/2020, 15:07:29,-9.241081,-2.507678,0.7704889,0.27841336,-0.65329444,-3.0149236,9.606231557,3.097429866,crawl
10/07/2020, 15:07:29,-9.119047,-2.5148566,0.65084773,0.27841336,-0.65329444,-3.0149236,9.481831446,3.097429866,crawl
10/07/2020, 15:07:29,-9.119047,-2.5148566,0.65084773,0.08425667,-0.60811335,-2.955089,9.481831446,3.018186968,crawl
10/07/2020, 15:07:29,-8.992228,-2.5435705,0.5694918,0.08425667,-0.60811335,-2.955089,9.362383686,3.018186968,crawl
10/07/2020, 15:07:29,-8.992228,-2.5435705,0.5694918,-0.09646778,-0.5568267,-2.8720534,9.362383686,2.927123616,crawl
10/07/2020, 15:07:29,-8.896515,-2.6512475,0.5192425,-0.09646778,-0.5568267,-2.8720534,9.297671932,2.927123616,crawl
10/07/2020, 15:07:29,-8.896515,-2.6512475,0.5192425,-0.24788557,-0.5006556,-2.7645957,9.297671932,2.820477428,crawl
10/07/2020, 15:07:29,-8.733803,-2.7756743,0.52163535,-0.24788557,-0.5006556,-2.7645957,9.179094878,2.820477428,crawl
10/07/2020, 15:07:29,-8.733803,-2.7756743,0.52163535,-0.37366003,-0.45303226,-2.6437056,9.179094878,2.70814316,crawl
10/07/2020, 15:07:29,-8.559127,-2.940779,0.5455636,-0.37366003,-0.45303226,-2.6437056,9.066668246,2.70814316,crawl
10/07/2020, 15:07:29,-8.559127,-2.940779,0.5455636,-0.46646446,-0.40663,-2.4983935,9.066668246,2.573889531,crawl
10/07/2020, 15:07:29,-8.382058,-3.103491,0.5766702,-0.46646446,-0.40663,-2.4983935,8.956735124,2.573889531,crawl
10/07/2020, 15:07:29,-8.382058,-3.103491,0.5766702,-0.53973114,-0.35778558,-2.3323224,8.956735124,2.420547008,crawl
10/07/2020, 15:07:29,-8.209774,-3.2303107,0.6795616,-0.53973114,-0.35778558,-2.3323224,8.848564883,2.420547008,crawl
10/07/2020, 15:07:30,-12.248859,-4.5918264,2.8689942,1.2345434,-1.4201523,-2.1442711,13.3921826,2.852863261,crawl
10/07/2020, 15:07:30,-12.248859,-4.5918264,2.8689942,1.2430911,-1.449459,-2.1809046,13.3921826,2.898715536,crawl
10/07/2020, 15:07:30,-12.6987095,-4.682754,2.7469604,1.2430911,-1.449459,-2.1809046,13.81054668,2.898715536,crawl
10/07/2020, 15:07:30,-12.6987095,-4.682754,2.7469604,1.2321012,-1.4824289,-2.2163167,13.81054668,2.937299534,crawl
10/07/2020, 15:07:30,-13.043276,-4.625326,2.6129622,1.2321012,-1.4824289,-2.2163167,14.08361666,2.937299534,crawl
10/07/2020, 15:07:30,-13.043276,-4.625326,2.6129622,1.1710457,-1.526389,-2.2468445,14.08361666,2.957959038,crawl
10/07/2020, 15:07:30,-13.194024,-4.465007,2.4789643,1.1710457,-1.526389,-2.2468445,14.14792641,2.957959038,crawl
10/07/2020, 15:07:30,-13.194024,-4.465007,2.4789643,1.0611455,-1.5825601,-2.2981312,14.14792641,2.985286143,crawl
10/07/2020, 15:07:30,-13.196417,-4.3070807,2.3162522,1.0611455,-1.5825601,-2.2981312,14.07342839,2.985286143,crawl
10/07/2020, 15:07:30,-13.196417,-4.3070807,2.3162522,0.9048434,-1.6326256,-2.3433123,14.07342839,2.995883878,crawl
10/07/2020, 15:07:30,-13.050455,-4.0941195,2.201397,0.9048434,-1.6326256,-2.3433123,13.85360392,2.995883878,crawl
10/07/2020, 15:07:30,-13.050455,-4.0941195,2.201397,0.7204556,-1.6753645,-2.394599,13.85360392,3.009984489,crawl
10/07/2020, 15:07:30,-12.768102,-3.871587,2.0865414,0.7204556,-1.6753645,-2.394599,13.50434234,3.009984489,crawl
10/07/2020, 15:07:30,-12.768102,-3.871587,2.0865414,0.5104245,-1.7095556,-2.4727502,13.50434234,3.049197778,crawl
10/07/2020, 15:07:30,-12.323036,-3.5964124,1.9860427,0.5104245,-1.7095556,-2.4727502,12.9898333,3.049197778,crawl
10/07/2020, 15:07:30,-12.323036,-3.5964124,1.9860427,0.2735289,-1.724209,-2.5521224,12.9898333,3.09209364,crawl
10/07/2020, 15:07:30,-11.818151,-3.3164523,1.9142581,0.2735289,-1.724209,-2.5521224,12.42304085,3.09209364,crawl
10/07/2020, 15:07:30,-11.818151,-3.3164523,1.9142581,0.03297,-1.7217667,-2.6608012,12.42304085,3.169452714,crawl
10/07/2020, 15:07:30,-11.361122,-3.1106694,1.8065811,0.03297,-1.7217667,-2.6608012,11.91700866,3.169452714,crawl
10/07/2020, 15:07:30,-11.361122,-3.1106694,1.8065811,-0.2075889,-1.7034501,-2.7658167,11.91700866,3.254931227,crawl
10/07/2020, 15:07:31,-9.509077,-4.2185464,1.8711873,-0.97688895,0.47623336,2.361629,10.56976927,2.59969264,crawl
10/07/2020, 15:07:31,-9.509077,-4.2185464,1.8711873,-1.0403867,0.47867557,2.2932467,10.56976927,2.563301656,crawl
10/07/2020, 15:07:31,-9.365508,-4.319045,1.9716859,-1.0403867,0.47867557,2.2932467,10.50021129,2.563301656,crawl
10/07/2020, 15:07:31,-9.365508,-4.319045,1.9716859,-1.0819045,0.48600224,2.218759,10.50021129,2.515871092,crawl
10/07/2020, 15:07:31,-9.190832,-4.4075794,2.1104696,-1.0819045,0.48600224,2.218759,10.4092379,2.515871092,crawl
10/07/2020, 15:07:31,-9.190832,-4.4075794,2.1104696,-1.0953367,0.50676113,2.1406078,10.4092379,2.457391132,crawl
10/07/2020, 15:07:31,-9.0951185,-4.476971,2.2827528,-1.0953367,0.50676113,2.1406078,10.39112177,2.457391132,crawl
10/07/2020, 15:07:31,-9.0951185,-4.476971,2.2827528,-1.1038845,0.54095227,2.0453613,10.39112177,2.386355594,crawl
10/07/2020, 15:07:31,-9.083155,-4.4434714,2.3976083,-1.1038845,0.54095227,2.0453613,10.39214428,2.386355594,crawl
10/07/2020, 15:07:31,-9.083155,-4.4434714,2.3976083,-1.1246433,0.5519422,1.95622,10.39214428,2.322985072,crawl
10/07/2020, 15:07:31,-9.157332,-4.3357944,2.510071,-1.1246433,0.5519422,1.95622,10.43821379,2.322985072,crawl
10/07/2020, 15:07:31,-9.157332,-4.3357944,2.510071,-1.1844778,0.5189722,1.8719634,10.43821379,2.275206966,crawl
10/07/2020, 15:07:31,-9.178867,-4.141976,2.57707,-1.1844778,0.5189722,1.8719634,10.39465534,2.275206966,crawl
10/07/2020, 15:07:31,-9.178867,-4.141976,2.57707,-1.2870512,0.46646446,1.790149,10.39465534,2.253602279,crawl
10/07/2020, 15:07:31,-9.109476,-3.9960139,2.6799614,-1.2870512,0.46646446,1.790149,10.30208109,2.253602279,crawl
10/07/2020, 15:07:31,-9.109476,-3.9960139,2.6799614,-1.3786345,0.39930335,1.7193245,10.30208109,2.23967693,crawl
10/07/2020, 15:07:31,-8.992228,-3.9984066,2.8498518,-1.3786345,0.39930335,1.7193245,10.24544131,2.23967693,crawl
10/07/2020, 15:07:31,-8.992228,-3.9984066,2.8498518,-1.4348056,0.34069002,1.6619323,10.24544131,2.22188119,crawl
10/07/2020, 15:07:31,-8.822337,-4.101298,2.969493,-1.4348056,0.34069002,1.6619323,10.17212687,2.22188119,crawl
10/07/2020, 15:07:31,-8.822337,-4.101298,2.969493,-1.4213734,0.31993112,1.62652,10.17212687,2.183626709,crawl
10/07/2020, 15:07:32,-11.363515,-4.2352962,2.2612174,-0.09402556,0.21003112,3.1797736,12.33613834,3.18808937,crawl
10/07/2020, 15:07:32,-11.363515,-4.2352962,2.2612174,-0.30283555,0.17217667,3.2554824,12.33613834,3.274067816,crawl
10/07/2020, 15:07:32,-11.014163,-4.3405805,2.3665016,-0.30283555,0.17217667,3.2554824,12.07281058,3.274067816,crawl
10/07/2020, 15:07:32,-11.014163,-4.3405805,2.3665016,-0.42006224,0.15508112,3.2493768,12.07281058,3.280084124,crawl
10/07/2020, 15:07:32,-10.499705,-4.4171505,2.5818555,-0.42006224,0.15508112,3.2493768,11.67994042,3.280084124,crawl
10/07/2020, 15:07:32,-10.499705,-4.4171505,2.5818555,-0.43227336,0.18438779,3.228618,11.67994042,3.262641981,crawl
10/07/2020, 15:07:32,-10.018748,-4.4458647,2.833102,-0.43227336,0.18438779,3.228618,11.32110846,3.262641981,crawl
10/07/2020, 15:07:32,-10.018748,-4.4458647,2.833102,-0.3712178,0.25765446,3.2164068,11.32110846,3.247993428,crawl
10/07/2020, 15:07:32,-9.669396,-4.4147577,2.9862428,-0.3712178,0.25765446,3.2164068,11.04105785,3.247993428,crawl
10/07/2020, 15:07:32,-9.669396,-4.4147577,2.9862428,-0.27108666,0.3394689,3.1907635,11.04105785,3.220201648,crawl
10/07/2020, 15:07:32,-9.60479,-4.395615,3.1106694,-0.27108666,0.3394689,3.1907635,11.01134333,3.220201648,crawl
10/07/2020, 15:07:32,-9.60479,-4.395615,3.1106694,-0.13554333,0.42006224,3.1468034,11.01134333,3.177608502,crawl
10/07/2020, 15:07:32,-9.796216,-4.35733,3.2159536,-0.13554333,0.42006224,3.1468034,11.19350388,3.177608502,crawl
10/07/2020, 15:07:32,-9.796216,-4.35733,3.2159536,0.017095556,0.4908867,3.1004012,11.19350388,3.139068233,crawl
10/07/2020, 15:07:32,-10.12164,-4.3501515,3.2039895,0.017095556,0.4908867,3.1004012,11.47331546,3.139068233,crawl
10/07/2020, 15:07:32,-10.12164,-4.3501515,3.2039895,0.15630223,0.5568267,3.0478935,11.47331546,3.102280018,crawl
10/07/2020, 15:07:32,-10.533205,-4.347759,3.1202407,0.15630223,0.5568267,3.0478935,11.81470764,3.102280018,crawl
10/07/2020, 15:07:32,-10.533205,-4.347759,3.1202407,0.26986557,0.6288723,3.0027122,11.81470764,3.079705931,crawl
10/07/2020, 15:07:32,-10.980663,-4.388437,2.9671001,0.26986557,0.6288723,3.0027122,12.19167861,3.079705931,crawl
10/07/2020, 15:07:32,-10.980663,-4.388437,2.9671001,0.33580557,0.69114894,2.95631,12.19167861,3.054541086,crawl
10/07/2020, 15:07:33,-7.3459654,-3.2159536,0.74416786,-1.3420012,-0.55438447,-2.4190211,8.053530328,2.821342338,crawl
10/07/2020, 15:07:33,-7.3459654,-3.2159536,0.74416786,-1.3700867,-0.52141446,-2.2407389,8.053530328,2.677670853,crawl
10/07/2020, 15:07:33,-6.9678993,-3.0867412,0.7609176,-1.3700867,-0.52141446,-2.2407389,7.658889467,2.677670853,crawl
10/07/2020, 15:07:33,-6.9678993,-3.0867412,0.7609176,-1.3847401,-0.48844448,-2.05513,7.658889467,2.525795425,crawl
10/07/2020, 15:07:33,-6.5682983,-2.9718857,0.83748794,-1.3847401,-0.48844448,-2.05513,7.257825682,2.525795425,crawl
10/07/2020, 15:07:33,-6.5682983,-2.9718857,0.83748794,-1.3786345,-0.45425335,-1.8634156,7.257825682,2.362053503,crawl
10/07/2020, 15:07:33,-6.2285175,-2.8666015,0.8925229,-1.3786345,-0.45425335,-1.8634156,6.914364157,2.362053503,crawl
10/07/2020, 15:07:33,-6.2285175,-2.8666015,0.8925229,-1.3444434,-0.42006224,-1.6582689,6.914364157,2.175738103,crawl
10/07/2020, 15:07:33,-5.9318075,-2.8378878,0.95473623,-1.3444434,-0.42006224,-1.6582689,6.644657152,2.175738103,crawl
10/07/2020, 15:07:33,-5.9318075,-2.8378878,0.95473623,-1.2894934,-0.36999667,-1.4519012,6.644657152,1.97679234,crawl
10/07/2020, 15:07:33,-5.7116675,-2.8187451,1.0001999,-1.2894934,-0.36999667,-1.4519012,6.447392502,1.97679234,crawl
10/07/2020, 15:07:33,-5.7116675,-2.8187451,1.0001999,-1.2162267,-0.31871,-1.2211112,6.447392502,1.752682502,crawl
10/07/2020, 15:07:33,-5.601598,-2.8594232,1.0289137,-1.2162267,-0.31871,-1.2211112,6.372822141,1.752682502,crawl
10/07/2020, 15:07:33,-5.601598,-2.8594232,1.0289137,-1.1368545,-0.24300112,-0.97688895,6.372822141,1.51848602,crawl
10/07/2020, 15:07:33,-5.6614184,-2.914458,1.026521,-1.1368545,-0.24300112,-0.97688895,6.449765087,1.51848602,crawl
10/07/2020, 15:07:33,-5.6614184,-2.914458,1.026521,-1.0489345,-0.15630223,-0.7167922,6.449765087,1.280033196,crawl
10/07/2020, 15:07:33,-5.9246287,-2.9958138,1.0145568,-1.0489345,-0.15630223,-0.7167922,6.716059237,1.280033196,crawl
10/07/2020, 15:07:33,-5.9246287,-2.9958138,1.0145568,-0.9512456,-0.07693,-0.4371578,6.716059237,1.049711093,crawl
10/07/2020, 15:07:33,-6.1878395,-3.1130621,0.9523434,-0.9512456,-0.07693,-0.4371578,6.99195764,1.049711093,crawl
10/07/2020, 15:07:33,-6.1878395,-3.1130621,0.9523434,-0.8498934,-0.017095556,-0.1746189,6.99195764,0.867814954,crawl
10/07/2020, 15:07:34,-6.175875,-2.2731814,0.39960137,-0.7522045,-0.7131289,-1.6631534,6.59306222,1.959705004,crawl
10/07/2020, 15:07:34,-6.175875,-2.2731814,0.39960137,-0.8364611,-0.70580226,-1.4592278,6.59306222,1.82405313,crawl
10/07/2020, 15:07:34,-5.8743796,-2.2348964,0.36131623,-0.8364611,-0.70580226,-1.4592278,6.295525993,1.82405313,crawl
10/07/2020, 15:07:34,-5.8743796,-2.2348964,0.36131623,-0.9085067,-0.6777167,-1.2528601,6.295525993,1.689479994,crawl
10/07/2020, 15:07:34,-5.5800624,-2.201397,0.37328035,-0.9085067,-0.6777167,-1.2528601,6.010206567,1.689479994,crawl
10/07/2020, 15:07:34,-5.5800624,-2.201397,0.37328035,-0.95735115,-0.64841,-1.0342811,6.010206567,1.551352392,crawl
10/07/2020, 15:07:34,-5.276174,-2.2277179,0.40438703,-0.95735115,-0.64841,-1.0342811,5.741451785,1.551352392,crawl
10/07/2020, 15:07:34,-5.276174,-2.2277179,0.40438703,-0.97688895,-0.6007867,-0.8120389,5.741451785,1.405227328,crawl
10/07/2020, 15:07:34,-5.029713,-2.268396,0.48095736,-0.97688895,-0.6007867,-0.8120389,5.538497482,1.405227328,crawl
10/07/2020, 15:07:34,-5.029713,-2.268396,0.48095736,-0.95613,-0.5470578,-0.5788067,5.538497482,1.24437698,crawl
10/07/2020, 15:07:34,-4.8454657,-2.3306093,0.57427746,-0.95613,-0.5470578,-0.5788067,5.40740898,1.24437698,crawl
10/07/2020, 15:07:34,-4.8454657,-2.3306093,0.57427746,-0.9133912,-0.48111778,-0.33580557,5.40740898,1.085598054,crawl
10/07/2020, 15:07:34,-4.6899323,-2.4047868,0.6364908,-0.9133912,-0.48111778,-0.33580557,5.308821494,1.085598054,crawl
10/07/2020, 15:07:34,-4.6899323,-2.4047868,0.6364908,-0.86088336,-0.41151446,-0.07693,5.308821494,0.95727871,crawl
10/07/2020, 15:07:34,-4.618148,-2.5028925,0.7178468,-0.86088336,-0.41151446,-0.07693,5.301609609,0.95727871,crawl
10/07/2020, 15:07:34,-4.618148,-2.5028925,0.7178468,-0.7998278,-0.33336335,0.19415668,5.301609609,0.888004771,crawl
10/07/2020, 15:07:34,-4.6779685,-2.6488547,0.8111669,-0.7998278,-0.33336335,0.19415668,5.436709705,0.888004771,crawl
10/07/2020, 15:07:34,-4.6779685,-2.6488547,0.8111669,-0.73633003,-0.24788557,0.4823389,5.436709705,0.914483456,crawl
10/07/2020, 15:07:34,-4.87418,-2.8426733,0.8757731,-0.73633003,-0.24788557,0.4823389,5.710113754,0.914483456,crawl
10/07/2020, 15:07:34,-4.87418,-2.8426733,0.8757731,-0.66062117,-0.16118668,0.78273225,5.710113754,1.036856424,crawl
10/07/2020, 15:07:35,-11.717652,-5.9270215,4.469793,1.460449,-0.25521225,-1.6558267,13.87126555,2.222567555,crawl
10/07/2020, 15:07:35,-11.717652,-5.9270215,4.469793,1.5727912,-0.34801668,-1.7925912,13.87126555,2.410014749,crawl
10/07/2020, 15:07:35,-11.882757,-5.8767724,4.338187,1.5727912,-0.34801668,-1.7925912,13.94834186,2.410014749,crawl
10/07/2020, 15:07:35,-11.882757,-5.8767724,4.338187,1.636289,-0.4566956,-1.9354612,13.94834186,2.575271339,crawl
10/07/2020, 15:07:35,-11.947364,-5.6781683,4.0941195,1.636289,-0.4566956,-1.9354612,13.84712653,2.575271339,crawl
10/07/2020, 15:07:35,-11.947364,-5.6781683,4.0941195,1.6448368,-0.5739222,-2.0905423,13.84712653,2.721257417,crawl
10/07/2020, 15:07:35,-11.944971,-5.4293146,3.804588,1.6448368,-0.5739222,-2.0905423,13.66143045,2.721257417,crawl
10/07/2020, 15:07:35,-11.944971,-5.4293146,3.804588,1.6289623,-0.6691689,-2.2480657,13.66143045,2.855714367,crawl
10/07/2020, 15:07:35,-11.964113,-5.1421757,3.493521,1.6289623,-0.6691689,-2.2480657,13.48282852,2.855714367,crawl
10/07/2020, 15:07:35,-11.964113,-5.1421757,3.493521,1.6118667,-0.7522045,-2.4116945,13.48282852,2.996697577,crawl
10/07/2020, 15:07:35,-12.100504,-4.9316072,3.199204,1.6118667,-0.7522045,-2.4116945,13.45280087,2.996697577,crawl
10/07/2020, 15:07:35,-12.100504,-4.9316072,3.199204,1.5984346,-0.80227005,-2.5850923,13.45280087,3.14345869,crawl
10/07/2020, 15:07:35,-12.325429,-4.7712884,2.9312077,1.5984346,-0.80227005,-2.5850923,13.53784955,3.14345869,crawl
10/07/2020, 15:07:35,-12.325429,-4.7712884,2.9312077,1.6057612,-0.8437878,-2.7511635,13.53784955,3.295352375,crawl
10/07/2020, 15:07:35,-12.684353,-4.634897,2.751746,1.6057612,-0.8437878,-2.7511635,13.78213285,3.295352375,crawl
10/07/2020, 15:07:35,-12.684353,-4.634897,2.751746,1.6106457,-0.8633256,-2.9062445,13.78213285,3.433040589,crawl
10/07/2020, 15:07:35,-13.189239,-4.5487556,2.6081767,1.6106457,-0.8633256,-2.9062445,14.19330043,3.433040589,crawl
10/07/2020, 15:07:35,-13.189239,-4.5487556,2.6081767,1.6118667,-0.8865267,-3.0393457,14.19330043,3.552698472,crawl
10/07/2020, 15:07:35,-13.782659,-4.517649,2.5292134,1.6118667,-0.8865267,-3.0393457,14.72303474,3.552698472,crawl
10/07/2020, 15:07:35,-13.782659,-4.517649,2.5292134,1.5947711,-0.91461223,-3.152909,14.72303474,3.649746014,crawl
10/07/2020, 15:07:36,-10.059426,-2.1296122,2.8307092,-0.92560226,0.6581789,1.7816012,10.66490602,2.112827925,crawl
10/07/2020, 15:07:36,-9.844072,-2.2229323,2.8809586,-0.92560226,0.6581789,1.7816012,10.49509936,2.112827925,crawl
10/07/2020, 15:07:36,-9.844072,-2.2229323,2.8809586,-1.229659,0.6105556,1.6631534,10.49509936,2.156598839,crawl
10/07/2020, 15:07:36,-9.669396,-2.3928227,2.8689942,-1.229659,0.6105556,1.6631534,10.36599997,2.156598839,crawl
10/07/2020, 15:07:36,-9.669396,-2.3928227,2.8689942,-1.5923289,0.52141446,1.5850023,10.36599997,2.306429423,crawl
10/07/2020, 15:07:36,-9.521041,-2.6009982,2.7852457,-1.5923289,0.52141446,1.5850023,10.25538907,2.306429423,crawl
10/07/2020, 15:07:36,-9.521041,-2.6009982,2.7852457,-1.9855268,0.41151446,1.5227256,10.25538907,2.535814272,crawl
10/07/2020, 15:07:36,-9.343972,-2.9048867,2.725425,-1.9855268,0.41151446,1.5227256,10.15756491,2.535814272,crawl
10/07/2020, 15:07:36,-9.343972,-2.9048867,2.725425,-2.3457546,0.29184556,1.471439,10.15756491,2.784397839,crawl
10/07/2020, 15:07:36,-9.123833,-3.266203,2.6225336,-2.3457546,0.29184556,1.471439,10.03942663,2.784397839,crawl
10/07/2020, 15:07:36,-9.123833,-3.266203,2.6225336,-2.6388211,0.18438779,1.4287001,10.03942663,3.006419753,crawl
10/07/2020, 15:07:36,-8.944371,-3.7160535,2.6273193,-2.6388211,0.18438779,1.4287001,10.03561842,3.006419753,crawl
10/07/2020, 15:07:36,-8.944371,-3.7160535,2.6273193,-2.8427467,0.09402556,1.3871822,10.03561842,3.16454173,crawl
10/07/2020, 15:07:36,-8.786445,-4.173083,2.6751757,-2.8427467,0.09402556,1.3871822,10.08825034,3.16454173,crawl
10/07/2020, 15:07:36,-8.786445,-4.173083,2.6751757,-2.9624157,0.023201112,1.3554333,10.08825034,3.257858897,crawl
10/07/2020, 15:07:36,-8.69791,-4.5894337,2.7589245,-2.9624157,0.023201112,1.3554333,10.21411814,3.257858897,crawl
10/07/2020, 15:07:36,-8.69791,-4.5894337,2.7589245,-2.9953856,-0.039075557,1.3322322,10.21411814,3.278521741,crawl
10/07/2020, 15:07:36,-8.559127,-4.898108,2.8689942,-2.9953856,-0.039075557,1.3322322,10.27040615,3.278521741,crawl
10/07/2020, 15:07:36,-8.559127,-4.898108,2.8689942,-2.95631,-0.09524667,1.3224634,10.27040615,3.240023205,crawl
10/07/2020, 15:07:36,-8.441878,-5.070391,2.914458,-2.95631,-0.09524667,1.3224634,10.26977322,3.240023205,crawl
10/07/2020, 15:07:37,-7.391429,-6.142376,4.26401,-0.10745778,0.41151446,1.3383378,10.51398046,1.404293181,crawl
10/07/2020, 15:07:37,-7.2023964,-6.0634127,4.4004006,-0.10745778,0.41151446,1.3383378,10.39244979,1.404293181,crawl
10/07/2020, 15:07:37,-7.2023964,-6.0634127,4.4004006,0.06960334,0.38831335,1.3004833,10.39244979,1.359002876,crawl
10/07/2020, 15:07:37,-7.082755,-5.895915,4.493721,0.06960334,0.38831335,1.3004833,10.25284166,1.359002876,crawl
10/07/2020, 15:07:37,-7.082755,-5.895915,4.493721,0.20881,0.36511225,1.2394278,10.25284166,1.308850584,crawl
10/07/2020, 15:07:37,-7.0612197,-5.7523456,4.5942197,0.20881,0.36511225,1.2394278,10.20084102,1.308850584,crawl
10/07/2020, 15:07:37,-7.0612197,-5.7523456,4.5942197,0.29306668,0.3309211,1.1612767,10.20084102,1.242562044,crawl
10/07/2020, 15:07:37,-7.140183,-5.615955,4.6899323,0.29306668,0.3309211,1.1612767,10.22333739,1.242562044,crawl
10/07/2020, 15:07:37,-7.140183,-5.615955,4.6899323,0.33458444,0.29306668,1.06603,10.22333739,1.155099496,crawl
10/07/2020, 15:07:37,-7.2119675,-5.4867425,4.74736,0.33458444,0.29306668,1.06603,10.23006584,1.155099496,crawl
10/07/2020, 15:07:37,-7.2119675,-5.4867425,4.74736,0.33458444,0.23933779,0.96589893,10.23006584,1.049852405,crawl
10/07/2020, 15:07:37,-7.3340015,-5.369494,4.8047876,0.33458444,0.23933779,0.96589893,10.28129507,1.049852405,crawl
10/07/2020, 15:07:37,-7.3340015,-5.369494,4.8047876,0.30405667,0.1856089,0.85599893,10.28129507,0.927165194,crawl
10/07/2020, 15:07:37,-7.4679995,-5.24746,4.8191447,0.30405667,0.1856089,0.85599893,10.32138591,0.927165194,crawl
10/07/2020, 15:07:37,-7.4679995,-5.24746,4.8191447,0.25643334,0.12699556,0.7338878,10.32138591,0.787703765,crawl
10/07/2020, 15:07:37,-7.6163545,-5.163711,4.790431,0.25643334,0.12699556,0.7338878,10.37405402,0.787703765,crawl
10/07/2020, 15:07:37,-7.6163545,-5.163711,4.790431,0.20026223,0.081814446,0.5971234,10.37405402,0.635102277,crawl
10/07/2020, 15:07:37,-7.7671022,-5.1493545,4.718646,0.20026223,0.081814446,0.5971234,10.44554207,0.635102277,crawl
10/07/2020, 15:07:37,-7.7671022,-5.1493545,4.718646,0.14287001,0.026864445,0.45547447,10.44554207,0.478111417,crawl
10/07/2020, 15:07:37,-7.9369926,-5.1062837,4.6564326,0.14287001,0.026864445,0.45547447,10.52389424,0.478111417,crawl
10/07/2020, 15:07:38,-12.1148615,-3.5389848,3.9481573,0.63131446,0.9549089,2.3994834,13.22430445,2.658557834,crawl
10/07/2020, 15:07:38,-11.303694,-2.8019953,3.845266,0.63131446,0.9549089,2.3994834,12.26420572,2.658557834,crawl
10/07/2020, 15:07:38,-11.303694,-2.8019953,3.845266,0.11356334,0.86821,2.15404,12.26420572,2.325204079,crawl
10/07/2020, 15:07:38,-10.502099,-2.1559331,3.615555,0.11356334,0.86821,2.15404,11.31434356,2.325204079,crawl
10/07/2020, 15:07:38,-10.502099,-2.1559331,3.615555,-0.44082114,0.7717422,1.9415667,11.31434356,2.135319792,crawl
10/07/2020, 15:07:38,-9.858429,-1.6462619,3.3667014,-0.44082114,0.7717422,1.9415667,10.5467283,2.135319792,crawl
10/07/2020, 15:07:38,-9.858429,-1.6462619,3.3667014,-0.97933114,0.66306335,1.7510734,10.5467283,2.113054753,crawl
10/07/2020, 15:07:38,-9.348758,-1.3830515,3.129812,-0.97933114,0.66306335,1.7510734,9.955291358,2.113054753,crawl
10/07/2020, 15:07:38,-9.348758,-1.3830515,3.129812,-1.4824289,0.5592689,1.6045401,9.955291358,2.254978076,crawl
10/07/2020, 15:07:38,-8.961121,-1.3686945,2.926422,-1.4824289,0.5592689,1.6045401,9.525699643,2.254978076,crawl
10/07/2020, 15:07:38,-8.961121,-1.3686945,2.926422,-1.9171445,0.44326335,1.4909767,9.525699643,2.468792634,crawl
10/07/2020, 15:07:38,-8.702696,-1.6462619,2.7637103,-1.9171445,0.44326335,1.4909767,9.278210374,2.468792634,crawl
10/07/2020, 15:07:38,-8.702696,-1.6462619,2.7637103,-2.262719,0.3370267,1.4128256,9.278210374,2.688784114,crawl
10/07/2020, 15:07:38,-8.41795,-2.120041,2.6823542,-2.262719,0.3370267,1.4128256,9.085784185,2.688784114,crawl
10/07/2020, 15:07:38,-8.41795,-2.120041,2.6823542,-2.51671,0.24666445,1.3664234,9.085784185,2.874332203,crawl
10/07/2020, 15:07:38,-8.185846,-2.6392834,2.6608188,-2.51671,0.24666445,1.3664234,9.002991383,2.874332203,crawl
10/07/2020, 15:07:38,-8.185846,-2.6392834,2.6608188,-2.6852233,0.15996556,1.3468856,9.002991383,3.008340753,crawl
10/07/2020, 15:07:38,-7.9680996,-3.1944182,2.684747,-2.6852233,0.15996556,1.3468856,8.994597549,3.008340753,crawl
10/07/2020, 15:07:38,-7.9680996,-3.1944182,2.684747,-2.7755857,0.08669889,1.3322322,8.994597549,3.079973237,crawl
10/07/2020, 15:07:38,-7.759924,-3.7040894,2.6943183,-2.7755857,0.08669889,1.3322322,9.010885021,3.079973237,crawl
10/07/2020, 15:07:39,-11.653047,-5.852844,2.1463618,0.27963445,0.7387723,4.283658,13.21575386,4.35588177,crawl
10/07/2020, 15:07:39,-12.533605,-6.053841,2.2205393,0.27963445,0.7387723,4.283658,14.09507119,4.35588177,crawl
10/07/2020, 15:07:39,-12.533605,-6.053841,2.2205393,0.45791668,0.7766267,4.492468,14.09507119,4.582041508,crawl
10/07/2020, 15:07:39,-13.287344,-6.216553,2.3138595,0.45791668,0.7766267,4.492468,14.85102655,4.582041508,crawl
10/07/2020, 15:07:39,-13.287344,-6.216553,2.3138595,0.6007867,0.80593336,4.6634235,14.85102655,4.770533756,crawl
10/07/2020, 15:07:39,-13.878371,-6.3888364,2.4885356,0.6007867,0.80593336,4.6634235,15.47963915,4.770533756,crawl
10/07/2020, 15:07:39,-13.878371,-6.3888364,2.4885356,0.72411895,0.8120389,4.7818713,15.47963915,4.904084903,crawl
10/07/2020, 15:07:39,-14.155939,-6.472585,2.6991038,0.72411895,0.8120389,4.7818713,15.79778885,4.904084903,crawl
10/07/2020, 15:07:39,-14.155939,-6.472585,2.6991038,0.85966223,0.7973856,4.8160625,15.79778885,4.956742926,crawl
10/07/2020, 15:07:39,-14.136796,-6.546763,3.050849,0.85966223,0.7973856,4.8160625,15.87503655,4.956742926,crawl
10/07/2020, 15:07:39,-14.136796,-6.546763,3.050849,1.0123012,0.7851745,4.7586703,15.87503655,4.92810268,crawl
10/07/2020, 15:07:39,-13.854444,-6.6305118,3.495914,1.0123012,0.7851745,4.7586703,15.75216515,4.92810268,crawl
10/07/2020, 15:07:39,-13.854444,-6.6305118,3.495914,1.1844778,0.81448114,4.624348,15.75216515,4.84261945,crawl
10/07/2020, 15:07:39,-13.435699,-6.5922265,3.8668015,1.1844778,0.81448114,4.624348,15.45728386,4.84261945,crawl
10/07/2020, 15:07:39,-13.435699,-6.5922265,3.8668015,1.350549,0.88896894,4.427749,15.45728386,4.713725802,crawl
10/07/2020, 15:07:39,-13.007384,-6.381658,4.1180477,1.350549,0.88896894,4.427749,15.06240097,4.713725802,crawl
10/07/2020, 15:07:39,-13.007384,-6.381658,4.1180477,1.4799867,0.98910004,4.19818,15.06240097,4.559977676,crawl
10/07/2020, 15:07:39,-12.734602,-5.9724855,4.2687955,1.4799867,0.98910004,4.19818,14.69909133,4.559977676,crawl
10/07/2020, 15:07:39,-12.734602,-5.9724855,4.2687955,1.5422634,1.0855678,3.9270935,14.69909133,4.356500577,crawl
10/07/2020, 15:07:39,-12.686746,-5.4795637,4.2664027,1.5422634,1.0855678,3.9270935,14.46310222,4.356500577,crawl
10/07/2020, 15:07:40,-13.911871,-5.6709895,2.5220351,0.7009178,0.96956223,4.6158004,15.23354643,4.768327779,crawl
10/07/2020, 15:07:40,-14.158332,-5.919843,2.8426733,0.7009178,0.96956223,4.6158004,15.60716811,4.768327779,crawl
10/07/2020, 15:07:40,-14.158332,-5.919843,2.8426733,0.83524,0.93415004,4.6402225,15.60716811,4.80644645,crawl
10/07/2020, 15:07:40,-14.177474,-6.070591,3.225525,0.83524,0.93415004,4.6402225,15.7561688,4.80644645,crawl
10/07/2020, 15:07:40,-14.177474,-6.070591,3.225525,1.0147433,0.8999589,4.580388,15.7561688,4.77698492,crawl
10/07/2020, 15:07:40,-13.923835,-6.166304,3.5437703,1.0147433,0.8999589,4.580388,15.63505005,4.77698492,crawl
10/07/2020, 15:07:40,-13.923835,-6.166304,3.5437703,1.1942468,0.87065226,4.4668245,15.63505005,4.704974187,crawl
10/07/2020, 15:07:40,-13.4763775,-6.0801625,3.8165522,1.1942468,0.87065226,4.4668245,15.26915836,4.704974187,crawl
10/07/2020, 15:07:40,-13.4763775,-6.0801625,3.8165522,1.3249056,0.8767578,4.3105226,15.26915836,4.593983444,crawl
10/07/2020, 15:07:40,-12.914063,-5.8241305,3.9218364,1.3249056,0.8767578,4.3105226,14.69946706,4.593983444,crawl
10/07/2020, 15:07:40,-12.914063,-5.8241305,3.9218364,1.3554333,0.91461223,4.120029,14.69946706,4.432646368,crawl
10/07/2020, 15:07:40,-12.382857,-5.312066,3.8141594,1.3554333,0.91461223,4.120029,14.00360716,4.432646368,crawl
10/07/2020, 15:07:40,-12.382857,-5.312066,3.8141594,1.2699556,0.9512456,3.9063346,14.00360716,4.216290529,crawl
10/07/2020, 15:07:40,-11.997613,-4.6803613,3.546163,1.2699556,0.9512456,3.9063346,13.35753611,4.216290529,crawl
10/07/2020, 15:07:40,-11.997613,-4.6803613,3.546163,1.1002212,0.9549089,3.668218,13.35753611,3.946917805,crawl
10/07/2020, 15:07:40,-11.810972,-4.1204405,3.1920254,1.1002212,0.9549089,3.668218,12.90992334,3.946917805,crawl
10/07/2020, 15:07:40,-11.810972,-4.1204405,3.1920254,0.8975167,0.9378134,3.4215534,12.90992334,3.659516052,crawl
10/07/2020, 15:07:40,-11.748759,-3.6251264,2.9240294,0.8975167,0.9378134,3.4215534,12.63822904,3.659516052,crawl
10/07/2020, 15:07:40,-11.748759,-3.6251264,2.9240294,0.6874856,0.92071784,3.163899,12.63822904,3.366097783,crawl
10/07/2020, 15:07:40,-11.777473,-3.2614172,2.7565317,0.6874856,0.92071784,3.163899,12.52773682,3.366097783,crawl
10/07/2020, 15:07:41,-10.631311,-3.8548372,0.3493521,-0.61788225,-0.9866578,-3.3812568,11.31400013,3.576055056,crawl
10/07/2020, 15:07:41,-10.631311,-3.8548372,0.3493521,-0.6349778,-0.93415004,-3.2444923,11.31400013,3.435485899,crawl
10/07/2020, 15:07:41,-10.258031,-3.859623,0.31106696,-0.6349778,-0.93415004,-3.2444923,10.96451776,3.435485899,crawl
10/07/2020, 15:07:41,-10.258031,-3.859623,0.31106696,-0.6655056,-0.88286334,-3.1016223,10.96451776,3.292780972,crawl
10/07/2020, 15:07:41,-9.82493,-3.749553,0.30149564,-0.6655056,-0.88286334,-3.1016223,10.52042301,3.292780972,crawl
10/07/2020, 15:07:41,-9.82493,-3.749553,0.30149564,-0.70458114,-0.8401245,-2.933109,10.52042301,3.131353128,crawl
10/07/2020, 15:07:41,-9.343972,-3.586841,0.27996024,-0.70458114,-0.8401245,-2.933109,10.01267314,3.131353128,crawl
10/07/2020, 15:07:41,-9.343972,-3.586841,0.27996024,-0.74976224,-0.79128003,-2.7413945,10.01267314,2.950171421,crawl
10/07/2020, 15:07:41,-8.834301,-3.3523445,0.2416751,-0.74976224,-0.79128003,-2.7413945,9.452062984,2.950171421,crawl
10/07/2020, 15:07:41,-8.834301,-3.3523445,0.2416751,-0.80227005,-0.7534256,-2.5411322,9.452062984,2.769230993,crawl
10/07/2020, 15:07:41,-8.269595,-3.1106694,0.22013968,-0.80227005,-0.7534256,-2.5411322,8.838038771,2.769230993,crawl
10/07/2020, 15:07:41,-8.269595,-3.1106694,0.22013968,-0.8767578,-0.72534,-2.339649,8.838038771,2.601687843,crawl
10/07/2020, 15:07:41,-7.688139,-2.8689942,0.17706887,-0.8767578,-0.72534,-2.339649,8.207920687,2.601687843,crawl
10/07/2020, 15:07:41,-7.688139,-2.8689942,0.17706887,-0.9634567,-0.6984756,-2.1491556,8.207920687,2.456621017,crawl
10/07/2020, 15:07:41,-7.1473613,-2.6679974,0.22253251,-0.9634567,-0.6984756,-2.1491556,7.632332794,2.456621017,crawl
10/07/2020, 15:07:41,-7.1473613,-2.6679974,0.22253251,-1.0403867,-0.6655056,-1.9391245,7.632332794,2.299022796,crawl
10/07/2020, 15:07:41,-6.649654,-2.5387847,0.2416751,-1.0403867,-0.6655056,-1.9391245,7.121919121,2.299022796,crawl
10/07/2020, 15:07:41,-6.649654,-2.5387847,0.2416751,-1.0965579,-0.62154555,-1.7266512,7.121919121,2.137775092,crawl
10/07/2020, 15:07:41,-6.2237315,-2.440679,0.21774685,-1.0965579,-0.62154555,-1.7266512,6.688733964,2.137775092,crawl
10/07/2020, 15:07:41,-6.2237315,-2.440679,0.21774685,-1.130749,-0.5739222,-1.5105145,6.688733964,1.972215513,crawl
10/07/2020, 15:07:42,-9.0544405,-2.6895328,-0.2009971,0.21125223,-1.1344123,-2.0563512,9.447585883,2.357986204,crawl
10/07/2020, 15:07:42,-9.0544405,-2.6895328,-0.2009971,0.024422223,-1.0965579,-2.041698,9.447585883,2.317663956,crawl
10/07/2020, 15:07:42,-8.683554,-2.4837499,-0.2656033,0.024422223,-1.0965579,-2.041698,9.035688314,2.317663956,crawl
10/07/2020, 15:07:42,-8.683554,-2.4837499,-0.2656033,-0.1526389,-1.0428289,-2.0282657,9.035688314,2.285749897,crawl
10/07/2020, 15:07:42,-8.389236,-2.3162522,-0.37567315,-0.1526389,-1.0428289,-2.0282657,8.711225111,2.285749897,crawl
10/07/2020, 15:07:42,-8.389236,-2.3162522,-0.37567315,-0.3370267,-0.99398446,-2.0050645,8.711225111,2.263156136,crawl
10/07/2020, 15:07:42,-8.157132,-2.210968,-0.38763726,-0.3370267,-0.99398446,-2.0050645,8.460345567,2.263156136,crawl
10/07/2020, 15:07:42,-8.157132,-2.210968,-0.38763726,-0.52996224,-0.9414767,-1.9696523,8.460345567,2.246501396,crawl
10/07/2020, 15:07:42,-7.958528,-2.213361,-0.39960137,-0.52996224,-0.9414767,-1.9696523,8.270236809,2.246501396,crawl
10/07/2020, 15:07:42,-7.958528,-2.213361,-0.39960137,-0.7119078,-0.87920004,-1.9098178,8.270236809,2.219731858,crawl
10/07/2020, 15:07:42,-7.8436728,-2.2779672,-0.42592242,-0.7119078,-0.87920004,-1.9098178,8.178859749,2.219731858,crawl
10/07/2020, 15:07:42,-7.8436728,-2.2779672,-0.42592242,-0.88896894,-0.8120389,-1.8231189,8.178859749,2.184819345,crawl
10/07/2020, 15:07:42,-7.7383885,-2.3856442,-0.46660042,-0.88896894,-0.8120389,-1.8231189,8.111206529,2.184819345,crawl
10/07/2020, 15:07:42,-7.7383885,-2.3856442,-0.46660042,-1.0562612,-0.7558678,-1.7107767,8.111206529,2.147971288,crawl
10/07/2020, 15:07:42,-7.623533,-2.455036,-0.51445687,-1.0562612,-0.7558678,-1.7107767,8.025591516,2.147971288,crawl
10/07/2020, 15:07:42,-7.623533,-2.455036,-0.51445687,-1.2089001,-0.69237006,-1.5898868,8.025591516,2.113895863,crawl
10/07/2020, 15:07:42,-7.4679995,-2.57707,-0.52163535,-1.2089001,-0.69237006,-1.5898868,7.917348617,2.113895863,crawl
10/07/2020, 15:07:42,-7.4679995,-2.57707,-0.52163535,-1.34078,-0.62643003,-1.45068,7.917348617,2.072336402,crawl
10/07/2020, 15:07:42,-7.274181,-2.7086751,-0.5240282,-1.34078,-0.62643003,-1.45068,7.779796539,2.072336402,crawl
10/07/2020, 15:07:42,-7.274181,-2.7086751,-0.5240282,-1.4519012,-0.55438447,-1.3041468,7.779796539,2.028831688,crawl
10/07/2020, 15:07:43,-8.920443,-3.5030923,2.361716,1.7144401,-0.018316668,-1.6008767,9.870342144,2.345729429,crawl
10/07/2020, 15:07:43,-9.092726,-3.5820556,2.2181466,1.7144401,-0.018316668,-1.6008767,10.02142494,2.345729429,crawl
10/07/2020, 15:07:43,-9.092726,-3.5820556,2.2181466,1.7058923,-0.015874445,-1.6057612,10.02142494,2.342816586,crawl
10/07/2020, 15:07:43,-9.209974,-3.5820556,2.0937197,1.7058923,-0.015874445,-1.6057612,10.10140638,2.342816586,crawl
10/07/2020, 15:07:43,-9.209974,-3.5820556,2.0937197,1.6851335,-0.007326667,-1.6130879,10.10140638,2.332762525,crawl
10/07/2020, 15:07:43,-9.267402,-3.5653057,1.9980069,1.6851335,-0.007326667,-1.6130879,10.12858187,2.332762525,crawl
10/07/2020, 15:07:43,-9.267402,-3.5653057,1.9980069,1.6509423,-0.009768889,-1.6008767,10.12858187,2.299676535,crawl
10/07/2020, 15:07:43,-9.286545,-3.5724843,1.861616,1.6509423,-0.009768889,-1.6008767,10.12265638,2.299676535,crawl
10/07/2020, 15:07:43,-9.286545,-3.5724843,1.861616,1.5984346,-0.007326667,-1.5862234,10.12265638,2.251921692,crawl
10/07/2020, 15:07:43,-9.221938,-3.5676985,1.8281165,1.5984346,-0.007326667,-1.5862234,10.05557683,2.251921692,crawl
10/07/2020, 15:07:43,-9.221938,-3.5676985,1.8281165,1.5178412,-0.004884445,-1.5850023,10.05557683,2.194561033,crawl
10/07/2020, 15:07:43,-9.12144,-3.6011982,1.7994026,1.5178412,-0.004884445,-1.5850023,9.970313165,2.194561033,crawl
10/07/2020, 15:07:43,-9.12144,-3.6011982,1.7994026,1.4030567,0.009768889,-1.5691278,9.970313165,2.104952659,crawl
10/07/2020, 15:07:43,-9.030513,-3.6586258,1.6797615,1.4030567,0.009768889,-1.5691278,9.887229311,2.104952659,crawl
10/07/2020, 15:07:43,-9.030513,-3.6586258,1.6797615,1.2479756,0.039075557,-1.56058,9.887229311,1.998594494,crawl
10/07/2020, 15:07:43,-9.018549,-3.711268,1.5194423,1.2479756,0.039075557,-1.56058,9.869976707,1.998594494,crawl
10/07/2020, 15:07:43,-9.018549,-3.711268,1.5194423,1.0452712,0.07326667,-1.5434844,9.869976707,1.865557301,crawl
10/07/2020, 15:07:43,-9.071191,-3.7615173,1.3064811,1.0452712,0.07326667,-1.5434844,9.906685034,1.865557301,crawl
10/07/2020, 15:07:43,-9.071191,-3.7615173,1.3064811,0.81326,0.098910004,-1.5215045,9.906685034,1.728048337,crawl
10/07/2020, 15:07:43,-9.133404,-3.8524444,1.0576276,0.81326,0.098910004,-1.5215045,9.968900068,1.728048337,crawl
10/07/2020, 15:07:44,-9.580862,-5.6039906,3.182454,3.2237334,1.1954678,2.1247334,11.54667233,4.04179326,crawl
10/07/2020, 15:07:44,-9.580862,-5.6039906,3.182454,3.260367,1.17593,1.9244711,11.54667233,3.964390624,crawl
10/07/2020, 15:07:44,-9.303294,-5.367101,3.266203,3.260367,1.17593,1.9244711,11.2260919,3.964390624,crawl
10/07/2020, 15:07:44,-9.303294,-5.367101,3.266203,3.229839,1.1222012,1.7083346,11.2260919,3.822251045,crawl
10/07/2020, 15:07:44,-9.032906,-5.1086764,3.2757742,3.229839,1.1222012,1.7083346,10.88221737,3.822251045,crawl
10/07/2020, 15:07:44,-9.032906,-5.1086764,3.2757742,3.1370347,1.0599245,1.4885345,10.88221737,3.630449166,crawl
10/07/2020, 15:07:44,-8.815159,-4.871787,3.2398818,3.1370347,1.0599245,1.4885345,10.58008358,3.630449166,crawl
10/07/2020, 15:07:44,-8.815159,-4.871787,3.2398818,3.010039,0.97933114,1.2785034,10.58008358,3.413794925,crawl
10/07/2020, 15:07:44,-8.645268,-4.627719,3.1537402,3.010039,0.97933114,1.2785034,10.30060804,3.413794925,crawl
10/07/2020, 15:07:44,-8.645268,-4.627719,3.1537402,2.845189,0.8914111,1.0696933,10.30060804,3.167642434,crawl
10/07/2020, 15:07:44,-8.4705925,-4.3262234,3.0317063,2.845189,0.8914111,1.0696933,9.98290485,3.167642434,crawl
10/07/2020, 15:07:44,-8.4705925,-4.3262234,3.0317063,2.6534746,0.78395337,0.8755367,9.98290485,2.90208109,crawl
10/07/2020, 15:07:44,-8.353344,-4.0534415,2.9216363,2.6534746,0.78395337,0.8755367,9.733689048,2.90208109,crawl
10/07/2020, 15:07:44,-8.353344,-4.0534415,2.9216363,2.43978,0.6667267,0.6801589,9.733689048,2.619096616,crawl
10/07/2020, 15:07:44,-8.252846,-3.8356948,2.8354948,2.43978,0.6667267,0.6801589,9.532158635,2.619096616,crawl
10/07/2020, 15:07:44,-8.252846,-3.8356948,2.8354948,2.2529502,0.54950005,0.5006556,9.532158635,2.372423,crawl
10/07/2020, 15:07:44,-8.17149,-3.696911,2.7445676,2.2529502,0.54950005,0.5006556,9.379394827,2.372423,crawl
10/07/2020, 15:07:44,-8.17149,-3.696911,2.7445676,2.1015322,0.4383789,0.33214223,9.379394827,2.172310337,crawl
10/07/2020, 15:07:44,-8.087741,-3.6083765,2.7397819,2.1015322,0.4383789,0.33214223,9.270293331,2.172310337,crawl
10/07/2020, 15:07:44,-8.087741,-3.6083765,2.7397819,1.976979,0.3309211,0.16362889,9.270293331,2.011151221,crawl
10/07/2020, 15:07:45,-7.4847493,-3.4743786,3.345166,0.97078335,0.7900589,0.13310112,8.904095364,1.258701438,crawl
10/07/2020, 15:07:45,-7.4847493,-3.4743786,3.345166,0.94391894,0.7534256,0.20392556,8.904095364,1.224834168,crawl
10/07/2020, 15:07:45,-7.6067834,-3.481557,3.3236306,0.94391894,0.7534256,0.20392556,9.001717176,1.224834168,crawl
10/07/2020, 15:07:45,-7.6067834,-3.481557,3.3236306,0.92071784,0.7216767,0.26620224,9.001717176,1.199750906,crawl
10/07/2020, 15:07:45,-7.692925,-3.522235,3.290131,0.92071784,0.7216767,0.26620224,9.07811633,1.199750906,crawl
10/07/2020, 15:07:45,-7.692925,-3.522235,3.290131,0.90362227,0.69114894,0.3174889,9.07811633,1.181109337,crawl
10/07/2020, 15:07:45,-7.795816,-3.5437703,3.2925239,0.90362227,0.69114894,0.3174889,9.174626295,1.181109337,crawl
10/07/2020, 15:07:45,-7.795816,-3.5437703,3.2925239,0.88286334,0.64841,0.37732336,9.174626295,1.158557792,crawl
10/07/2020, 15:07:45,-7.82453,-3.6083765,3.3355947,0.88286334,0.64841,0.37732336,9.239580313,1.158557792,crawl
10/07/2020, 15:07:45,-7.82453,-3.6083765,3.3355947,0.85966223,0.6105556,0.42372558,9.239580313,1.136371703,crawl
10/07/2020, 15:07:45,-7.8077803,-3.6011982,3.35713,0.85966223,0.6105556,0.42372558,9.230405371,1.136371703,crawl
10/07/2020, 15:07:45,-7.8077803,-3.6011982,3.35713,0.82913446,0.5885756,0.45425335,9.230405371,1.113656725,crawl
10/07/2020, 15:07:45,-7.759924,-3.6394832,3.3786657,0.82913446,0.5885756,0.45425335,9.21290613,1.113656725,crawl
10/07/2020, 15:07:45,-7.759924,-3.6394832,3.3786657,0.80593336,0.5690378,0.4908867,9.21290613,1.101953868,crawl
10/07/2020, 15:07:45,-7.7503524,-3.6466618,3.35713,0.80593336,0.5690378,0.4908867,9.19980577,1.101953868,crawl
10/07/2020, 15:07:45,-7.7503524,-3.6466618,3.35713,0.78273225,0.5568267,0.52019334,9.19980577,1.092395014,crawl
10/07/2020, 15:07:45,-7.798209,-3.656233,3.2973096,0.78273225,0.5568267,0.52019334,9.222383515,1.092395014,crawl
10/07/2020, 15:07:45,-7.798209,-3.656233,3.2973096,0.7619734,0.5470578,0.5507211,9.222383515,1.087735914,crawl
10/07/2020, 15:07:45,-7.9034934,-3.6801612,3.2638102,0.7619734,0.5470578,0.5507211,9.309202516,1.087735914,crawl
10/07/2020, 15:07:45,-7.9034934,-3.6801612,3.2638102,0.73999333,0.5336256,0.5800278,9.309202516,1.081100684,crawl
10/07/2020, 15:07:46,-9.812965,-3.9888353,2.2779672,-0.48600224,0.3944189,1.5666857,10.83486187,1.687088749,crawl
10/07/2020, 15:07:46,-9.812965,-3.9888353,2.2779672,-0.42250445,0.3809867,1.5337156,10.83486187,1.635831419,crawl
10/07/2020, 15:07:46,-9.757931,-3.9768713,2.4215364,-0.42250445,0.3809867,1.5337156,10.81187108,1.635831419,crawl
10/07/2020, 15:07:46,-9.757931,-3.9768713,2.4215364,-0.3712178,0.37610224,1.4934189,10.81187108,1.584157709,crawl
10/07/2020, 15:07:46,-9.688539,-3.8548372,2.5292134,-0.3712178,0.37610224,1.4934189,10.72960715,1.584157709,crawl
10/07/2020, 15:07:46,-9.688539,-3.8548372,2.5292134,-0.34069002,0.37366003,1.4421322,10.72960715,1.528213626,crawl
10/07/2020, 15:07:46,-9.650253,-3.6323047,2.5411777,-0.34069002,0.37366003,1.4421322,10.61972741,1.528213626,crawl
10/07/2020, 15:07:46,-9.650253,-3.6323047,2.5411777,-0.3370267,0.36633334,1.3871822,10.61972741,1.473791591,crawl
10/07/2020, 15:07:46,-9.549755,-3.4217365,2.5339992,-0.3370267,0.36633334,1.3871822,10.45596743,1.473791591,crawl
10/07/2020, 15:07:46,-9.549755,-3.4217365,2.5339992,-0.34435335,0.35412225,1.339559,10.45596743,1.427725464,crawl
10/07/2020, 15:07:46,-9.363115,-3.2327034,2.5674987,-0.34435335,0.35412225,1.339559,10.2328075,1.427725464,crawl
10/07/2020, 15:07:46,-9.363115,-3.2327034,2.5674987,-0.3492378,0.33336335,1.3017045,10.2328075,1.388356164,crawl
10/07/2020, 15:07:46,-9.162118,-3.022135,2.696711,-0.3492378,0.33336335,1.3017045,10.01748252,1.388356164,crawl
10/07/2020, 15:07:46,-9.162118,-3.022135,2.696711,-0.34557447,0.31871,1.2650712,10.01748252,1.349593569,crawl
10/07/2020, 15:07:46,-8.898908,-2.845066,2.833102,-0.34557447,0.31871,1.2650712,9.762757059,1.349593569,crawl
10/07/2020, 15:07:46,-8.898908,-2.845066,2.833102,-0.34801668,0.3174889,1.21989,9.762757059,1.307687434,crawl
10/07/2020, 15:07:46,-8.678768,-2.6703901,2.9647074,-0.34801668,0.3174889,1.21989,9.552041143,1.307687434,crawl
10/07/2020, 15:07:46,-8.678768,-2.6703901,2.9647074,-0.3712178,0.31260446,1.1795933,9.552041143,1.275525227,crawl
10/07/2020, 15:07:46,-8.523234,-2.4789643,3.07717,-0.3712178,0.31260446,1.1795933,9.39466672,1.275525227,crawl
10/07/2020, 15:07:46,-8.523234,-2.4789643,3.07717,-0.4249467,0.2942878,1.1405178,9.39466672,1.252184462,crawl
10/07/2020, 15:07:47,-6.235696,-3.4528432,1.3256238,-0.48356003,-0.06227667,0.14287001,7.250055656,0.508055628,crawl
10/07/2020, 15:07:47,-6.209375,-3.4719856,1.4404793,-0.48356003,-0.06227667,0.14287001,7.258512321,0.508055628,crawl
10/07/2020, 15:07:47,-6.209375,-3.4719856,1.4404793,-0.37854445,-0.014653334,0.35900667,7.258512321,0.521916097,crawl
10/07/2020, 15:07:47,-6.2404814,-3.5581272,1.5146568,-0.37854445,-0.014653334,0.35900667,7.341529943,0.521916097,crawl
10/07/2020, 15:07:47,-6.2404814,-3.5581272,1.5146568,-0.2759711,0.028085556,0.5800278,7.341529943,0.642947218,crawl
10/07/2020, 15:07:47,-6.3696938,-3.644269,1.6606189,-0.2759711,0.028085556,0.5800278,7.524051445,0.642947218,crawl
10/07/2020, 15:07:47,-6.3696938,-3.644269,1.6606189,-0.16607112,0.064718895,0.7998278,7.524051445,0.819446571,crawl
10/07/2020, 15:07:47,-6.6352973,-3.802195,1.7994026,-0.16607112,0.064718895,0.7998278,7.856316395,0.819446571,crawl
10/07/2020, 15:07:47,-6.6352973,-3.802195,1.7994026,-0.036633335,0.09768889,1.0257334,7.856316395,1.031025717,crawl
10/07/2020, 15:07:47,-6.9966135,-3.9840498,1.9645073,-0.036633335,0.09768889,1.0257334,8.287613793,1.031025717,crawl
10/07/2020, 15:07:47,-6.9966135,-3.9840498,1.9645073,0.10013112,0.117226675,1.2589656,8.287613793,1.268370113,crawl
10/07/2020, 15:07:47,-7.4656067,-4.1228333,2.0817556,0.10013112,0.117226675,1.2589656,8.778766645,1.268370113,crawl
10/07/2020, 15:07:47,-7.4656067,-4.1228333,2.0817556,0.20881,0.1306589,1.4934189,8.778766645,1.513596204,crawl
10/07/2020, 15:07:47,-7.984849,-4.180261,2.1511476,0.20881,0.1306589,1.4934189,9.26605808,1.513596204,crawl
10/07/2020, 15:07:47,-7.984849,-4.180261,2.1511476,0.26986557,0.14287001,1.7327567,9.26605808,1.759455929,crawl
10/07/2020, 15:07:47,-8.427522,-4.1491547,2.1080768,0.26986557,0.14287001,1.7327567,9.627179979,1.759455929,crawl
10/07/2020, 15:07:47,-8.427522,-4.1491547,2.1080768,0.25887558,0.15386,1.9952956,9.627179979,2.017893499,crawl
10/07/2020, 15:07:47,-8.891729,-4.1515474,2.0338993,0.25887558,0.15386,1.9952956,10.02172357,2.017893499,crawl
10/07/2020, 15:07:47,-8.891729,-4.1515474,2.0338993,0.18438779,0.16362889,2.2761512,10.02172357,2.289462266,crawl
10/07/2020, 15:07:47,-9.38465,-4.139583,1.9310079,0.18438779,0.16362889,2.2761512,10.43726974,2.289462266,crawl
10/07/2020, 15:07:48,-10.109675,-3.6681972,3.4600215,0.65940005,-0.34435335,-1.8951645,11.29747565,2.035936171,crawl
10/07/2020, 15:07:48,-10.109675,-3.6681972,3.4600215,0.57636446,-0.37732336,-2.141829,11.29747565,2.249888982,crawl
10/07/2020, 15:07:48,-9.200403,-3.4217365,3.1896327,0.57636446,-0.37732336,-2.141829,10.32131078,2.249888982,crawl
10/07/2020, 15:07:48,-9.200403,-3.4217365,3.1896327,0.53851,-0.37488112,-2.3933778,10.32131078,2.48169017,crawl
10/07/2020, 15:07:48,-8.449057,-3.237489,2.928815,0.53851,-0.37488112,-2.3933778,9.510302279,2.48169017,crawl
10/07/2020, 15:07:48,-8.449057,-3.237489,2.928815,0.55438447,-0.34069002,-2.62661,9.510302279,2.706010372,crawl
10/07/2020, 15:07:48,-7.879565,-3.0819557,2.7445676,0.55438447,-0.34069002,-2.62661,8.894866109,2.706010372,crawl
10/07/2020, 15:07:48,-7.879565,-3.0819557,2.7445676,0.6227667,-0.28940335,-2.8549578,8.894866109,2.93638839,crawl
10/07/2020, 15:07:48,-7.52782,-2.9359934,2.5722845,0.6227667,-0.28940335,-2.8549578,8.479668649,2.93638839,crawl
10/07/2020, 15:07:48,-7.52782,-2.9359934,2.5722845,0.71801335,-0.21735778,-3.06621,8.479668649,3.156648781,crawl
10/07/2020, 15:07:48,-7.355537,-2.7948167,2.3904297,0.71801335,-0.21735778,-3.06621,8.22369008,3.156648781,crawl
10/07/2020, 15:07:48,-7.355537,-2.7948167,2.3904297,0.81081784,-0.13676445,-3.2261758,8.22369008,3.329315287,crawl
10/07/2020, 15:07:48,-7.322037,-2.7086751,2.2061825,0.81081784,-0.13676445,-3.2261758,8.112730196,3.329315287,crawl
10/07/2020, 15:07:48,-7.322037,-2.7086751,2.2061825,0.9060645,-0.06105556,-3.3372967,8.112730196,3.458645704,crawl
10/07/2020, 15:07:48,-7.463214,-2.7206392,2.053042,0.9060645,-0.06105556,-3.3372967,8.204658495,3.458645704,crawl
10/07/2020, 15:07:48,-7.463214,-2.7206392,2.053042,0.9866578,0.006105556,-3.4203324,8.204658495,3.559804044,crawl
10/07/2020, 15:07:48,-7.8317084,-2.8187451,1.9046868,0.9866578,0.006105556,-3.4203324,8.538665758,3.559804044,crawl
10/07/2020, 15:07:48,-7.8317084,-2.8187451,1.9046868,1.0745778,0.037854444,-3.4459758,8.538665758,3.609833723,crawl
10/07/2020, 15:07:48,-8.319844,-3.0819557,1.9310079,1.0745778,0.037854444,-3.4459758,9.080035815,3.609833723,crawl
10/07/2020, 15:07:48,-8.319844,-3.0819557,1.9310079,1.1966889,0.08792,-3.4618502,9.080035815,3.66390513,crawl
10/07/2020, 15:07:49,-8.477771,-4.8885365,3.2135608,0.93537116,0.43471557,-0.5507211,10.30035726,1.169269248,crawl
10/07/2020, 15:07:49,-8.477771,-4.8885365,3.2135608,1.0574822,0.46158,-0.6032289,10.30035726,1.302002279,crawl
10/07/2020, 15:07:49,-8.841479,-5.13739,3.2279177,1.0574822,0.46158,-0.6032289,10.72305862,1.302002279,crawl
10/07/2020, 15:07:49,-8.841479,-5.13739,3.2279177,1.2259957,0.5030978,-0.6679478,10.72305862,1.484023931,crawl
10/07/2020, 15:07:49,-9.274581,-5.393422,3.3044882,1.2259957,0.5030978,-0.6679478,11.22615234,1.484023931,crawl
10/07/2020, 15:07:49,-9.274581,-5.393422,3.3044882,1.4445745,0.55438447,-0.72534,11.22615234,1.708875561,crawl
10/07/2020, 15:07:49,-9.839287,-5.6614184,3.4241292,1.4445745,0.55438447,-0.72534,11.8569762,1.708875561,crawl
10/07/2020, 15:07:49,-9.839287,-5.6614184,3.4241292,1.6900178,0.59834445,-0.7815111,11.8569762,1.955744346,crawl
10/07/2020, 15:07:49,-10.454242,-5.9030933,3.522235,1.6900178,0.59834445,-0.7815111,12.5117473,1.955744346,crawl
10/07/2020, 15:07:49,-10.454242,-5.9030933,3.522235,1.9342401,0.63009334,-0.83768225,12.5117473,2.200003167,crawl
10/07/2020, 15:07:49,-11.0811615,-6.108876,3.5772698,1.9342401,0.63009334,-0.83768225,13.14942463,2.200003167,crawl
10/07/2020, 15:07:49,-11.0811615,-6.108876,3.5772698,2.1723568,0.65451556,-0.8999589,13.14942463,2.440788995,crawl
10/07/2020, 15:07:49,-11.827723,-6.3361945,3.656233,2.1723568,0.65451556,-0.8999589,13.90720755,2.440788995,crawl
10/07/2020, 15:07:49,-11.827723,-6.3361945,3.656233,2.4178002,0.67161113,-0.97811,13.90720755,2.693235686,crawl
10/07/2020, 15:07:49,-12.784851,-6.6568327,3.8165522,2.4178002,0.67161113,-0.97811,14.9107984,2.693235686,crawl
10/07/2020, 15:07:49,-12.784851,-6.6568327,3.8165522,2.6901078,0.66306335,-1.0464922,14.9107984,2.961668291,crawl
10/07/2020, 15:07:49,-13.818551,-6.9559355,3.9625144,2.6901078,0.66306335,-1.0464922,15.96993777,2.961668291,crawl
10/07/2020, 15:07:49,-13.818551,-6.9559355,3.9625144,2.953868,0.60445005,-1.1087689,15.96993777,3.212485652,crawl
10/07/2020, 15:07:49,-14.713467,-7.0899334,4.031906,2.953868,0.60445005,-1.1087689,16.82288689,3.212485652,crawl
10/07/2020, 15:07:49,-14.713467,-7.0899334,4.031906,3.1504667,0.4933289,-1.16494,16.82288689,3.39498143,crawl
10/07/2020, 15:07:50,-7.91785,-3.2063823,2.7996025,0.6520734,0.50676113,-1.4555645,8.989494446,1.673521603,crawl
10/07/2020, 15:07:50,-7.850851,-3.3403804,2.737389,0.6520734,0.50676113,-1.4555645,8.96031823,1.673521603,crawl
10/07/2020, 15:07:50,-7.850851,-3.3403804,2.737389,0.60445005,0.45181113,-1.2345434,8.96031823,1.446924557,crawl
10/07/2020, 15:07:50,-7.7383885,-3.3954153,2.6321049,0.60445005,0.45181113,-1.2345434,8.850959176,1.446924557,crawl
10/07/2020, 15:07:50,-7.7383885,-3.3954153,2.6321049,0.56171113,0.3931978,-1.0147433,8.850959176,1.224674623,crawl
10/07/2020, 15:07:50,-7.62114,-3.4169507,2.5316064,0.56171113,0.3931978,-1.0147433,8.727333969,1.224674623,crawl
10/07/2020, 15:07:50,-7.62114,-3.4169507,2.5316064,0.51164556,0.33458444,-0.8071545,8.727333969,1.012534579,crawl
10/07/2020, 15:07:50,-7.4823565,-3.4289148,2.4143581,0.51164556,0.33458444,-0.8071545,8.577426266,1.012534579,crawl
10/07/2020, 15:07:50,-7.4823565,-3.4289148,2.4143581,0.46524334,0.27475002,-0.6203245,8.577426266,0.822642946,crawl
10/07/2020, 15:07:50,-7.30768,-3.3619158,2.2707887,0.46524334,0.27475002,-0.6203245,8.358298158,0.822642946,crawl
10/07/2020, 15:07:50,-7.30768,-3.3619158,2.2707887,0.42861003,0.22590557,-0.4383789,8.358298158,0.653388048,crawl
10/07/2020, 15:07:50,-7.140183,-3.2685957,2.115255,0.42861003,0.22590557,-0.4383789,8.132664687,0.653388048,crawl
10/07/2020, 15:07:50,-7.140183,-3.2685957,2.115255,0.39197668,0.18072446,-0.2613178,8.132664687,0.504573124,crawl
10/07/2020, 15:07:50,-6.9678993,-3.1752756,1.9716859,0.39197668,0.18072446,-0.2613178,7.907056413,0.504573124,crawl
10/07/2020, 15:07:50,-6.9678993,-3.1752756,1.9716859,0.36389112,0.15019667,-0.10501556,7.907056413,0.407435957,crawl
10/07/2020, 15:07:50,-6.800402,-3.1130621,1.8041883,0.36389112,0.15019667,-0.10501556,7.693615584,0.407435957,crawl
10/07/2020, 15:07:50,-6.800402,-3.1130621,1.8041883,0.34557447,0.117226675,0.046402223,7.693615584,0.367854554,crawl
10/07/2020, 15:07:50,-6.666404,-3.0125637,1.6366907,0.34557447,0.117226675,0.046402223,7.496348169,0.367854554,crawl
10/07/2020, 15:07:50,-6.666404,-3.0125637,1.6366907,0.32481557,0.09524667,0.1856089,7.496348169,0.386041119,crawl
10/07/2020, 15:07:50,-6.556334,-2.9647074,1.4955142,0.32481557,0.09524667,0.1856089,7.3492563,0.386041119,crawl
10/07/2020, 15:07:51,-8.965906,-5.4628143,3.17049,-0.44326335,0.11844778,-2.2663822,10.96730689,2.31235824,crawl
10/07/2020, 15:07:51,-9.518648,-5.4891353,3.2566316,-0.44326335,0.11844778,-2.2663822,11.46040654,2.31235824,crawl
10/07/2020, 15:07:51,-9.518648,-5.4891353,3.2566316,-0.31993112,0.12577444,-2.3799458,11.46040654,2.404644865,crawl
10/07/2020, 15:07:51,-10.155139,-5.4891353,3.37388,-0.31993112,0.12577444,-2.3799458,12.02665868,2.404644865,crawl
10/07/2020, 15:07:51,-10.155139,-5.4891353,3.37388,-0.21003112,0.13188,-2.5008357,12.02665868,2.513102543,crawl
10/07/2020, 15:07:51,-10.810773,-5.4341,3.4743786,-0.21003112,0.13188,-2.5008357,12.58862827,2.513102543,crawl
10/07/2020, 15:07:51,-10.810773,-5.4341,3.4743786,-0.11600556,0.11844778,-2.6192834,12.58862827,2.62452527,crawl
10/07/2020, 15:07:51,-11.332408,-5.355137,3.5198421,-0.11600556,0.11844778,-2.6192834,13.0188421,2.62452527,crawl
10/07/2020, 15:07:51,-11.332408,-5.355137,3.5198421,-0.04396,0.098910004,-2.7413945,13.0188421,2.743530496,crawl
10/07/2020, 15:07:51,-11.700903,-5.206782,3.5365918,-0.04396,0.098910004,-2.7413945,13.28642873,2.743530496,crawl
10/07/2020, 15:07:51,-11.700903,-5.206782,3.5365918,-0.003663334,0.07693,-2.865948,13.28642873,2.866982624,crawl
10/07/2020, 15:07:51,-11.91865,-4.9842496,3.5198421,-0.003663334,0.07693,-2.865948,13.38978128,2.866982624,crawl
10/07/2020, 15:07:51,-11.91865,-4.9842496,3.5198421,-0.001221111,0.06227667,-2.9941645,13.38978128,2.994812303,crawl
10/07/2020, 15:07:51,-11.935399,-4.6875396,3.5581272,-0.001221111,0.06227667,-2.9941645,13.30740571,2.994812303,crawl
10/07/2020, 15:07:51,-11.935399,-4.6875396,3.5581272,-0.04029667,0.057392225,-3.1358135,13.30740571,3.136597494,crawl
10/07/2020, 15:07:51,-11.949757,-4.4578285,3.5676985,-0.04029667,0.057392225,-3.1358135,13.243768,3.136597494,crawl
10/07/2020, 15:07:51,-11.949757,-4.4578285,3.5676985,-0.08669889,0.06349778,-3.2664723,13.243768,3.26823962,crawl
10/07/2020, 15:07:51,-11.959328,-4.287938,3.5389848,-0.08669889,0.06349778,-3.2664723,13.18849292,3.26823962,crawl
10/07/2020, 15:07:51,-11.959328,-4.287938,3.5389848,-0.1306589,0.07448778,-3.39591,13.18849292,3.399238896,crawl
10/07/2020, 15:07:51,-11.959328,-4.182654,3.5150564,-0.1306589,0.07448778,-3.39591,13.1482217,3.399238896,crawl
10/07/2020, 15:07:52,-8.721839,-4.536792,2.78046,-0.07570889,-0.59834445,-1.0013112,10.21684451,1.168919157,crawl
10/07/2020, 15:07:52,-8.937193,-4.54397,2.78046,-0.07570889,-0.59834445,-1.0013112,10.404424,1.168919157,crawl
10/07/2020, 15:07:52,-8.937193,-4.54397,2.78046,-0.13188,-0.64841,-1.07702,10.404424,1.264041169,crawl
10/07/2020, 15:07:52,-9.150154,-4.5415773,2.725425,-0.13188,-0.64841,-1.07702,10.57256764,1.264041169,crawl
10/07/2020, 15:07:52,-9.150154,-4.5415773,2.725425,-0.19293556,-0.6874856,-1.1539501,10.57256764,1.357004557,crawl
10/07/2020, 15:07:52,-9.312865,-4.54397,2.7038896,-0.19293556,-0.6874856,-1.1539501,10.709255,1.357004557,crawl
10/07/2020, 15:07:52,-9.312865,-4.54397,2.7038896,-0.24178001,-0.70336,-1.2430911,10.709255,1.44860222,crawl
10/07/2020, 15:07:52,-9.454042,-4.584648,2.7038896,-0.24178001,-0.70336,-1.2430911,10.84937491,1.44860222,crawl
10/07/2020, 15:07:52,-9.454042,-4.584648,2.7038896,-0.26864445,-0.70946556,-1.3468856,10.84937491,1.545836972,crawl
10/07/2020, 15:07:52,-9.710074,-4.615755,2.725425,-0.26864445,-0.70946556,-1.3468856,11.09137871,1.545836972,crawl
10/07/2020, 15:07:52,-9.710074,-4.615755,2.725425,-0.27841336,-0.7082445,-1.4653333,11.09137871,1.65115901,crawl
10/07/2020, 15:07:52,-9.970892,-4.6085763,2.725425,-0.27841336,-0.7082445,-1.4653333,11.31749103,1.65115901,crawl
10/07/2020, 15:07:52,-9.970892,-4.6085763,2.725425,-0.2845189,-0.7119078,-1.5691278,11.31749103,1.746403668,crawl
10/07/2020, 15:07:52,-10.224531,-4.575077,2.6512475,-0.2845189,-0.7119078,-1.5691278,11.51092877,1.746403668,crawl
10/07/2020, 15:07:52,-10.224531,-4.575077,2.6512475,-0.2955089,-0.70946556,-1.6655957,11.51092877,1.834359769,crawl
10/07/2020, 15:07:52,-10.372886,-4.4817567,2.5722845,-0.2955089,-0.70946556,-1.6655957,11.58876819,1.834359769,crawl
10/07/2020, 15:07:52,-10.372886,-4.4817567,2.5722845,-0.32970002,-0.70946556,-1.7754956,11.58876819,1.940213465,crawl
10/07/2020, 15:07:52,-10.466207,-4.3501515,2.4717858,-0.32970002,-0.70946556,-1.7754956,11.60064752,1.940213465,crawl
10/07/2020, 15:07:52,-10.466207,-4.3501515,2.4717858,-0.3724389,-0.7021389,-1.8902801,11.60064752,2.050577659,crawl
10/07/2020, 15:07:52,-10.514063,-4.2257247,2.3856442,-0.3724389,-0.7021389,-1.8902801,11.57987762,2.050577659,crawl
10/07/2020, 15:07:53,-8.190632,-4.4195433,2.6344976,-0.09646778,-0.15141778,0.24178001,9.672610345,0.301149382,crawl
10/07/2020, 15:07:53,-8.190632,-4.4195433,2.6344976,-0.10501556,-0.16607112,0.16851334,9.672610345,0.258852527,crawl
10/07/2020, 15:07:53,-8.1738825,-4.402794,2.603391,-0.10501556,-0.16607112,0.16851334,9.64233339,0.258852527,crawl
10/07/2020, 15:07:53,-8.1738825,-4.402794,2.603391,-0.12089001,-0.17339778,0.09646778,9.64233339,0.232351492,crawl
10/07/2020, 15:07:53,-8.140383,-4.3932223,2.5794628,-0.12089001,-0.17339778,0.09646778,9.603117317,0.232351492,crawl
10/07/2020, 15:07:53,-8.140383,-4.3932223,2.5794628,-0.13798556,-0.17950334,0.029306669,9.603117317,0.228298801,crawl
10/07/2020, 15:07:53,-8.097312,-4.3932223,2.565106,-0.13798556,-0.17950334,0.029306669,9.562773239,0.228298801,crawl
10/07/2020, 15:07:53,-8.097312,-4.3932223,2.565106,-0.15996556,-0.19171445,-0.04029667,9.562773239,0.252917442,crawl
10/07/2020, 15:07:53,-8.078169,-4.371687,2.548356,-0.15996556,-0.19171445,-0.04029667,9.532186398,0.252917442,crawl
10/07/2020, 15:07:53,-8.078169,-4.371687,2.548356,-0.17828223,-0.20392556,-0.102573335,9.532186398,0.289640258,crawl
10/07/2020, 15:07:53,-8.068598,-4.3812585,2.5339992,-0.17828223,-0.20392556,-0.102573335,9.524644259,0.289640258,crawl
10/07/2020, 15:07:53,-8.068598,-4.3812585,2.5339992,-0.19293556,-0.2075889,-0.16607112,9.524644259,0.328476627,crawl
10/07/2020, 15:07:53,-8.059027,-4.359723,2.5292134,-0.19293556,-0.2075889,-0.16607112,9.505367833,0.328476627,crawl
10/07/2020, 15:07:53,-8.059027,-4.359723,2.5292134,-0.20270446,-0.20514667,-0.23567446,9.505367833,0.372446913,crawl
10/07/2020, 15:07:53,-8.037491,-4.3836513,2.5124638,-0.20270446,-0.20514667,-0.23567446,9.493689051,0.372446913,crawl
10/07/2020, 15:07:53,-8.037491,-4.3836513,2.5124638,-0.1965989,-0.19415668,-0.30405667,9.493689051,0.41085083,crawl
10/07/2020, 15:07:53,-8.025527,-4.4243293,2.4861426,-0.1965989,-0.19415668,-0.30405667,9.495508329,0.41085083,crawl
10/07/2020, 15:07:53,-8.025527,-4.4243293,2.4861426,-0.17584,-0.17706113,-0.3712178,9.495508329,0.447295199,crawl
10/07/2020, 15:07:53,-8.073383,-4.4721856,2.4717858,-0.17584,-0.17706113,-0.3712178,9.554563701,0.447295199,crawl
10/07/2020, 15:07:53,-8.073383,-4.4721856,2.4717858,-0.13920668,-0.16485001,-0.4383789,9.554563701,0.488600129,crawl
10/07/2020, 15:07:54,-9.147761,-4.347759,2.4622145,-0.18194556,-0.08792,2.273709,10.42338928,2.282671023,crawl
10/07/2020, 15:07:54,-9.243474,-4.3262234,2.4526432,-0.18194556,-0.08792,2.273709,10.4963555,2.282671023,crawl
10/07/2020, 15:07:54,-9.243474,-4.3262234,2.4526432,-0.1526389,-0.08425667,2.2981312,10.4963555,2.304735334,crawl
10/07/2020, 15:07:54,-9.377472,-4.3740797,2.4598217,-0.1526389,-0.08425667,2.2981312,10.6358016,2.304735334,crawl
10/07/2020, 15:07:54,-9.377472,-4.3740797,2.4598217,-0.11844778,-0.07693,2.317669,10.6358016,2.321968411,crawl
10/07/2020, 15:07:54,-9.504292,-4.409972,2.4717858,-0.11844778,-0.07693,2.317669,10.76518171,2.321968411,crawl
10/07/2020, 15:07:54,-9.504292,-4.409972,2.4717858,-0.09280445,-0.06716111,2.328659,10.76518171,2.331475131,crawl
10/07/2020, 15:07:54,-9.65504,-4.4315076,2.5435705,-0.09280445,-0.06716111,2.328659,10.92372664,2.331475131,crawl
10/07/2020, 15:07:54,-9.65504,-4.4315076,2.5435705,-0.070824444,-0.06227667,2.3274379,10.92372664,2.329347883,crawl
10/07/2020, 15:07:54,-9.851251,-4.4554358,2.5746772,-0.070824444,-0.06227667,2.3274379,11.11427055,2.329347883,crawl
10/07/2020, 15:07:54,-9.851251,-4.4554358,2.5746772,-0.054950003,-0.06105556,2.3274379,11.11427055,2.328886936,crawl
10/07/2020, 15:07:54,-10.030712,-4.5152564,2.6153553,-0.054950003,-0.06105556,2.3274379,11.30675945,2.328886936,crawl
10/07/2020, 15:07:54,-10.030712,-4.5152564,2.6153553,-0.045181114,-0.06960334,2.3079002,11.30675945,2.309391532,crawl
10/07/2020, 15:07:54,-10.195817,-4.5726843,2.6153553,-0.045181114,-0.06960334,2.3079002,11.47624542,2.309391532,crawl
10/07/2020, 15:07:54,-10.195817,-4.5726843,2.6153553,-0.046402223,-0.078151114,2.2798145,11.47624542,2.281625481,crawl
10/07/2020, 15:07:54,-10.298709,-4.6061835,2.6249263,-0.046402223,-0.078151114,2.2798145,11.58320207,2.281625481,crawl
10/07/2020, 15:07:54,-10.298709,-4.6061835,2.6249263,-0.05372889,-0.08303556,2.2382967,11.58320207,2.240480758,crawl
10/07/2020, 15:07:54,-10.320244,-4.5942197,2.6129622,-0.05372889,-0.08303556,2.2382967,11.5949066,2.240480758,crawl
10/07/2020, 15:07:54,-10.320244,-4.5942197,2.6129622,-0.078151114,-0.08425667,2.1894524,11.5949066,2.192466337,crawl
10/07/2020, 15:07:54,-10.305887,-4.5918264,2.6344976,-0.078151114,-0.08425667,2.1894524,11.58605883,2.192466337,crawl
10/07/2020, 15:07:55,-8.807981,-3.6729827,2.8426733,0.5030978,0.20392556,0.41395667,9.957515479,0.682680841,crawl
10/07/2020, 15:07:55,-8.807981,-3.6729827,2.8426733,0.47257003,0.1856089,0.36267,9.957515479,0.623941206,crawl
10/07/2020, 15:07:55,-8.817552,-3.696911,2.8953154,0.47257003,0.1856089,0.36267,9.989955927,0.623941206,crawl
10/07/2020, 15:07:55,-8.817552,-3.696911,2.8953154,0.42250445,0.15996556,0.3174889,9.989955927,0.552175879,crawl
10/07/2020, 15:07:55,-8.834301,-3.67059,2.9359934,0.42250445,0.15996556,0.3174889,10.00690571,0.552175879,crawl
10/07/2020, 15:07:55,-8.834301,-3.67059,2.9359934,0.36999667,0.12943779,0.26498112,10.00690571,0.473145505,crawl
10/07/2020, 15:07:55,-8.819944,-3.6251264,2.9096723,0.36999667,0.12943779,0.26498112,9.969912372,0.473145505,crawl
10/07/2020, 15:07:55,-8.819944,-3.6251264,2.9096723,0.31138334,0.102573335,0.2185789,9.969912372,0.394027422,crawl
10/07/2020, 15:07:55,-8.7984085,-3.6011982,2.8929226,0.31138334,0.102573335,0.2185789,9.937284444,0.394027422,crawl
10/07/2020, 15:07:55,-8.7984085,-3.6011982,2.8929226,0.24544334,0.08059334,0.16118668,9.937284444,0.30449773,crawl
10/07/2020, 15:07:55,-8.774481,-3.5796626,2.8666015,0.24544334,0.08059334,0.16118668,9.900651579,0.30449773,crawl
10/07/2020, 15:07:55,-8.774481,-3.5796626,2.8666015,0.18683001,0.06105556,0.11112112,9.900651579,0.225790032,crawl
10/07/2020, 15:07:55,-8.738588,-3.5437703,2.8307092,0.18683001,0.06105556,0.11112112,9.845514145,0.225790032,crawl
10/07/2020, 15:07:55,-8.738588,-3.5437703,2.8307092,0.1306589,0.04029667,0.05250778,9.845514145,0.146467182,crawl
10/07/2020, 15:07:55,-8.712267,-3.5198421,2.8187451,0.1306589,0.04029667,0.05250778,9.810107431,0.146467182,crawl
10/07/2020, 15:07:55,-8.712267,-3.5198421,2.8187451,0.09524667,0.028085556,-0.01099,9.810107431,0.099907493,crawl
10/07/2020, 15:07:55,-8.669196,-3.4695928,2.804388,0.09524667,0.028085556,-0.01099,9.749750156,0.099907493,crawl
10/07/2020, 15:07:55,-8.669196,-3.4695928,2.804388,0.070824444,0.019537779,-0.06227667,9.749750156,0.096313084,crawl
10/07/2020, 15:07:55,-8.590233,-3.4528432,2.8163524,0.070824444,0.019537779,-0.06227667,9.677089808,0.096313084,crawl
10/07/2020, 15:07:55,-8.590233,-3.4528432,2.8163524,0.059834447,0.018316668,-0.11600556,9.677089808,0.131806494,crawl
10/07/2020, 15:07:56,-9.755538,-3.196811,3.2925239,0.098910004,-0.25887558,0.026864445,10.78104054,0.278426745,crawl
10/07/2020, 15:07:56,-9.755538,-3.196811,3.2925239,0.05617111,-0.30772,-0.023201112,10.78104054,0.313663972,crawl
10/07/2020, 15:07:56,-9.5760765,-3.0364919,3.2757742,0.05617111,-0.30772,-0.023201112,10.56656146,0.313663972,crawl
10/07/2020, 15:07:56,-9.5760765,-3.0364919,3.2757742,0.006105556,-0.34069002,-0.085477784,10.56656146,0.351302458,crawl
10/07/2020, 15:07:56,-9.348758,-2.8689942,3.266203,0.006105556,-0.34069002,-0.085477784,10.31011546,0.351302458,crawl
10/07/2020, 15:07:56,-9.348758,-2.8689942,3.266203,-0.06349778,-0.35778558,-0.15386,10.31011546,0.394607896,crawl
10/07/2020, 15:07:56,-9.126225,-2.7014968,3.2303107,-0.06349778,-0.35778558,-0.15386,10.05091954,0.394607896,crawl
10/07/2020, 15:07:56,-9.126225,-2.7014968,3.2303107,-0.14775445,-0.3724389,-0.22468445,10.05091954,0.459374811,crawl
10/07/2020, 15:07:56,-8.927621,-2.5220351,3.117848,-0.14775445,-0.3724389,-0.22468445,9.786932692,0.459374811,crawl
10/07/2020, 15:07:56,-8.927621,-2.5220351,3.117848,-0.25521225,-0.3809867,-0.2759711,9.786932692,0.535204826,crawl
10/07/2020, 15:07:56,-8.7673025,-2.3521447,3.0029924,-0.25521225,-0.3809867,-0.2759711,9.561178873,0.535204826,crawl
10/07/2020, 15:07:56,-8.7673025,-2.3521447,3.0029924,-0.3944189,-0.39686114,-0.31138334,9.561178873,0.64033164,crawl
10/07/2020, 15:07:56,-8.676374,-2.239682,2.8881369,-0.3944189,-0.39686114,-0.31138334,9.414721619,0.64033164,crawl
10/07/2020, 15:07:56,-8.676374,-2.239682,2.8881369,-0.5421733,-0.41151446,-0.3382478,9.414721619,0.760070816,crawl
10/07/2020, 15:07:56,-8.606983,-2.251646,2.737389,-0.5421733,-0.41151446,-0.3382478,9.308241964,0.760070816,crawl
10/07/2020, 15:07:56,-8.606983,-2.251646,2.737389,-0.66062117,-0.40663,-0.33458444,9.308241964,0.844816572,crawl
10/07/2020, 15:07:56,-8.492127,-2.3545375,2.5938199,-0.66062117,-0.40663,-0.33458444,9.18629285,0.844816572,crawl
10/07/2020, 15:07:56,-8.492127,-2.3545375,2.5938199,-0.76930004,-0.38831335,-0.3162678,9.18629285,0.917951595,crawl
10/07/2020, 15:07:56,-8.322237,-2.4454648,2.5220351,-0.76930004,-0.38831335,-0.3162678,9.033304402,0.917951595,crawl
10/07/2020, 15:07:56,-8.322237,-2.4454648,2.5220351,-0.8669889,-0.36877558,-0.26864445,9.033304402,0.9797117,crawl
10/07/2020, 15:07:57,-7.2909307,-2.981457,4.5655055,-0.30405667,0.2955089,0.27108666,9.104427357,0.503253361,crawl
10/07/2020, 15:07:57,-7.2909307,-2.981457,4.5655055,-0.25399113,0.32359445,0.21125223,9.104427357,0.462441742,crawl
10/07/2020, 15:07:57,-7.2287173,-3.0317063,4.5631127,-0.25399113,0.32359445,0.21125223,9.070148583,0.462441742,crawl
10/07/2020, 15:07:57,-7.2287173,-3.0317063,4.5631127,-0.1856089,0.35656446,0.16240779,9.070148583,0.433549497,crawl
10/07/2020, 15:07:57,-7.21436,-3.0987053,4.5798626,-0.1856089,0.35656446,0.16240779,9.089780498,0.433549497,crawl
10/07/2020, 15:07:57,-7.21436,-3.0987053,4.5798626,-0.102573335,0.3944189,0.11478445,9.089780498,0.423394643,crawl
10/07/2020, 15:07:57,-7.3052874,-3.1609187,4.6037908,-0.102573335,0.3944189,0.11478445,9.195298793,0.423394643,crawl
10/07/2020, 15:07:57,-7.3052874,-3.1609187,4.6037908,-0.023201112,0.4261678,0.08059334,9.195298793,0.434341525,crawl
10/07/2020, 15:07:57,-7.5062847,-3.2925239,4.6396832,-0.023201112,0.4261678,0.08059334,9.41868803,0.434341525,crawl
10/07/2020, 15:07:57,-7.5062847,-3.2925239,4.6396832,0.05250778,0.45425335,0.048844445,9.41868803,0.459879277,crawl
10/07/2020, 15:07:57,-7.771888,-3.4049866,4.666004,0.05250778,0.45425335,0.048844445,9.683375886,0.459879277,crawl
10/07/2020, 15:07:57,-7.771888,-3.4049866,4.666004,0.12211112,0.46035892,0.03297,9.683375886,0.477418558,crawl
10/07/2020, 15:07:57,-8.128419,-3.4911282,4.718646,0.12211112,0.46035892,0.03297,10.02620521,0.477418558,crawl
10/07/2020, 15:07:57,-8.128419,-3.4911282,4.718646,0.18072446,0.44204223,0.019537779,10.02620521,0.477958564,crawl
10/07/2020, 15:07:57,-8.444271,-3.5437703,4.8047876,0.18072446,0.44204223,0.019537779,10.34166362,0.477958564,crawl
10/07/2020, 15:07:57,-8.444271,-3.5437703,4.8047876,0.2295689,0.41273558,-0.003663334,10.34166362,0.472298591,crawl
10/07/2020, 15:07:57,-8.626125,-3.5724843,4.8646083,0.2295689,0.41273558,-0.003663334,10.52791983,0.472298591,crawl
10/07/2020, 15:07:57,-8.626125,-3.5724843,4.8646083,0.27230778,0.38465002,-0.03297,10.52791983,0.472434322,crawl
10/07/2020, 15:07:57,-8.705089,-3.5533416,4.9172506,0.27230778,0.38465002,-0.03297,10.61056824,0.472434322,crawl
10/07/2020, 15:07:57,-8.705089,-3.5533416,4.9172506,0.31504667,0.35290113,-0.064718895,10.61056824,0.47747476,crawl
10/07/2020, 15:07:58,-9.798609,-3.4695928,2.120041,-0.58491224,-0.4701278,-0.8120389,10.60874081,1.105689668,crawl
10/07/2020, 15:07:58,-9.745967,-3.5102708,2.0793629,-0.58491224,-0.4701278,-0.8120389,10.56549205,1.105689668,crawl
10/07/2020, 15:07:58,-9.745967,-3.5102708,2.0793629,-0.6569578,-0.48478112,-0.82547116,10.56549205,1.161037867,crawl
10/07/2020, 15:07:58,-9.726824,-3.5389848,2.0961127,-0.6569578,-0.48478112,-0.82547116,10.56073876,1.161037867,crawl
10/07/2020, 15:07:58,-9.726824,-3.5389848,2.0961127,-0.72534,-0.49577114,-0.8413456,10.56073876,1.216457802,crawl
10/07/2020, 15:07:58,-9.74836,-3.5581272,2.0697916,-0.72534,-0.49577114,-0.8413456,10.58181565,1.216457802,crawl
10/07/2020, 15:07:58,-9.74836,-3.5581272,2.0697916,-0.7888378,-0.5104245,-0.8498934,10.58181565,1.266932122,crawl
10/07/2020, 15:07:58,-9.805787,-3.6179478,2.0075781,-0.7888378,-0.5104245,-0.8498934,10.64299661,1.266932122,crawl
10/07/2020, 15:07:58,-9.805787,-3.6179478,2.0075781,-0.8486723,-0.5262989,-0.85966223,10.64299661,1.317670024,crawl
10/07/2020, 15:07:58,-9.84168,-3.6394832,1.9190438,-0.8486723,-0.5262989,-0.85966223,10.66710944,1.317670024,crawl
10/07/2020, 15:07:58,-9.84168,-3.6394832,1.9190438,-0.90362227,-0.54461557,-0.85722005,10.66710944,1.359398964,crawl
10/07/2020, 15:07:58,-9.848858,-3.6179478,1.9262222,-0.90362227,-0.54461557,-0.85722005,10.66770265,1.359398964,crawl
10/07/2020, 15:07:58,-9.848858,-3.6179478,1.9262222,-0.95735115,-0.5519422,-0.8523356,10.66770265,1.395577792,crawl
10/07/2020, 15:07:58,-9.827323,-3.6083765,1.8999012,-0.95735115,-0.5519422,-0.8523356,10.63984407,1.395577792,crawl
10/07/2020, 15:07:58,-9.827323,-3.6083765,1.8999012,-0.9952056,-0.5556056,-0.8437878,10.63984407,1.418135944,crawl
10/07/2020, 15:07:58,-9.767502,-3.5988052,1.8520447,-0.9952056,-0.5556056,-0.8437878,10.57286907,1.418135944,crawl
10/07/2020, 15:07:58,-9.767502,-3.5988052,1.8520447,-1.0330601,-0.5556056,-0.83524,10.57286907,1.439977971,crawl
10/07/2020, 15:07:58,-9.645468,-3.5988052,1.8041883,-1.0330601,-0.5556056,-0.83524,10.45186789,1.439977971,crawl
10/07/2020, 15:07:58,-9.645468,-3.5988052,1.8041883,-1.0574822,-0.5482789,-0.8266923,10.45186789,1.449930553,crawl
10/07/2020, 15:07:58,-9.449257,-3.615555,1.7443677,-1.0574822,-0.5482789,-0.8266923,10.2666213,1.449930553,crawl
10/07/2020, 15:07:59,-7.91785,-1.9621146,4.3836513,0.10745778,0.20026223,0.66062117,9.260596138,0.69862183,crawl
10/07/2020, 15:07:59,-7.8604226,-1.9453648,4.388437,0.10745778,0.20026223,0.66062117,9.210269565,0.69862183,crawl
10/07/2020, 15:07:59,-7.8604226,-1.9453648,4.388437,0.15019667,0.18438779,0.63986224,9.210269565,0.682628436,crawl
10/07/2020, 15:07:59,-7.8053875,-1.9238294,4.421936,0.15019667,0.18438779,0.63986224,9.174895747,0.682628436,crawl
10/07/2020, 15:07:59,-7.8053875,-1.9238294,4.421936,0.17339778,0.16118668,0.6239878,9.174895747,0.667389469,crawl
10/07/2020, 15:07:59,-7.7312098,-1.9238294,4.4315076,0.17339778,0.16118668,0.6239878,9.116522554,0.667389469,crawl
10/07/2020, 15:07:59,-7.7312098,-1.9238294,4.4315076,0.19293556,0.13676445,0.6032289,9.116522554,0.647930384,crawl
10/07/2020, 15:07:59,-7.652247,-1.9525433,4.453043,0.19293556,0.13676445,0.6032289,9.066360924,0.647930384,crawl
10/07/2020, 15:07:59,-7.652247,-1.9525433,4.453043,0.20514667,0.11112112,0.5788067,9.066360924,0.624059495,crawl
10/07/2020, 15:07:59,-7.5613194,-1.9573289,4.503292,0.20514667,0.11112112,0.5788067,9.015782074,0.624059495,crawl
10/07/2020, 15:07:59,-7.5613194,-1.9573289,4.503292,0.23445335,0.09280445,0.55316335,9.015782074,0.607923293,crawl
10/07/2020, 15:07:59,-7.4847493,-1.9860427,4.520042,0.23445335,0.09280445,0.55316335,8.966416077,0.607923293,crawl
10/07/2020, 15:07:59,-7.4847493,-1.9860427,4.520042,0.25887558,0.07448778,0.53851,8.966416077,0.602127928,crawl
10/07/2020, 15:07:59,-7.4512496,-2.0673988,4.536792,0.25887558,0.07448778,0.53851,8.965363249,0.602127928,crawl
10/07/2020, 15:07:59,-7.4512496,-2.0673988,4.536792,0.28818223,0.05617111,0.5104245,8.965363249,0.588844084,crawl
10/07/2020, 15:07:59,-7.4153576,-2.1367905,4.546363,0.28818223,0.05617111,0.5104245,8.956719114,0.588844084,crawl
10/07/2020, 15:07:59,-7.4153576,-2.1367905,4.546363,0.31871,0.04396,0.47867557,8.956719114,0.576748516,crawl
10/07/2020, 15:07:59,-7.4249287,-2.268396,4.5631127,0.31871,0.04396,0.47867557,9.005397464,0.576748516,crawl
10/07/2020, 15:07:59,-7.4249287,-2.268396,4.5631127,0.36633334,0.03297,0.44570556,9.005397464,0.577875923,crawl
10/07/2020, 15:07:59,-7.3986077,-2.4215364,4.584648,0.36633334,0.03297,0.44570556,9.0345024,0.577875923,crawl
10/07/2020, 15:08:00,-7.786245,-3.318845,3.3834512,1.0623667,0.7265611,1.636289,9.115266518,2.081815511,crawl
10/07/2020, 15:08:00,-7.8317084,-3.2039895,3.2973096,1.0623667,0.7265611,1.636289,9.081489776,2.081815511,crawl
10/07/2020, 15:08:00,-7.8317084,-3.2039895,3.2973096,1.01108,0.6996967,1.680249,9.081489776,2.082089081,crawl
10/07/2020, 15:08:00,-7.9298143,-3.0532417,3.2159536,1.01108,0.6996967,1.680249,9.085515835,2.082089081,crawl
10/07/2020, 15:08:00,-7.9298143,-3.0532417,3.2159536,0.9414767,0.6789378,1.7022289,9.085515835,2.060319914,crawl
10/07/2020, 15:08:00,-8.059027,-2.9647074,3.0915267,0.9414767,0.6789378,1.7022289,9.12660611,2.060319914,crawl
10/07/2020, 15:08:00,-8.059027,-2.9647074,3.0915267,0.86821,0.6581789,1.72543,9.12660611,2.040611883,crawl
10/07/2020, 15:08:00,-8.262417,-2.8689942,2.9431717,0.86821,0.6581789,1.72543,9.228267435,2.040611883,crawl
10/07/2020, 15:08:00,-8.262417,-2.8689942,2.9431717,0.7754056,0.62643003,1.7510734,9.228267435,2.014925886,crawl
10/07/2020, 15:08:00,-8.492127,-2.8259234,2.7972097,0.7754056,0.62643003,1.7510734,9.376910671,2.014925886,crawl
10/07/2020, 15:08:00,-8.492127,-2.8259234,2.7972097,0.66062117,0.58491224,1.7779379,9.376910671,1.984844022,crawl
10/07/2020, 15:08:00,-8.693125,-2.8187451,2.658426,0.66062117,0.58491224,1.7779379,9.51750868,1.984844022,crawl
10/07/2020, 15:08:00,-8.693125,-2.8187451,2.658426,0.53484666,0.52752,1.8060234,9.51750868,1.956031359,crawl
10/07/2020, 15:08:00,-8.843872,-2.8115666,2.5435705,0.53484666,0.52752,1.8060234,9.622303824,1.956031359,crawl
10/07/2020, 15:08:00,-8.843872,-2.8115666,2.5435705,0.39686114,0.47257003,1.8280034,9.622303824,1.929356797,crawl
10/07/2020, 15:08:00,-8.920443,-2.8833513,2.4933212,0.39686114,0.47257003,1.8280034,9.700755704,1.929356797,crawl
10/07/2020, 15:08:00,-8.920443,-2.8833513,2.4933212,0.26498112,0.4249467,1.8414357,9.700755704,1.908318636,crawl
10/07/2020, 15:08:00,-9.025727,-2.981457,2.5268207,0.26498112,0.4249467,1.8414357,9.835530552,1.908318636,crawl
10/07/2020, 15:08:00,-9.025727,-2.981457,2.5268207,0.1526389,0.3944189,1.8597523,9.835530552,1.907234518,crawl
10/07/2020, 15:08:00,-9.157332,-3.1369905,2.5914268,0.1526389,0.3944189,1.8597523,10.02062572,1.907234518,crawl
10/07/2020, 15:08:01,-8.793623,-2.9479575,2.5196424,-0.07693,0.10867889,-1.5642434,9.610767714,1.569900269,crawl
10/07/2020, 15:08:01,-8.506484,-3.0269206,2.5459633,-0.07693,0.10867889,-1.5642434,9.38106858,1.569900269,crawl
10/07/2020, 15:08:01,-8.506484,-3.0269206,2.5459633,-0.06960334,0.15019667,-1.4396901,9.38106858,1.449176072,crawl
10/07/2020, 15:08:01,-8.190632,-3.117848,2.548356,-0.06960334,0.15019667,-1.4396901,9.126967986,1.449176072,crawl
10/07/2020, 15:08:01,-8.190632,-3.117848,2.548356,-0.04029667,0.20026223,-1.2980411,9.126967986,1.31401655,crawl
10/07/2020, 15:08:01,-7.972885,-3.1345978,2.5028925,-0.04029667,0.20026223,-1.2980411,8.92508103,1.31401655,crawl
10/07/2020, 15:08:01,-7.972885,-3.1345978,2.5028925,-0.009768889,0.26620224,-1.1392968,8.92508103,1.170024015,crawl
10/07/2020, 15:08:01,-7.905886,-3.1633115,2.4909284,-0.009768889,0.26620224,-1.1392968,8.872107983,1.170024015,crawl
10/07/2020, 15:08:01,-7.905886,-3.1633115,2.4909284,0.039075557,0.3309211,-0.9463611,8.872107983,1.003312045,crawl
10/07/2020, 15:08:01,-8.082955,-3.2757742,2.524428,0.039075557,0.3309211,-0.9463611,9.079515428,1.003312045,crawl
10/07/2020, 15:08:01,-8.082955,-3.2757742,2.524428,0.123332225,0.3931978,-0.71801335,9.079515428,0.827863827,crawl
10/07/2020, 15:08:01,-8.487342,-3.4217365,2.6249263,0.123332225,0.3931978,-0.71801335,9.520162339,0.827863827,crawl
10/07/2020, 15:08:01,-8.487342,-3.4217365,2.6249263,0.2295689,0.44204223,-0.47745445,9.520162339,0.689975339,crawl
10/07/2020, 15:08:01,-8.851051,-3.591627,2.7158537,0.2295689,0.44204223,-0.47745445,9.93059689,0.689975339,crawl
10/07/2020, 15:08:01,-8.851051,-3.591627,2.7158537,0.33580557,0.47867557,-0.24300112,9.93059689,0.633202358,crawl
10/07/2020, 15:08:01,-9.073584,-3.723232,2.7972097,0.33580557,0.47867557,-0.24300112,10.19886065,0.633202358,crawl
10/07/2020, 15:08:01,-9.073584,-3.723232,2.7972097,0.4261678,0.5030978,-0.028085556,10.19886065,0.659935716,crawl
10/07/2020, 15:08:01,-9.06162,-3.7184465,2.8187451,0.4261678,0.5030978,-0.028085556,10.19240507,0.659935716,crawl
10/07/2020, 15:08:01,-9.06162,-3.7184465,2.8187451,0.47501224,0.5250778,0.16607112,10.19240507,0.727270901,crawl
10/07/2020, 15:08:01,-8.71466,-3.6873398,2.833102,0.47501224,0.5250778,0.16607112,9.877663442,0.727270901,crawl
10/07/2020, 15:08:02,-6.6424756,-3.3499517,3.0269206,-0.6288723,-0.07326667,-0.5458367,8.031619196,0.835934227,crawl
10/07/2020, 15:08:02,-6.6424756,-3.3499517,3.0269206,-0.56659555,-0.04396,-0.35656446,8.031619196,0.670895834,crawl
10/07/2020, 15:08:02,-6.506085,-3.3236306,3.0436704,-0.56659555,-0.04396,-0.35656446,7.914517721,0.670895834,crawl
10/07/2020, 15:08:02,-6.506085,-3.3236306,3.0436704,-0.51775116,-0.014653334,-0.16973445,7.914517721,0.545060331,crawl
10/07/2020, 15:08:02,-6.3768725,-3.2949169,3.050849,-0.51775116,-0.014653334,-0.16973445,7.799273039,0.545060331,crawl
10/07/2020, 15:08:02,-6.3768725,-3.2949169,3.050849,-0.4689067,0.01099,0.029306669,7.799273039,0.469950162,crawl
10/07/2020, 15:08:02,-6.3122663,-3.3044882,3.0604203,-0.4689067,0.01099,0.029306669,7.754387202,0.469950162,crawl
10/07/2020, 15:08:02,-6.3122663,-3.3044882,3.0604203,-0.41762,0.035412222,0.24055889,7.754387202,0.483248459,crawl
10/07/2020, 15:08:02,-6.2955165,-3.347559,3.1393833,-0.41762,0.035412222,0.24055889,7.790725678,0.483248459,crawl
10/07/2020, 15:08:02,-6.2955165,-3.347559,3.1393833,-0.35778558,0.057392225,0.4371578,7.790725678,0.567812769,crawl
10/07/2020, 15:08:02,-6.245267,-3.4241292,3.2566316,-0.35778558,0.057392225,0.4371578,7.831581539,0.567812769,crawl
10/07/2020, 15:08:02,-6.245267,-3.4241292,3.2566316,-0.2869611,0.07448778,0.62643003,7.831581539,0.693043791,crawl
10/07/2020, 15:08:02,-6.233303,-3.4863427,3.3667014,-0.2869611,0.07448778,0.62643003,7.89577928,0.693043791,crawl
10/07/2020, 15:08:02,-6.233303,-3.4863427,3.3667014,-0.20881,0.09280445,0.80593336,7.89577928,0.837700935,crawl
10/07/2020, 15:08:02,-6.2931237,-3.5509489,3.495914,-0.20881,0.09280445,0.80593336,8.027082817,0.837700935,crawl
10/07/2020, 15:08:02,-6.2931237,-3.5509489,3.495914,-0.12089001,0.102573335,0.97933114,8.027082817,0.992081225,crawl
10/07/2020, 15:08:02,-6.3744793,-3.6083765,3.6275191,-0.12089001,0.102573335,0.97933114,8.173937992,0.992081225,crawl
10/07/2020, 15:08:02,-6.3744793,-3.6083765,3.6275191,-0.039075557,0.10745778,1.1612767,8.173937992,1.166892301,crawl
10/07/2020, 15:08:02,-6.5084777,-3.644269,3.6729827,-0.039075557,0.10745778,1.1612767,8.314552312,1.166892301,crawl
10/07/2020, 15:08:02,-6.5084777,-3.644269,3.6729827,0.034191113,0.10501556,1.3322322,8.314552312,1.336802167,crawl
10/07/2020, 15:08:03,-9.420543,-3.76391,3.0723844,-0.19782001,-0.23079,-2.1674724,10.59967875,2.188682988,crawl
10/07/2020, 15:08:03,-9.420543,-3.76391,3.0723844,-0.2283478,-0.22468445,-2.129618,10.59967875,2.153578032,crawl
10/07/2020, 15:08:03,-9.547362,-3.8380876,3.141776,-0.2283478,-0.22468445,-2.129618,10.75889402,2.153578032,crawl
10/07/2020, 15:08:03,-9.547362,-3.8380876,3.141776,-0.25765446,-0.23811668,-2.0881002,10.75889402,2.11736813,crawl
10/07/2020, 15:08:03,-9.667004,-3.8931224,3.1537402,-0.25765446,-0.23811668,-2.0881002,10.88822477,2.11736813,crawl
10/07/2020, 15:08:03,-9.667004,-3.8931224,3.1537402,-0.29306668,-0.26864445,-2.031929,10.88822477,2.070457304,crawl
10/07/2020, 15:08:03,-9.585648,-3.8668015,3.1633115,-0.29306668,-0.26864445,-2.031929,10.80940946,2.070457304,crawl
10/07/2020, 15:08:03,-9.585648,-3.8668015,3.1633115,-0.33336335,-0.29795113,-1.9855268,10.80940946,2.035245115,crawl
10/07/2020, 15:08:03,-9.29133,-3.790231,3.1154552,-0.33336335,-0.29795113,-1.9855268,10.50717522,2.035245115,crawl
10/07/2020, 15:08:03,-9.29133,-3.790231,3.1154552,-0.38709223,-0.31504667,-1.9195868,10.50717522,1.983408227,crawl
10/07/2020, 15:08:03,-8.872586,-3.6849468,3.0317063,-0.38709223,-0.31504667,-1.9195868,10.07436662,1.983408227,crawl
10/07/2020, 15:08:03,-8.872586,-3.6849468,3.0317063,-0.4273889,-0.30894113,-1.85731,10.07436662,1.930726947,crawl
10/07/2020, 15:08:03,-8.484949,-3.6514473,2.9886355,-0.4273889,-0.30894113,-1.85731,9.708726548,1.930726947,crawl
10/07/2020, 15:08:03,-8.484949,-3.6514473,2.9886355,-0.4481478,-0.28329778,-1.7693901,9.708726548,1.847115436,crawl
10/07/2020, 15:08:03,-8.147561,-3.6083765,2.9312077,-0.4481478,-0.28329778,-1.7693901,9.380570919,1.847115436,crawl
10/07/2020, 15:08:03,-8.147561,-3.6083765,2.9312077,-0.4493689,-0.25643334,-1.68147,9.380570919,1.759270287,crawl
10/07/2020, 15:08:03,-7.920243,-3.5605202,2.8522446,-0.4493689,-0.25643334,-1.68147,9.140177736,1.759270287,crawl
10/07/2020, 15:08:03,-7.920243,-3.5605202,2.8522446,-0.42861003,-0.22712667,-1.5764545,9.140177736,1.649394415,crawl
10/07/2020, 15:08:03,-7.7216387,-3.493521,2.902494,-0.42861003,-0.22712667,-1.5764545,8.958396277,1.649394415,crawl
10/07/2020, 15:08:03,-7.7216387,-3.493521,2.902494,-0.39808223,-0.2075889,-1.4628912,8.958396277,1.530233098,crawl
10/07/2020, 15:08:04,-10.475778,-4.3238306,2.7182465,0.07326667,0.1526389,-2.8793802,11.65445373,2.884353849,crawl
10/07/2020, 15:08:04,-10.475778,-4.3238306,2.7182465,0.078151114,0.1746189,-2.8928123,11.65445373,2.899131263,crawl
10/07/2020, 15:08:04,-10.353744,-4.3405805,2.672783,0.078151114,0.1746189,-2.8928123,11.54055513,2.899131263,crawl
10/07/2020, 15:08:04,-10.353744,-4.3405805,2.672783,0.08059334,0.18316667,-2.9038024,11.54055513,2.910689551,crawl
10/07/2020, 15:08:04,-10.202995,-4.362116,2.6656044,0.08059334,0.18316667,-2.9038024,11.41203814,2.910689551,crawl
10/07/2020, 15:08:04,-10.202995,-4.362116,2.6656044,0.070824444,0.18805112,-2.9062445,11.41203814,2.913183227,crawl
10/07/2020, 15:08:04,-10.054641,-4.4841495,2.6344976,0.070824444,0.18805112,-2.9062445,11.32006958,2.913183227,crawl
10/07/2020, 15:08:04,-10.054641,-4.4841495,2.6344976,0.06227667,0.20514667,-2.8854856,11.32006958,2.893439298,crawl
10/07/2020, 15:08:04,-9.877572,-4.599005,2.5962126,0.06227667,0.20514667,-2.8854856,11.20078563,2.893439298,crawl
10/07/2020, 15:08:04,-9.877572,-4.599005,2.5962126,0.078151114,0.22468445,-2.856179,11.20078563,2.866068592,crawl
10/07/2020, 15:08:04,-9.741181,-4.658826,2.5004997,0.078151114,0.22468445,-2.856179,11.08367141,2.866068592,crawl
10/07/2020, 15:08:04,-9.741181,-4.658826,2.5004997,0.10501556,0.23689556,-2.7877967,11.08367141,2.799813996,crawl
10/07/2020, 15:08:04,-9.533006,-4.6301117,2.4478576,0.10501556,0.23689556,-2.7877967,10.8769545,2.799813996,crawl
10/07/2020, 15:08:04,-9.533006,-4.6301117,2.4478576,0.12089001,0.25521225,-2.7194145,10.8769545,2.734037812,crawl
10/07/2020, 15:08:04,-9.276974,-4.551149,2.4191437,0.12089001,0.25521225,-2.7194145,10.61260825,2.734037812,crawl
10/07/2020, 15:08:04,-9.276974,-4.551149,2.4191437,0.13432223,0.27475002,-2.646148,10.61260825,2.663762207,crawl
10/07/2020, 15:08:04,-9.02812,-4.4602213,2.4071796,0.13432223,0.27475002,-2.646148,10.35350371,2.663762207,crawl
10/07/2020, 15:08:04,-9.02812,-4.4602213,2.4071796,0.15386,0.29062447,-2.5545645,10.35350371,2.575642666,crawl
10/07/2020, 15:08:04,-8.7984085,-4.4410787,2.388037,0.15386,0.29062447,-2.5545645,10.14090196,2.575642666,crawl
10/07/2020, 15:08:04,-8.7984085,-4.4410787,2.388037,0.18683001,0.31871,-2.4556546,10.14090196,2.483288372,crawl
10/07/2020, 15:08:05,-9.377472,-5.271388,2.4382863,0.9842156,0.034191113,1.5202833,11.03040125,1.811383684,crawl
10/07/2020, 15:08:05,-9.200403,-5.1014977,2.3976083,0.9842156,0.034191113,1.5202833,10.78986668,1.811383684,crawl
10/07/2020, 15:08:05,-9.200403,-5.1014977,2.3976083,1.0269545,0.039075557,1.3603178,10.78986668,1.704883309,crawl
10/07/2020, 15:08:05,-8.989835,-4.938786,2.3162522,1.0269545,0.039075557,1.3603178,10.5154059,1.704883309,crawl
10/07/2020, 15:08:05,-8.989835,-4.938786,2.3162522,1.0428289,0.051286668,1.1783723,10.5154059,1.574383583,crawl
10/07/2020, 15:08:05,-8.784052,-4.7449675,2.2875385,1.0428289,0.051286668,1.1783723,10.24241751,1.574383583,crawl
10/07/2020, 15:08:05,-8.784052,-4.7449675,2.2875385,1.0293967,0.068382226,0.9927634,10.24241751,1.431751643,crawl
10/07/2020, 15:08:05,-8.63809,-4.5918264,2.2372892,1.0293967,0.068382226,0.9927634,10.03528446,1.431751643,crawl
10/07/2020, 15:08:05,-8.63809,-4.5918264,2.2372892,1.0013112,0.07693,0.80227005,10.03528446,1.285371367,crawl
10/07/2020, 15:08:05,-8.566305,-4.402794,2.1966112,1.0013112,0.07693,0.80227005,9.878829825,1.285371367,crawl
10/07/2020, 15:08:05,-8.566305,-4.402794,2.1966112,0.9634567,0.08303556,0.6068922,9.878829825,1.141692548,crawl
10/07/2020, 15:08:05,-8.5112705,-4.2448673,2.172683,0.9634567,0.08303556,0.6068922,9.756084048,1.141692548,crawl
10/07/2020, 15:08:05,-8.5112705,-4.2448673,2.172683,0.91461223,0.08303556,0.42006224,9.756084048,1.009882533,crawl
10/07/2020, 15:08:05,-8.487342,-4.132405,2.1631117,0.91461223,0.08303556,0.42006224,9.684564721,1.009882533,crawl
10/07/2020, 15:08:05,-8.487342,-4.132405,2.1631117,0.8669889,0.08669889,0.23811668,9.684564721,0.903264081,crawl
10/07/2020, 15:08:05,-8.441878,-4.065406,2.160719,0.8669889,0.08669889,0.23811668,9.615692408,0.903264081,crawl
10/07/2020, 15:08:05,-8.441878,-4.065406,2.160719,0.82791334,0.08425667,0.06105556,9.615692408,0.834426434,crawl
10/07/2020, 15:08:05,-8.396415,-4.082155,2.225325,0.82791334,0.08425667,0.06105556,9.597699928,0.834426434,crawl
10/07/2020, 15:08:05,-8.396415,-4.082155,2.225325,0.7949434,0.08059334,-0.10379445,9.597699928,0.805731699,crawl
10/07/2020, 15:08:05,-8.343773,-4.141976,2.2827528,0.7949434,0.08059334,-0.10379445,9.590905605,0.805731699,crawl
10/07/2020, 15:08:06,-7.8460655,-3.3810585,2.4837499,-1.0513767,-0.08669889,1.2833878,8.897264402,1.661322924,crawl
10/07/2020, 15:08:06,-7.9537425,-3.455236,2.4861426,-1.0513767,-0.08669889,1.2833878,9.021174012,1.661322924,crawl
10/07/2020, 15:08:06,-7.9537425,-3.455236,2.4861426,-1.0464922,-0.08425667,1.4140468,9.021174012,1.761185227,crawl
10/07/2020, 15:08:06,-8.015956,-3.5198421,2.5148566,-1.0464922,-0.08425667,1.4140468,9.108750833,1.761185227,crawl
10/07/2020, 15:08:06,-8.015956,-3.5198421,2.5148566,-1.0318389,-0.081814446,1.5337156,9.108750833,1.850315829,crawl
10/07/2020, 15:08:06,-8.073383,-3.6203406,2.495714,-1.0318389,-0.081814446,1.5337156,9.193202515,1.850315829,crawl
10/07/2020, 15:08:06,-8.073383,-3.6203406,2.495714,-0.99886894,-0.054950003,1.6387311,9.193202515,1.919947488,crawl
10/07/2020, 15:08:06,-8.135597,-3.694518,2.4765713,-0.99886894,-0.054950003,1.6387311,9.272044634,1.919947488,crawl
10/07/2020, 15:08:06,-8.135597,-3.694518,2.4765713,-0.9536878,-0.02198,1.7510734,9.272044634,1.994056526,crawl
10/07/2020, 15:08:06,-8.216953,-3.739982,2.4478576,-0.9536878,-0.02198,1.7510734,9.354025477,1.994056526,crawl
10/07/2020, 15:08:06,-8.216953,-3.739982,2.4478576,-0.90240115,0.023201112,1.8548678,9.354025477,2.062862269,crawl
10/07/2020, 15:08:06,-8.322237,-3.7998023,2.4119651,-0.90240115,0.023201112,1.8548678,9.461273819,2.062862269,crawl
10/07/2020, 15:08:06,-8.322237,-3.7998023,2.4119651,-0.85111445,0.059834447,1.95622,9.461273819,2.134191364,crawl
10/07/2020, 15:08:06,-8.4682,-3.871587,2.359323,-0.85111445,0.059834447,1.95622,9.605519142,2.134191364,crawl
10/07/2020, 15:08:06,-8.4682,-3.871587,2.359323,-0.79616445,0.10135223,2.053909,9.605519142,2.205151367,crawl
10/07/2020, 15:08:06,-8.6548395,-3.9194436,2.321038,-0.79616445,0.10135223,2.053909,9.780363115,2.205151367,crawl
10/07/2020, 15:08:06,-8.6548395,-3.9194436,2.321038,-0.7326667,0.14042778,2.1381657,9.780363115,2.26456906,crawl
10/07/2020, 15:08:06,-8.843872,-3.9696927,2.333002,-0.7326667,0.14042778,2.1381657,9.970728767,2.26456906,crawl
10/07/2020, 15:08:06,-8.843872,-3.9696927,2.333002,-0.67039,0.18316667,2.2138746,9.970728767,2.320390795,crawl
10/07/2020, 15:08:06,-9.013762,-4.0295134,2.359323,-0.67039,0.18316667,2.2138746,10.15141847,2.320390795,crawl
10/07/2020, 15:08:07,-7.8221374,-3.4863427,1.9190438,0.070824444,0.33214223,1.0684723,8.776283213,1.121145641,crawl
10/07/2020, 15:08:07,-7.7790666,-3.4456646,1.9286151,0.070824444,0.33214223,1.0684723,8.723877441,1.121145641,crawl
10/07/2020, 15:08:07,-7.7790666,-3.4456646,1.9286151,0.05372889,0.34191114,1.1966889,8.723877441,1.24573445,crawl
10/07/2020, 15:08:07,-7.757531,-3.4337006,1.8999012,0.05372889,0.34191114,1.1966889,8.693630641,1.24573445,crawl
10/07/2020, 15:08:07,-7.757531,-3.4337006,1.8999012,0.024422223,0.35534334,1.3175789,8.693630641,1.364873446,crawl
10/07/2020, 15:08:07,-7.783852,-3.426522,1.8735801,0.024422223,0.35534334,1.3175789,8.708599717,1.364873446,crawl
10/07/2020, 15:08:07,-7.783852,-3.426522,1.8735801,-0.015874445,0.3724389,1.4409112,8.708599717,1.488350681,crawl
10/07/2020, 15:08:07,-7.8484583,-3.4049866,1.9094725,-0.015874445,0.3724389,1.4409112,8.765746774,1.488350681,crawl
10/07/2020, 15:08:07,-7.8484583,-3.4049866,1.9094725,-0.070824444,0.37854445,1.559359,8.765746774,1.606210556,crawl
10/07/2020, 15:08:07,-8.04467,-3.3714871,1.9501505,-0.070824444,0.37854445,1.559359,8.937937658,1.606210556,crawl
10/07/2020, 15:08:07,-8.04467,-3.3714871,1.9501505,-0.14287001,0.36633334,1.6741434,8.937937658,1.719700029,crawl
10/07/2020, 15:08:07,-8.288737,-3.400201,2.0195422,-0.14287001,0.36633334,1.6741434,9.183849092,1.719700029,crawl
10/07/2020, 15:08:07,-8.288737,-3.400201,2.0195422,-0.21125223,0.34679556,1.79137,9.183849092,1.836818244,crawl
10/07/2020, 15:08:07,-8.592627,-3.4863427,2.0434706,-0.21125223,0.34679556,1.79137,9.495450952,1.836818244,crawl
10/07/2020, 15:08:07,-8.592627,-3.4863427,2.0434706,-0.26864445,0.3162678,1.9085968,9.495450952,1.953186301,crawl
10/07/2020, 15:08:07,-8.843872,-3.5700915,2.0315065,-0.26864445,0.3162678,1.9085968,9.751238138,1.953186301,crawl
10/07/2020, 15:08:07,-8.843872,-3.5700915,2.0315065,-0.31871,0.28574002,2.0062857,9.751238138,2.051439885,crawl
10/07/2020, 15:08:07,-9.004191,-3.656233,2.0410776,-0.31871,0.28574002,2.0062857,9.930231661,2.051439885,crawl
10/07/2020, 15:08:07,-9.004191,-3.656233,2.0410776,-0.35656446,0.25765446,2.11008,9.930231661,2.155449294,crawl
10/07/2020, 15:08:07,-9.0544405,-3.7208393,2.0482562,-0.35656446,0.25765446,2.11008,10.00114448,2.155449294,crawl
10/07/2020, 15:08:08,-9.29133,-3.3547373,1.8640088,0.14531223,-0.11600556,-1.6961234,10.05274144,1.706284675,crawl
10/07/2020, 15:08:08,-9.171689,-3.290131,1.861616,0.14531223,-0.11600556,-1.6961234,9.92020446,1.706284675,crawl
10/07/2020, 15:08:08,-9.171689,-3.290131,1.861616,0.048844445,-0.14775445,-1.61553,9.92020446,1.62300782,crawl
10/07/2020, 15:08:08,-9.06162,-3.2853456,1.8424734,0.048844445,-0.14775445,-1.61553,9.813315253,1.62300782,crawl
10/07/2020, 15:08:08,-9.06162,-3.2853456,1.8424734,-0.042738892,-0.17828223,-1.51662,9.813315253,1.527660798,crawl
10/07/2020, 15:08:08,-8.949157,-3.2614172,1.8281165,-0.042738892,-0.17828223,-1.51662,9.698776141,1.527660798,crawl
10/07/2020, 15:08:08,-8.949157,-3.2614172,1.8281165,-0.11844778,-0.20270446,-1.4213734,9.698776141,1.440632231,crawl
10/07/2020, 15:08:08,-8.805588,-3.2805598,1.7730815,-0.11844778,-0.20270446,-1.4213734,9.562649557,1.440632231,crawl
10/07/2020, 15:08:08,-8.805588,-3.2805598,1.7730815,-0.17828223,-0.21735778,-1.3163579,9.562649557,1.346041215,crawl
10/07/2020, 15:08:08,-8.690732,-3.3284163,1.7156538,-0.17828223,-0.21735778,-1.3163579,9.46312031,1.346041215,crawl
10/07/2020, 15:08:08,-8.690732,-3.3284163,1.7156538,-0.22590557,-0.2283478,-1.2064579,9.46312031,1.24848572,crawl
10/07/2020, 15:08:08,-8.537591,-3.3930225,1.6630118,-0.22590557,-0.2283478,-1.2064579,9.336416331,1.24848572,crawl
10/07/2020, 15:08:08,-8.537591,-3.3930225,1.6630118,-0.26009667,-0.23689556,-1.0965579,9.336416331,1.151611443,crawl
10/07/2020, 15:08:08,-8.427522,-3.4217365,1.6749759,-0.26009667,-0.23689556,-1.0965579,9.248618643,1.151611443,crawl
10/07/2020, 15:08:08,-8.427522,-3.4217365,1.6749759,-0.2820767,-0.23445335,-0.9854367,9.248618643,1.051485177,crawl
10/07/2020, 15:08:08,-8.298309,-3.4097722,1.6414764,-0.2820767,-0.23445335,-0.9854367,9.120467564,1.051485177,crawl
10/07/2020, 15:08:08,-8.298309,-3.4097722,1.6414764,-0.2845189,-0.22590557,-0.8730945,9.120467564,0.945662907,crawl
10/07/2020, 15:08:08,-8.178668,-3.4121652,1.6295122,-0.2845189,-0.22590557,-0.8730945,9.010482324,0.945662907,crawl
10/07/2020, 15:08:08,-8.178668,-3.4121652,1.6295122,-0.2820767,-0.22102112,-0.76441556,9.010482324,0.84424448,crawl
10/07/2020, 15:08:08,-8.02792,-3.4169507,1.6366907,-0.2820767,-0.22102112,-0.76441556,8.877038047,0.84424448,crawl
10/07/2020, 15:08:09,-10.5690975,-3.6203406,2.1104696,-0.38465002,-0.4383789,-2.6742334,11.36955453,2.737088996,crawl
10/07/2020, 15:08:09,-10.487741,-3.5964124,2.0386848,-0.38465002,-0.4383789,-2.6742334,11.27311578,2.737088996,crawl
10/07/2020, 15:08:09,-10.487741,-3.5964124,2.0386848,-0.4371578,-0.42250445,-2.6217256,11.27311578,2.691293717,crawl
10/07/2020, 15:08:09,-10.370493,-3.586841,1.9645073,-0.4371578,-0.42250445,-2.6217256,11.14772811,2.691293717,crawl
10/07/2020, 15:08:09,-10.370493,-3.586841,1.9645073,-0.46646446,-0.39686114,-2.559449,11.14772811,2.631704166,crawl
10/07/2020, 15:08:09,-10.229317,-3.6179478,1.9501505,-0.46646446,-0.39686114,-2.559449,11.02413506,2.631704166,crawl
10/07/2020, 15:08:09,-10.229317,-3.6179478,1.9501505,-0.47867557,-0.35778558,-2.4959512,11.02413506,2.566498217,crawl
10/07/2020, 15:08:09,-10.049855,-3.682554,1.9477576,-0.47867557,-0.35778558,-2.4959512,10.87908792,2.566498217,crawl
10/07/2020, 15:08:09,-10.049855,-3.682554,1.9477576,-0.4713489,-0.31138334,-2.4202423,10.87908792,2.485297209,crawl
10/07/2020, 15:08:09,-9.812965,-3.694518,1.9334008,-0.4713489,-0.31138334,-2.4202423,10.66216639,2.485297209,crawl
10/07/2020, 15:08:09,-9.812965,-3.694518,1.9334008,-0.44204223,-0.27230778,-2.3445334,10.66216639,2.401330867,crawl
10/07/2020, 15:08:09,-9.585648,-3.7328033,1.995614,-0.44204223,-0.27230778,-2.3445334,10.47859417,2.401330867,crawl
10/07/2020, 15:08:09,-9.585648,-3.7328033,1.995614,-0.40296668,-0.23323223,-2.2602768,10.47859417,2.307732784,crawl
10/07/2020, 15:08:09,-9.403793,-3.711268,2.091327,-0.40296668,-0.23323223,-2.2602768,10.32368574,2.307732784,crawl
10/07/2020, 15:08:09,-9.403793,-3.711268,2.091327,-0.36511225,-0.21491556,-2.1662512,10.32368574,2.207292422,crawl
10/07/2020, 15:08:09,-9.219545,-3.737589,2.1511476,-0.36511225,-0.21491556,-2.1662512,10.1782623,2.207292422,crawl
10/07/2020, 15:08:09,-9.219545,-3.737589,2.1511476,-0.3284789,-0.1965989,-2.0685623,10.1782623,2.103687092,crawl
10/07/2020, 15:08:09,-9.020942,-3.7280176,2.172683,-0.3284789,-0.1965989,-2.0685623,9.999802807,2.103687092,crawl
10/07/2020, 15:08:09,-9.020942,-3.7280176,2.172683,-0.2942878,-0.18072446,-1.9574412,9.999802807,1.987672693,crawl
10/07/2020, 15:08:09,-8.817552,-3.7160535,2.1296122,-0.2942878,-0.18072446,-1.9574412,9.802730135,1.987672693,crawl
10/07/2020, 15:08:10,-9.224331,-4.56072,2.5268207,0.7216767,0.004884445,-1.7498523,10.59590817,1.892834963,crawl
10/07/2020, 15:08:10,-9.370294,-4.5152564,2.5004997,0.7216767,0.004884445,-1.7498523,10.69777742,1.892834963,crawl
10/07/2020, 15:08:10,-9.370294,-4.5152564,2.5004997,0.75831,0.012211111,-1.8609734,10.69777742,2.009578323,crawl
10/07/2020, 15:08:10,-9.51147,-4.505685,2.4837499,0.75831,0.012211111,-1.8609734,10.81379988,2.009578323,crawl
10/07/2020, 15:08:10,-9.51147,-4.505685,2.4837499,0.80471224,0.019537779,-1.9696523,10.81379988,2.127786096,crawl
10/07/2020, 15:08:10,-9.68136,-4.546363,2.536392,0.80471224,0.019537779,-1.9696523,10.99233532,2.127786096,crawl
10/07/2020, 15:08:10,-9.68136,-4.546363,2.536392,0.8535567,0.034191113,-2.0710046,10.99233532,2.240265215,crawl
10/07/2020, 15:08:10,-9.789038,-4.56072,2.5746772,0.8535567,0.034191113,-2.0710046,11.10199931,2.240265215,crawl
10/07/2020, 15:08:10,-9.789038,-4.56072,2.5746772,0.92438114,0.05006556,-2.1699145,11.10199931,2.359134569,crawl
10/07/2020, 15:08:10,-9.923036,-4.625326,2.6249263,0.92438114,0.05006556,-2.1699145,11.25835318,2.359134569,crawl
10/07/2020, 15:08:10,-9.923036,-4.625326,2.6249263,1.020849,0.058613338,-2.2407389,11.25835318,2.463022302,crawl
10/07/2020, 15:08:10,-10.028319,-4.6612186,2.6751757,1.020849,0.058613338,-2.2407389,11.37764094,2.463022302,crawl
10/07/2020, 15:08:10,-10.028319,-4.6612186,2.6751757,1.130749,0.07937223,-2.3249958,11.37764094,2.586599793,crawl
10/07/2020, 15:08:10,-10.126426,-4.725825,2.7469604,1.130749,0.07937223,-2.3249958,11.50755014,2.586599793,crawl
10/07/2020, 15:08:10,-10.126426,-4.725825,2.7469604,1.2528601,0.09402556,-2.4007046,11.50755014,2.709590715,crawl
10/07/2020, 15:08:10,-10.241281,-4.74736,2.7637103,1.2528601,0.09402556,-2.4007046,11.62150382,2.709590715,crawl
10/07/2020, 15:08:10,-10.241281,-4.74736,2.7637103,1.3798556,0.106236674,-2.46176,11.62150382,2.824101682,crawl
10/07/2020, 15:08:10,-10.380065,-4.718646,2.737389,1.3798556,0.106236674,-2.46176,11.72623845,2.824101682,crawl
10/07/2020, 15:08:10,-10.380065,-4.718646,2.737389,1.4812078,0.11112112,-2.526479,11.72623845,2.930771359,crawl
10/07/2020, 15:08:10,-10.535598,-4.6803613,2.6703901,1.4812078,0.11112112,-2.526479,11.83366326,2.930771359,crawl
10/07/2020, 15:08:11,-8.161918,-4.5655055,2.7948167,-0.05372889,0.012211111,0.5922389,9.76072443,0.594796455,crawl
10/07/2020, 15:08:11,-8.161918,-4.5655055,2.7948167,-0.009768889,-0.015874445,0.48722336,9.76072443,0.487579767,crawl
10/07/2020, 15:08:11,-8.13799,-4.599005,2.8378878,-0.009768889,-0.015874445,0.48722336,9.768896417,0.487579767,crawl
10/07/2020, 15:08:11,-8.13799,-4.599005,2.8378878,0.028085556,-0.047623336,0.3834289,9.768896417,0.387394506,crawl
10/07/2020, 15:08:11,-8.123632,-4.65404,2.8570302,0.028085556,-0.047623336,0.3834289,9.788570487,0.387394506,crawl
10/07/2020, 15:08:11,-8.123632,-4.65404,2.8570302,0.057392225,-0.07448778,0.26986557,9.788570487,0.285779153,crawl
10/07/2020, 15:08:11,-8.1020975,-4.610969,2.9096723,0.057392225,-0.07448778,0.26986557,9.765818577,0.285779153,crawl
10/07/2020, 15:08:11,-8.1020975,-4.610969,2.9096723,0.08425667,-0.10379445,0.15996556,9.765818577,0.20847411,crawl
10/07/2020, 15:08:11,-8.109276,-4.642076,2.9168508,0.08425667,-0.10379445,0.15996556,9.788628231,0.20847411,crawl
10/07/2020, 15:08:11,-8.109276,-4.642076,2.9168508,0.09646778,-0.13676445,0.035412222,9.788628231,0.171068913,crawl
10/07/2020, 15:08:11,-8.13799,-4.599005,2.926422,0.09646778,-0.13676445,0.035412222,9.794982218,0.171068913,crawl
10/07/2020, 15:08:11,-8.13799,-4.599005,2.926422,0.10867889,-0.16851334,-0.08425667,9.794982218,0.217501805,crawl
10/07/2020, 15:08:11,-8.212168,-4.546363,2.8929226,0.10867889,-0.16851334,-0.08425667,9.822327412,0.217501805,crawl
10/07/2020, 15:08:11,-8.212168,-4.546363,2.8929226,0.11234222,-0.20148334,-0.21247335,9.822327412,0.313625947,crawl
10/07/2020, 15:08:11,-8.23131,-4.4674,2.861816,0.11234222,-0.20148334,-0.21247335,9.792962593,0.313625947,crawl
10/07/2020, 15:08:11,-8.23131,-4.4674,2.861816,0.102573335,-0.23689556,-0.33580557,9.792962593,0.423563659,crawl
10/07/2020, 15:08:11,-8.271988,-4.4243293,2.806781,0.102573335,-0.23689556,-0.33580557,9.791756407,0.423563659,crawl
10/07/2020, 15:08:11,-8.271988,-4.4243293,2.806781,0.089141116,-0.27108666,-0.46035892,9.791756407,0.541631286,crawl
