DATE,TIME,ax,ay,az,gx,gy,gz,ma,mg,label
16/03/2021, 14:44:03,1.1663746,5.7696023,8.214917,0.06893691,0.04564885,0.002214783,10.10611719,0.082710458,crawl
16/03/2021, 14:44:03,1.1663746,5.7696023,8.214917,0.0848194,0.04931404,-0.005115598,10.10611719,0.098246498,crawl
16/03/2021, 14:44:03,1.1496094,5.977969,8.178992,0.0848194,0.04931404,-0.005115598,10.19576539,0.098246498,crawl
16/03/2021, 14:44:03,1.1496094,5.977969,8.178992,0.06404999,0.05420096,-0.001450407,10.19576539,0.083918107,crawl
16/03/2021, 14:44:03,1.1352394,6.08814,8.155042,0.06404999,0.05420096,-0.001450407,10.24006456,0.083918107,crawl
16/03/2021, 14:44:03,1.1352394,6.08814,8.155042,0.011515599,0.05297923,0.002214783,10.24006456,0.054261526,crawl
16/03/2021, 14:44:03,1.092129,6.10251,8.052056,0.011515599,0.05297923,0.002214783,10.16213484,0.054261526,crawl
16/03/2021, 14:44:03,1.092129,6.10251,8.052056,-0.045905713,0.04076193,0.004658243,10.16213484,0.061567593,crawl
16/03/2021, 14:44:03,0.9915381,6.0091043,8.054451,-0.045905713,0.04076193,0.004658243,10.09785435,0.061567593,crawl
16/03/2021, 14:44:03,0.9915381,6.0091043,8.054451,-0.09721838,0.016327327,0.010766893,10.09785435,0.099166128,crawl
16/03/2021, 14:44:03,0.9508228,5.736072,7.9897857,-0.09721838,0.016327327,0.010766893,9.881460506,0.099166128,crawl
16/03/2021, 14:44:03,0.9508228,5.736072,7.9897857,-0.113100864,-0.009329004,0.025427654,9.881460506,0.116298759,crawl
16/03/2021, 14:44:03,0.91010743,5.50136,7.9921803,-0.113100864,-0.009329004,0.025427654,9.745163079,0.116298759,crawl
16/03/2021, 14:44:03,0.91010743,5.50136,7.9921803,0.123914756,-0.16571043,0.06940994,9.745163079,0.218248835,crawl
16/03/2021, 14:44:03,1.1232642,5.4103494,8.2197075,0.123914756,-0.16571043,0.06940994,9.904402756,0.218248835,crawl
16/03/2021, 14:44:03,1.1232642,5.4103494,8.2197075,-0.28292134,-0.061863393,0.12927471,9.904402756,0.317149046,crawl
16/03/2021, 14:44:03,1.707649,5.7312818,7.599397,-0.28292134,-0.061863393,0.12927471,9.670289199,0.317149046,crawl
16/03/2021, 14:44:03,1.707649,5.7312818,7.599397,-0.3745511,0.06275307,0.123166054,9.670289199,0.399244714,crawl
16/03/2021, 14:44:03,0.78556645,5.367239,12.913946,-0.3745511,0.06275307,0.123166054,14.00694022,0.399244714,crawl
16/03/2021, 14:44:03,0.78556645,5.367239,12.913946,-0.18640468,0.08107901,0.15004411,14.00694022,0.25265341,crawl
16/03/2021, 14:44:04,-0.46463382,-7.074888,5.601951,-5.7623806,0.44393283,2.3442714,9.036137694,6.236803271,crawl
16/03/2021, 14:44:04,-0.46463382,-7.074888,5.601951,-5.515591,0.25700814,2.2770762,9.036137694,5.972677379,crawl
16/03/2021, 14:44:04,-0.4023633,-5.999524,5.2762284,-5.515591,0.25700814,2.2770762,7.99967326,5.972677379,crawl
16/03/2021, 14:44:04,-0.4023633,-5.999524,5.2762284,-5.3005667,0.12261783,2.0522778,7.99967326,5.685322011,crawl
16/03/2021, 14:44:04,-2.5914114,-1.8154249,6.1552005,-5.3005667,0.12261783,2.0522778,6.920814504,5.685322011,crawl
16/03/2021, 14:44:04,-2.5914114,-1.8154249,6.1552005,-5.4337354,-0.044759173,1.8470271,6.920814504,5.739250163,crawl
16/03/2021, 14:44:04,0.5460645,-10.312955,6.356382,-5.4337354,-0.044759173,1.8470271,12.12678094,5.739250163,crawl
16/03/2021, 14:44:04,0.5460645,-10.312955,6.356382,-5.3702054,-0.13272373,1.8568009,12.12678094,5.683698733,crawl
16/03/2021, 14:44:04,-1.1376343,-6.878496,5.374424,-5.3702054,-0.13272373,1.8568009,8.802974181,5.683698733,crawl
16/03/2021, 14:44:04,-1.1376343,-6.878496,5.374424,-5.1258593,-0.1522714,1.9068918,8.802974181,5.471184165,crawl
16/03/2021, 14:44:04,-0.7879615,-9.4435625,4.727769,-5.1258593,-0.1522714,1.9068918,10.59025755,5.471184165,crawl
16/03/2021, 14:44:04,-0.7879615,-9.4435625,4.727769,-4.8754044,-0.17181909,1.9191092,10.59025755,5.242334372,crawl
16/03/2021, 14:44:04,-0.83586186,-10.164463,3.3266823,-4.8754044,-0.17181909,1.9191092,10.72761806,5.242334372,crawl
16/03/2021, 14:44:04,-0.83586186,-10.164463,3.3266823,-4.601737,-0.17670602,1.9630915,10.72761806,5.006089976,crawl
16/03/2021, 14:44:04,-0.855022,-9.850716,3.9853127,-4.601737,-0.17670602,1.9630915,10.66069315,5.006089976,crawl
16/03/2021, 14:44:04,-0.855022,-9.850716,3.9853127,-4.2975264,-0.17548428,1.9960781,10.66069315,4.741714401,crawl
16/03/2021, 14:44:04,-1.3603711,-9.436378,3.187771,-4.2975264,-0.17548428,1.9960781,10.05274663,4.741714401,crawl
16/03/2021, 14:44:04,-1.3603711,-9.436378,3.187771,-4.0605106,-0.17670602,2.0229564,10.05274663,4.539969616,crawl
16/03/2021, 14:44:04,-1.6453785,-9.1130495,2.9961696,-4.0605106,-0.17670602,2.0229564,9.733035174,4.539969616,crawl
16/03/2021, 14:44:04,-1.6453785,-9.1130495,2.9961696,-4.0201936,-0.21213618,2.0510561,9.733035174,4.518162178,crawl
16/03/2021, 14:44:05,-5.621111,-2.3590944,4.9505057,1.1770461,-0.9402873,-0.6489673,7.853007147,1.640346369,crawl
16/03/2021, 14:44:05,-5.5516553,-2.1028273,5.0606766,1.1770461,-0.9402873,-0.6489673,7.80084653,1.640346369,crawl
16/03/2021, 14:44:05,-5.5516553,-2.1028273,5.0606766,0.96813023,-0.92929167,-0.681954,7.80084653,1.505297458,crawl
16/03/2021, 14:44:05,-5.5684204,-2.2489235,5.144502,0.96813023,-0.92929167,-0.681954,7.907646012,1.505297458,crawl
16/03/2021, 14:44:05,-5.5684204,-2.2489235,5.144502,0.6785802,-0.9341786,-0.7149407,7.907646012,1.358050442,crawl
16/03/2021, 14:44:05,-5.4199295,-2.1459377,5.2283278,0.6785802,-0.9341786,-0.7149407,7.830459465,1.358050442,crawl
16/03/2021, 14:44:05,-5.4199295,-2.1459377,5.2283278,0.43789938,-0.9696088,-0.75159264,7.830459465,1.302608365,crawl
16/03/2021, 14:44:05,-5.3289185,-2.2968237,5.585186,0.43789938,-0.9696088,-0.75159264,8.054009804,1.302608365,crawl
16/03/2021, 14:44:05,-5.3289185,-2.2968237,5.585186,0.2717441,-1.0245867,-0.77236205,8.054009804,1.311550936,crawl
16/03/2021, 14:44:05,-5.245093,-2.6297317,5.8342676,0.2717441,-1.0245867,-0.77236205,8.274368036,1.311550936,crawl
16/03/2021, 14:44:05,-5.245093,-2.6297317,5.8342676,0.1422407,-1.0710124,-0.7503709,8.274368036,1.315430138,crawl
16/03/2021, 14:44:05,-5.142107,-2.7494826,6.3132715,0.1422407,-1.0710124,-0.7503709,8.594086139,1.315430138,crawl
16/03/2021, 14:44:05,-5.142107,-2.7494826,6.3132715,0.116584376,-1.1039991,-0.713719,8.594086139,1.319773025,crawl
16/03/2021, 14:44:05,-5.0271463,-3.027305,6.5360084,0.116584376,-1.1039991,-0.713719,8.783859087,1.319773025,crawl
16/03/2021, 14:44:05,-5.0271463,-3.027305,6.5360084,0.13124514,-1.0868949,-0.70638865,8.783859087,1.302900868,crawl
16/03/2021, 14:44:05,-5.1061816,-3.4679885,6.792276,0.13124514,-1.0868949,-0.70638865,9.177965292,1.302900868,crawl
16/03/2021, 14:44:05,-5.1061816,-3.4679885,6.792276,0.16423185,-1.0551299,-0.69417137,9.177965292,1.273634589,crawl
16/03/2021, 14:44:05,-5.2929935,-3.6260598,6.8018556,0.16423185,-1.0551299,-0.69417137,9.350365193,1.273634589,crawl
16/03/2021, 14:44:05,-5.2929935,-3.6260598,6.8018556,0.21798797,-1.0465778,-0.6782889,9.350365193,1.266064639,crawl
16/03/2021, 14:44:05,-5.3097587,-3.647615,6.701265,0.21798797,-1.0465778,-0.6782889,9.295460324,1.266064639,crawl
16/03/2021, 14:44:06,-0.47181886,-8.076006,4.505032,-0.20595235,0.27411234,-0.8346703,9.259578759,0.902346089,crawl
16/03/2021, 14:44:06,-0.47181886,-8.076006,4.505032,-0.2560433,0.22402143,-0.8102357,9.259578759,0.87876369,crawl
16/03/2021, 14:44:06,-0.44786867,-8.145462,4.591253,-0.2560433,0.22402143,-0.8102357,9.361022404,0.87876369,crawl
16/03/2021, 14:44:06,-0.44786867,-8.145462,4.591253,-0.2401608,0.19469991,-0.77114034,9.361022404,0.830808451,crawl
16/03/2021, 14:44:06,-0.42870852,-8.334668,4.89542,-0.2401608,0.19469991,-0.77114034,9.675516629,0.830808451,crawl
16/03/2021, 14:44:06,-0.42870852,-8.334668,4.89542,-0.17907429,0.18370435,-0.70516694,9.675516629,0.750383432,crawl
16/03/2021, 14:44:06,-0.5029541,-8.401729,5.0487013,-0.17907429,0.18370435,-0.70516694,9.814855654,0.750383432,crawl
16/03/2021, 14:44:06,-0.5029541,-8.401729,5.0487013,-0.13997893,0.19225645,-0.63308483,9.814855654,0.676278826,crawl
16/03/2021, 14:44:06,-0.4239185,-8.3179035,5.094207,-0.13997893,0.19225645,-0.63308483,9.763102419,0.676278826,crawl
16/03/2021, 14:44:06,-0.4239185,-8.3179035,5.094207,-0.08377934,0.2105824,-0.5585593,9.763102419,0.602787208,crawl
16/03/2021, 14:44:06,-0.30416748,-8.274793,5.4055595,-0.08377934,0.2105824,-0.5585593,9.888618991,0.602787208,crawl
16/03/2021, 14:44:06,-0.30416748,-8.274793,5.4055595,0.10803227,0.23013009,-0.50235975,9.888618991,0.563024109,crawl
16/03/2021, 14:44:06,-0.09101075,-8.394544,5.6522465,0.10803227,0.23013009,-0.50235975,10.12050079,0.563024109,crawl
16/03/2021, 14:44:06,-0.09101075,-8.394544,5.6522465,0.45011666,0.2594516,-0.49136415,10.12050079,0.715093611,crawl
16/03/2021, 14:44:06,-0.059875492,-8.538245,5.7648125,0.45011666,0.2594516,-0.49136415,10.30234337,0.715093611,crawl
16/03/2021, 14:44:06,-0.059875492,-8.538245,5.7648125,0.79830974,0.32175982,-0.46326438,10.30234337,0.977466987,crawl
16/03/2021, 14:44:06,-0.102985844,-8.600515,5.4342995,0.79830974,0.32175982,-0.46326438,10.17403958,0.977466987,crawl
16/03/2021, 14:44:06,-0.102985844,-8.600515,5.4342995,1.0927467,0.42927206,-0.37407807,10.17403958,1.232194921,crawl
16/03/2021, 14:44:06,-0.16765137,-8.389753,5.230723,1.0927467,0.42927206,-0.37407807,9.888201566,1.232194921,crawl
16/03/2021, 14:44:06,-0.16765137,-8.389753,5.230723,1.3871837,0.53434086,-0.25801373,9.888201566,1.508764315,crawl
16/03/2021, 14:44:07,0.5604346,-9.532178,1.3292359,0.34382617,0.03831847,-0.45959917,9.640714238,0.575253108,crawl
16/03/2021, 14:44:07,0.5604346,-9.532178,1.3292359,0.32427847,0.04442712,-0.42905593,9.640714238,0.539647374,crawl
16/03/2021, 14:44:07,0.48618898,-9.589659,1.4322218,0.32427847,0.04442712,-0.42905593,9.708202389,0.539647374,crawl
16/03/2021, 14:44:07,0.48618898,-9.589659,1.4322218,0.32427847,0.03465328,-0.39362577,9.708202389,0.511173769,crawl
16/03/2021, 14:44:07,0.41194338,-9.604029,1.4897022,0.32427847,0.03465328,-0.39362577,9.727603886,0.511173769,crawl
16/03/2021, 14:44:07,0.41194338,-9.604029,1.4897022,0.33893925,0.010218676,-0.35941732,9.727603886,0.494130596,crawl
16/03/2021, 14:44:07,0.41194338,-9.7142,1.5639478,0.33893925,0.010218676,-0.35941732,9.847909021,0.494130596,crawl
16/03/2021, 14:44:07,0.41194338,-9.7142,1.5639478,0.35848692,-0.020324575,-0.33376098,9.847909021,0.490226835,crawl
16/03/2021, 14:44:07,0.38320315,-9.821976,1.6357985,0.35848692,-0.020324575,-0.33376098,9.964631857,0.490226835,crawl
16/03/2021, 14:44:07,0.38320315,-9.821976,1.6357985,0.36703902,-0.053311285,-0.31176984,9.964631857,0.484520561,crawl
16/03/2021, 14:44:07,0.43349856,-9.857901,1.6908839,0.36703902,-0.053311285,-0.31176984,10.01125436,0.484520561,crawl
16/03/2021, 14:44:07,0.43349856,-9.857901,1.6908839,0.3621521,-0.08751973,-0.27878314,10.01125436,0.465332018,crawl
16/03/2021, 14:44:07,0.5005591,-9.860296,1.6789087,0.3621521,-0.08751973,-0.27878314,10.01472596,0.465332018,crawl
16/03/2021, 14:44:07,0.5005591,-9.860296,1.6789087,0.35604346,-0.11684125,-0.24090949,10.01472596,0.445484234,crawl
16/03/2021, 14:44:07,0.5963599,-9.879456,1.7244141,0.35604346,-0.11684125,-0.24090949,10.04653629,0.445484234,crawl
16/03/2021, 14:44:07,0.5963599,-9.879456,1.7244141,0.35970867,-0.13883238,-0.20792277,10.04653629,0.438060078,crawl
16/03/2021, 14:44:07,0.62989014,-9.910591,1.705254,0.35970867,-0.13883238,-0.20792277,10.07593515,0.438060078,crawl
16/03/2021, 14:44:07,0.62989014,-9.910591,1.705254,0.398804,-0.16448872,-0.18959683,10.07593515,0.471219837,crawl
16/03/2021, 14:44:07,0.6322852,-10.032737,1.8681153,0.398804,-0.16448872,-0.18959683,10.22474677,0.471219837,crawl
16/03/2021, 14:44:07,0.6322852,-10.032737,1.8681153,0.5038728,-0.19747542,-0.1883751,10.22474677,0.573035365,crawl
16/03/2021, 14:44:08,-0.040715333,4.169729,7.580237,-0.6323361,-1.2799283,-0.21158797,8.651490695,1.443203003,crawl
16/03/2021, 14:44:08,0.23710695,4.1793094,7.321575,-0.6323361,-1.2799283,-0.21158797,8.433760098,1.443203003,crawl
16/03/2021, 14:44:08,0.23710695,4.1793094,7.321575,-0.6909791,-1.2151766,-0.24090949,8.433760098,1.418500496,crawl
16/03/2021, 14:44:08,0.3065625,4.0595584,7.340735,-0.6909791,-1.2151766,-0.24090949,8.39406842,1.418500496,crawl
16/03/2021, 14:44:08,0.3065625,4.0595584,7.340735,-0.6763184,-1.1565335,-0.27145275,8.39406842,1.366990445,crawl
16/03/2021, 14:44:08,0.37362307,3.891907,7.436536,-0.6763184,-1.1565335,-0.27145275,8.40170217,1.366990445,crawl
16/03/2021, 14:44:08,0.37362307,3.891907,7.436536,-0.65066206,-1.1027774,-0.31665677,8.40170217,1.318996035,crawl
16/03/2021, 14:44:08,0.4742139,3.7098854,7.326365,-0.65066206,-1.1027774,-0.31665677,8.225797969,1.318996035,crawl
16/03/2021, 14:44:08,0.4742139,3.7098854,7.326365,-0.6494403,-1.0477996,-0.3875171,8.225797969,1.292217537,crawl
16/03/2021, 14:44:08,0.64186525,3.66438,7.34313,-0.6494403,-1.0477996,-0.3875171,8.231721094,1.292217537,crawl
16/03/2021, 14:44:08,0.64186525,3.66438,7.34313,-0.6567707,-0.99770856,-0.4730382,8.231721094,1.284731592,crawl
16/03/2021, 14:44:08,0.83586186,3.6907253,7.460486,-0.6567707,-0.99770856,-0.4730382,8.365343321,1.284731592,crawl
16/03/2021, 14:44:08,0.83586186,3.6907253,7.460486,-0.6567707,-0.9525046,-0.55245066,8.365343321,1.282113277,crawl
16/03/2021, 14:44:08,1.1160791,3.755391,7.549102,-0.6567707,-0.9525046,-0.55245066,8.505147362,1.282113277,crawl
16/03/2021, 14:44:08,1.1160791,3.755391,7.549102,-0.6543272,-0.89752674,-0.6123154,8.505147362,1.268317201,crawl
16/03/2021, 14:44:08,1.341211,3.772156,7.6257424,-0.6543272,-0.89752674,-0.6123154,8.612778612,1.268317201,crawl
16/03/2021, 14:44:08,1.341211,3.772156,7.6257424,-0.6763184,-0.819336,-0.6514108,8.612778612,1.246215919,crawl
16/03/2021, 14:44:08,1.5974782,3.9302273,7.6257424,-0.6763184,-0.819336,-0.6514108,8.726429431,1.246215919,crawl
16/03/2021, 14:44:08,1.5974782,3.9302273,7.6257424,-0.7215224,-0.7338149,-0.6770671,8.726429431,1.23186798,crawl
16/03/2021, 14:44:08,1.7771046,3.9709425,7.838899,-0.7215224,-0.7338149,-0.6770671,8.965200767,1.23186798,crawl
16/03/2021, 14:44:09,0.977168,0.9244776,10.200389,-0.70319647,0.07863556,-0.05764999,10.28870497,0.70992418,crawl
16/03/2021, 14:44:09,0.977168,0.9244776,10.200389,-0.7728351,0.08596594,-0.06131518,10.28870497,0.780015223,crawl
16/03/2021, 14:44:09,0.9627979,0.7232959,10.399176,-0.7728351,0.08596594,-0.06131518,10.4686671,0.780015223,crawl
16/03/2021, 14:44:09,0.9627979,0.7232959,10.399176,-0.8314781,0.10673535,-0.091858424,10.4686671,0.843318603,crawl
16/03/2021, 14:44:09,0.9627979,0.7232959,10.399176,-0.87423867,0.1409438,-0.12973206,10.4686671,0.894979783,crawl
16/03/2021, 14:44:09,0.9388477,0.45026368,10.571617,-0.87423867,0.1409438,-0.12973206,10.62277088,0.894979783,crawl
16/03/2021, 14:44:09,0.9699829,0.20118165,10.497371,-0.87423867,0.1409438,-0.12973206,10.54400934,0.894979783,crawl
16/03/2021, 14:44:09,0.9699829,0.20118165,10.497371,-0.89867324,0.16904359,-0.15905358,10.54400934,0.928163434,crawl
16/03/2021, 14:44:09,0.9987232,-0.004790039,10.212363,-0.89867324,0.16904359,-0.15905358,10.26108347,0.928163434,crawl
16/03/2021, 14:44:09,0.9987232,-0.004790039,10.212363,-0.9060036,0.19347818,-0.1969272,10.26108347,0.947130743,crawl
16/03/2021, 14:44:09,1.089734,-0.07185059,9.872271,-0.9060036,0.19347818,-0.1969272,9.932492592,0.947130743,crawl
16/03/2021, 14:44:09,1.089734,-0.07185059,9.872271,-0.88401246,0.2142476,-0.24579641,9.932492592,0.94222924,crawl
16/03/2021, 14:44:09,1.0442286,-0.05269043,9.718989,-0.88401246,0.2142476,-0.24579641,9.775067466,0.94222924,crawl
16/03/2021, 14:44:09,1.0442286,-0.05269043,9.718989,-0.8473606,0.23746046,-0.28733525,9.775067466,0.925726213,crawl
16/03/2021, 14:44:09,1.0442286,0.026345216,9.685459,-0.8473606,0.23746046,-0.28733525,9.741623378,0.925726213,crawl
16/03/2021, 14:44:09,1.0442286,0.026345216,9.685459,-0.8644648,0.2472343,-0.3300958,9.741623378,0.957803455,crawl
16/03/2021, 14:44:09,1.0585986,-0.05748047,9.697434,-0.8644648,0.2472343,-0.3300958,9.755212428,0.957803455,crawl
16/03/2021, 14:44:09,1.0585986,-0.05748047,9.697434,-0.9279948,0.2472343,-0.378965,9.755212428,1.032430912,crawl
16/03/2021, 14:44:09,1.0753639,-0.17483643,9.683064,-0.9279948,0.2472343,-0.378965,9.744163001,1.032430912,crawl
16/03/2021, 14:44:09,1.0753639,-0.17483643,9.683064,-1.0147376,0.24967776,-0.4082865,9.744163001,1.121931045,crawl
16/03/2021, 14:44:10,0.60594,-0.74724615,9.359736,-0.96464664,-0.009329004,-0.072310746,9.409049173,0.967398061,crawl
16/03/2021, 14:44:10,0.6394702,-0.76161623,9.307046,-0.96464664,-0.009329004,-0.072310746,9.360025935,0.967398061,crawl
16/03/2021, 14:44:10,0.6394702,-0.76161623,9.307046,-1.1039239,-0.027654955,-0.05031961,9.360025935,1.105416154,crawl
16/03/2021, 14:44:10,0.61073,-0.7951465,9.261541,-1.1039239,-0.027654955,-0.05031961,9.315653364,1.105416154,crawl
16/03/2021, 14:44:10,0.61073,-0.7951465,9.261541,-1.2273186,-0.059419934,-0.03321539,9.315653364,1.229205046,crawl
16/03/2021, 14:44:10,0.6346802,-1.0035132,9.433982,-1.2273186,-0.059419934,-0.03321539,9.508410601,1.229205046,crawl
16/03/2021, 14:44:10,0.6346802,-1.0035132,9.433982,-1.3030659,-0.099737026,-0.024663277,9.508410601,1.307109973,crawl
16/03/2021, 14:44:10,0.60594,-1.3196558,9.520203,-1.3030659,-0.099737026,-0.024663277,9.63031219,1.307109973,crawl
16/03/2021, 14:44:10,0.60594,-1.3196558,9.520203,-1.3458264,-0.14249757,-0.017332897,9.63031219,1.353460251,crawl
16/03/2021, 14:44:10,0.6179151,-1.5663428,9.493857,-1.3458264,-0.14249757,-0.017332897,9.642021414,1.353460251,crawl
16/03/2021, 14:44:10,0.6179151,-1.5663428,9.493857,-1.351935,-0.17548428,-0.007559057,9.642021414,1.363297545,crawl
16/03/2021, 14:44:10,0.6346802,-1.7675245,9.431587,-1.351935,-0.17548428,-0.007559057,9.616745772,1.363297545,crawl
16/03/2021, 14:44:10,0.6346802,-1.7675245,9.431587,-1.3348309,-0.1803712,0.009545163,9.616745772,1.346996049,crawl
16/03/2021, 14:44:10,0.6562354,-1.9639161,9.273516,-1.3348309,-0.1803712,0.009545163,9.501879007,1.346996049,crawl
16/03/2021, 14:44:10,0.6562354,-1.9639161,9.273516,-1.3091745,-0.15838006,0.04008841,9.501879007,1.319329108,crawl
16/03/2021, 14:44:10,0.68737066,-1.9902613,9.175321,-1.3091745,-0.15838006,0.04008841,9.41382638,1.319329108,crawl
16/03/2021, 14:44:10,0.68737066,-1.9902613,9.175321,-1.2981789,-0.12539336,0.07674032,9.41382638,1.306476581,crawl
16/03/2021, 14:44:10,0.7089258,-2.0285816,9.050779,-1.2981789,-0.12539336,0.07674032,9.302382806,1.306476581,crawl
16/03/2021, 14:44:10,0.7089258,-2.0285816,9.050779,-1.3299439,-0.085076265,0.117057405,9.302382806,1.337793397,crawl
16/03/2021, 14:44:10,0.72569096,-1.947151,8.840017,-1.3299439,-0.085076265,0.117057405,9.080965278,1.337793397,crawl
16/03/2021, 14:44:11,2.3686745,-6.7755103,5.9875493,-0.2206131,0.57099277,-0.5255726,9.347133551,0.806801983,crawl
16/03/2021, 14:44:11,2.3878345,-6.8689165,6.1575956,-0.2206131,0.57099277,-0.5255726,9.52889038,0.806801983,crawl
16/03/2021, 14:44:11,2.3878345,-6.8689165,6.1575956,-0.2401608,0.5783232,-0.53168124,9.52889038,0.821474196,crawl
16/03/2021, 14:44:11,2.327959,-7.094048,6.2749515,-0.2401608,0.5783232,-0.53168124,9.752944506,0.821474196,crawl
16/03/2021, 14:44:11,2.327959,-7.094048,6.2749515,-0.22550003,0.5795449,-0.53901166,9.752944506,0.822955724,crawl
16/03/2021, 14:44:11,2.2608986,-7.321575,6.2845316,-0.22550003,0.5795449,-0.53901166,9.910220112,0.822955724,crawl
16/03/2021, 14:44:11,2.2608986,-7.321575,6.2845316,-0.19006985,0.56610584,-0.55611587,9.910220112,0.816006881,crawl
16/03/2021, 14:44:11,2.198628,-7.5323367,6.2031007,-0.19006985,0.56610584,-0.55611587,10.00242567,0.816006881,crawl
16/03/2021, 14:44:11,2.198628,-7.5323367,6.2031007,-0.13997893,0.53800607,-0.5768853,10.00242567,0.80114996,crawl
16/03/2021, 14:44:11,2.074087,-7.676038,6.128855,-0.13997893,0.53800607,-0.5768853,10.03923598,0.80114996,crawl
16/03/2021, 14:44:11,2.074087,-7.676038,6.128855,-0.08744454,0.5062411,-0.5976547,10.03923598,0.788110222,crawl
16/03/2021, 14:44:11,2.059717,-7.790999,6.167176,-0.08744454,0.5062411,-0.5976547,10.14771675,0.788110222,crawl
16/03/2021, 14:44:11,2.059717,-7.790999,6.167176,-0.021471113,0.48302817,-0.61720234,10.14771675,0.784038236,crawl
16/03/2021, 14:44:11,1.9255958,-7.8436894,6.241421,-0.021471113,0.48302817,-0.61720234,10.20718972,0.784038236,crawl
16/03/2021, 14:44:11,1.9255958,-7.8436894,6.241421,0.04694577,0.46836743,-0.63308483,10.20718972,0.788903263,crawl
16/03/2021, 14:44:11,1.9351759,-7.8748245,6.2893214,0.04694577,0.46836743,-0.63308483,10.26222836,0.788903263,crawl
16/03/2021, 14:44:11,1.9351759,-7.8748245,6.2893214,0.109253995,0.45981532,-0.6391935,10.26222836,0.79494331,crawl
16/03/2021, 14:44:11,1.9758912,-7.8197393,6.310877,0.109253995,0.45981532,-0.6391935,10.24107593,0.79494331,crawl
16/03/2021, 14:44:11,1.9758912,-7.8197393,6.310877,0.16667531,0.44148937,-0.64163697,10.24107593,0.796486988,crawl
16/03/2021, 14:44:11,2.0381618,-7.6425076,6.219866,0.16667531,0.44148937,-0.64163697,10.06224406,0.796486988,crawl
16/03/2021, 14:44:12,0.66342044,1.575923,10.37283,2.1128912,1.4640774,1.5550337,10.51281457,3.004323795,crawl
16/03/2021, 14:44:12,0.3065625,2.083667,9.927357,2.1128912,1.4640774,1.5550337,10.14830332,3.004323795,crawl
16/03/2021, 14:44:12,0.3065625,2.083667,9.927357,2.0664654,1.3638955,1.6271157,10.14830332,2.962768262,crawl
16/03/2021, 14:44:12,0.62989014,2.7662477,9.369317,2.0664654,1.3638955,1.6271157,9.789432582,2.962768262,crawl
16/03/2021, 14:44:12,0.62989014,2.7662477,9.369317,1.8917581,1.2930351,1.6527721,9.789432582,2.825304242,crawl
16/03/2021, 14:44:12,0.96758795,3.4584084,9.060359,1.8917581,1.2930351,1.6527721,9.746123333,2.825304242,crawl
16/03/2021, 14:44:12,0.96758795,3.4584084,9.060359,1.6498556,1.2600485,1.6723198,9.746123333,2.665783037,crawl
16/03/2021, 14:44:12,1.336421,3.903882,8.907078,1.6498556,1.2600485,1.6723198,9.816432689,2.665783037,crawl
16/03/2021, 14:44:12,1.336421,3.903882,8.907078,1.3395362,1.2771527,1.729741,9.816432689,2.533274554,crawl
16/03/2021, 14:44:12,1.3268409,3.908672,8.720266,1.3395362,1.2771527,1.729741,9.64786346,2.533274554,crawl
16/03/2021, 14:44:12,1.3268409,3.908672,8.720266,0.9913431,1.3516783,1.8470271,9.64786346,2.494254232,crawl
16/03/2021, 14:44:12,1.1112891,4.023633,8.452024,0.9913431,1.3516783,1.8470271,9.42662737,2.494254232,crawl
16/03/2021, 14:44:12,0.6610254,4.0882983,8.1071415,0.9913431,1.3516783,1.8470271,9.103674036,2.494254232,crawl
16/03/2021, 14:44:12,0.6610254,4.0882983,8.1071415,0.6981279,1.4872903,2.0131824,9.103674036,2.598522332,crawl
16/03/2021, 14:44:12,0.6610254,4.0882983,8.1071415,0.5063163,1.6754366,2.1744509,9.103674036,2.79135821,crawl
16/03/2021, 14:44:12,-0.15328126,4.277505,8.047266,0.5063163,1.6754366,2.1744509,9.114770083,2.79135821,crawl
16/03/2021, 14:44:12,-0.15328126,4.277505,8.047266,0.42079514,1.8342615,2.2917368,9.114770083,2.965407508,crawl
16/03/2021, 14:44:12,-0.4023633,4.375701,8.377779,0.42079514,1.8342615,2.2917368,9.460223894,2.965407508,crawl
16/03/2021, 14:44:12,-0.4023633,4.375701,8.377779,0.398804,1.9491042,2.3320541,9.460223894,3.065375717,crawl
16/03/2021, 14:44:12,-0.8909473,4.1314087,9.0076685,0.398804,1.9491042,2.3320541,9.949895304,3.065375717,crawl
16/03/2021, 14:44:13,-5.4295096,-0.91729254,6.4138627,-0.21083927,-0.5639944,-2.1455865,8.453320964,2.228471287,crawl
16/03/2021, 14:44:13,-5.0415163,-1.6381935,6.4114676,-0.21083927,-0.5639944,-2.1455865,8.31910336,2.228471287,crawl
16/03/2021, 14:44:13,-5.0415163,-1.6381935,6.4114676,-0.113100864,-0.27077925,-2.2164469,8.31910336,2.235788444,crawl
16/03/2021, 14:44:13,-4.9385304,-2.2656887,6.05461,-0.113100864,-0.27077925,-2.2164469,8.135153814,2.235788444,crawl
16/03/2021, 14:44:13,-4.9385304,-2.2656887,6.05461,-0.04101879,-0.056976475,-2.2799768,8.135153814,2.28105749,crawl
16/03/2021, 14:44:13,-5.592371,-2.9051588,5.9180937,-0.04101879,-0.056976475,-2.2799768,8.645136985,2.28105749,crawl
16/03/2021, 14:44:13,-5.592371,-2.9051588,5.9180937,0.03106328,0.039540198,-2.2763116,8.645136985,2.27686693,crawl
16/03/2021, 14:44:13,-6.11688,-3.3889527,5.9085135,0.03106328,0.039540198,-2.2763116,9.154875922,2.27686693,crawl
16/03/2021, 14:44:13,-6.11688,-3.3889527,5.9085135,0.11414092,0.07252691,-2.243325,9.154875922,2.247397458,crawl
16/03/2021, 14:44:13,-6.353987,-3.652405,6.0091043,0.11414092,0.07252691,-2.243325,9.477475926,2.247397458,crawl
16/03/2021, 14:44:13,-6.353987,-3.652405,6.0091043,0.26319197,0.06519653,-2.2237773,9.477475926,2.240246873,crawl
16/03/2021, 14:44:13,-6.3851223,-3.8823268,6.10251,0.26319197,0.06519653,-2.2237773,9.647946749,2.240246873,crawl
16/03/2021, 14:44:13,-6.3851223,-3.8823268,6.10251,0.42568207,0.039540198,-2.2506552,9.647946749,2.290898811,crawl
16/03/2021, 14:44:13,-6.334827,-3.9014869,6.382727,0.42568207,0.039540198,-2.2506552,9.802593437,2.290898811,crawl
16/03/2021, 14:44:13,-6.334827,-3.9014869,6.382727,0.4989859,0.05297923,-2.3080766,9.802593437,2.361993099,crawl
16/03/2021, 14:44:13,-6.1480155,-3.9134622,6.430628,0.4989859,0.05297923,-2.3080766,9.71937523,2.361993099,crawl
16/03/2021, 14:44:13,-6.1480155,-3.9134622,6.430628,0.475773,0.13239169,-2.3630545,9.71937523,2.414107319,crawl
16/03/2021, 14:44:13,-6.11688,-4.054768,6.7563505,0.475773,0.13239169,-2.3630545,9.975251212,2.414107319,crawl
16/03/2021, 14:44:13,-6.11688,-4.054768,6.7563505,0.37681288,0.24112566,-2.3838239,9.975251212,2.425437234,crawl
16/03/2021, 14:44:13,-5.982759,-3.8823268,6.701265,0.37681288,0.24112566,-2.3838239,9.786358753,2.425437234,crawl
16/03/2021, 14:44:14,1.1831397,-1.2166699,10.36325,0.38536498,0.07008345,0.37117723,10.50128807,0.539620598,crawl
16/03/2021, 14:44:14,1.3292359,-1.214275,10.483001,0.38536498,0.07008345,0.37117723,10.63647671,0.539620598,crawl
16/03/2021, 14:44:14,1.3292359,-1.214275,10.483001,0.38047805,0.088409394,0.35040784,10.63647671,0.524752727,crawl
16/03/2021, 14:44:14,1.4968873,-1.22625,10.461446,0.38047805,0.088409394,0.35040784,10.63890075,0.524752727,crawl
16/03/2021, 14:44:14,1.4968873,-1.22625,10.461446,0.430569,0.123839565,0.30642554,10.63890075,0.542791404,crawl
16/03/2021, 14:44:14,1.5807129,-1.3555812,10.499766,0.430569,0.123839565,0.30642554,10.7042677,0.542791404,crawl
16/03/2021, 14:44:14,1.5807129,-1.3555812,10.499766,0.5148684,0.17393051,0.28932133,10.7042677,0.615668826,crawl
16/03/2021, 14:44:14,1.5208374,-1.456172,10.406361,0.5148684,0.17393051,0.28932133,10.61723716,0.615668826,crawl
16/03/2021, 14:44:14,1.5208374,-1.456172,10.406361,0.64681524,0.20691721,0.308869,10.61723716,0.746046077,crawl
16/03/2021, 14:44:14,1.4513819,-1.7172291,10.619517,0.64681524,0.20691721,0.308869,10.8549313,0.746046077,crawl
16/03/2021, 14:44:14,1.4513819,-1.7172291,10.619517,0.8264096,0.24601258,0.34796438,10.8549313,0.929814062,crawl
16/03/2021, 14:44:14,1.3747413,-1.81782,10.375225,0.8264096,0.24601258,0.34796438,10.62260224,0.929814062,crawl
16/03/2021, 14:44:14,1.3747413,-1.81782,10.375225,1.0194429,0.3168729,0.38339454,10.62260224,1.134311978,crawl
16/03/2021, 14:44:14,1.3891114,-1.7938697,10.356065,1.0194429,0.3168729,0.38339454,10.60168275,1.134311978,crawl
16/03/2021, 14:44:14,1.3891114,-1.7938697,10.356065,1.2283587,0.39872882,0.38461626,10.60168275,1.347508643,crawl
16/03/2021, 14:44:14,1.4753321,-1.4968873,10.116563,1.2283587,0.39872882,0.38461626,10.33257569,1.347508643,crawl
16/03/2021, 14:44:14,1.4753321,-1.4968873,10.116563,1.4055096,0.479363,0.340634,10.33257569,1.523573958,crawl
16/03/2021, 14:44:14,1.5495777,-1.0657837,10.126143,1.4055096,0.479363,0.340634,10.29931393,1.523573958,crawl
16/03/2021, 14:44:14,1.5495777,-1.0657837,10.126143,1.5679997,0.52945393,0.27954748,10.29931393,1.678419312,crawl
16/03/2021, 14:44:14,1.3531861,-0.82388675,10.466236,1.5679997,0.52945393,0.27954748,10.58546175,1.678419312,crawl
16/03/2021, 14:44:15,-1.334026,-8.677156,7.795789,-1.2322055,-0.8926398,1.3705524,11.74082586,2.047815958,crawl
16/03/2021, 14:44:15,-0.91010743,-8.866363,7.060518,-1.2322055,-0.8926398,1.3705524,11.37064608,2.047815958,crawl
16/03/2021, 14:44:15,-0.91010743,-8.866363,7.060518,-1.0367287,-0.83033156,1.4450779,11.37064608,1.962780454,crawl
16/03/2021, 14:44:15,-0.3520679,-9.0076685,6.701265,-1.0367287,-0.83033156,1.4450779,11.23249724,1.962780454,crawl
16/03/2021, 14:44:15,-0.3520679,-9.0076685,6.701265,-0.8766821,-0.6800588,1.4438562,11.23249724,1.820926218,crawl
16/03/2021, 14:44:15,0.083825685,-9.2256155,6.686895,-0.8766821,-0.6800588,1.4438562,11.39445354,1.820926218,crawl
16/03/2021, 14:44:15,0.083825685,-9.2256155,6.686895,-0.7349614,-0.52367735,1.3656654,11.39445354,1.636902042,crawl
16/03/2021, 14:44:15,0.39278322,-9.522598,6.799461,-0.7349614,-0.52367735,1.3656654,11.70755418,1.636902042,crawl
16/03/2021, 14:44:15,0.39278322,-9.522598,6.799461,-0.6482186,-0.4112782,1.2618184,11.70755418,1.476997888,crawl
16/03/2021, 14:44:15,0.44307864,-9.77647,7.0269876,-0.6482186,-0.4112782,1.2618184,12.04799743,1.476997888,crawl
16/03/2021, 14:44:15,0.44307864,-9.77647,7.0269876,-0.5883538,-0.35630035,1.1897364,12.04799743,1.374257171,crawl
16/03/2021, 14:44:15,0.3784131,-9.77647,7.4006104,-0.5883538,-0.35630035,1.1897364,12.26750181,1.374257171,crawl
16/03/2021, 14:44:15,0.3784131,-9.77647,7.4006104,-0.45396355,-0.39661744,1.1518627,12.26750181,1.300067718,crawl
16/03/2021, 14:44:15,0.37601808,-9.855506,8.2197075,-0.45396355,-0.39661744,1.1518627,12.83884645,1.300067718,crawl
16/03/2021, 14:44:15,0.37601808,-9.855506,8.2197075,-0.20106542,-0.4882472,1.1139891,12.83884645,1.232795346,crawl
16/03/2021, 14:44:15,0.58198977,-9.994417,8.643626,-0.20106542,-0.4882472,1.1139891,13.22646442,1.232795346,crawl
16/03/2021, 14:44:15,0.58198977,-9.994417,8.643626,0.03228501,-0.5090166,1.0797807,13.22646442,1.194180283,crawl
16/03/2021, 14:44:15,1.0729688,-10.013577,8.775352,0.03228501,-0.5090166,1.0797807,13.35776142,1.194180283,crawl
16/03/2021, 14:44:15,1.0729688,-10.013577,8.775352,0.2155445,-0.40028262,1.0333549,13.35776142,1.12894106,crawl
16/03/2021, 14:44:15,1.6022681,-9.817185,8.935819,0.2155445,-0.40028262,1.0333549,13.37135923,1.12894106,crawl
16/03/2021, 14:44:16,1.3603711,-4.488267,6.715635,-1.5144252,-0.2683358,-0.6294196,8.19114771,1.661823312,crawl
16/03/2021, 14:44:16,1.4944923,-4.653523,6.6461797,-1.5144252,-0.2683358,-0.6294196,8.24987803,1.661823312,crawl
16/03/2021, 14:44:16,1.4944923,-4.653523,6.6461797,-1.420352,-0.16937563,-0.60131985,8.24987803,1.551667947,crawl
16/03/2021, 14:44:16,1.5423926,-4.7157936,6.593489,-1.420352,-0.16937563,-0.60131985,8.251774583,1.551667947,crawl
16/03/2021, 14:44:16,1.5423926,-4.7157936,6.593489,-1.3421613,-0.06919378,-0.55489415,8.251774583,1.453991831,crawl
16/03/2021, 14:44:16,1.590293,-4.758904,6.567144,-1.3421613,-0.06919378,-0.55489415,8.264597891,1.453991831,crawl
16/03/2021, 14:44:16,1.590293,-4.758904,6.567144,-1.2859616,0.017549057,-0.4938076,8.264597891,1.377625217,crawl
16/03/2021, 14:44:16,1.5447876,-4.7253737,6.576724,-1.2859616,0.017549057,-0.4938076,8.244320782,1.377625217,crawl
16/03/2021, 14:44:16,1.5447876,-4.7253737,6.576724,-1.2651923,0.076192096,-0.4229473,8.244320782,1.33618903,crawl
16/03/2021, 14:44:16,1.4441968,-4.591253,6.5479836,-1.2651923,0.076192096,-0.4229473,8.12658579,1.33618903,crawl
16/03/2021, 14:44:16,1.4441968,-4.591253,6.5479836,-1.2786313,0.10673535,-0.34842175,8.12658579,1.329544369,crawl
16/03/2021, 14:44:16,1.4178516,-4.5960426,6.4928985,-1.2786313,0.10673535,-0.34842175,8.080324339,1.329544369,crawl
16/03/2021, 14:44:16,1.4178516,-4.5960426,6.4928985,-1.3372743,0.12139611,-0.2812266,8.080324339,1.371906705,crawl
16/03/2021, 14:44:16,1.3531861,-4.5720925,6.5120583,-1.3372743,0.12139611,-0.2812266,8.071062234,1.371906705,crawl
16/03/2021, 14:44:16,1.3531861,-4.5720925,6.5120583,-1.4325693,0.11406573,-0.22869219,8.071062234,1.455185833,crawl
16/03/2021, 14:44:16,1.341211,-4.639153,6.5072684,-1.4325693,0.11406573,-0.22869219,8.103402362,1.455185833,crawl
16/03/2021, 14:44:16,1.341211,-4.639153,6.5072684,-1.5449684,0.09940497,-0.19814894,8.103402362,1.560791979,crawl
16/03/2021, 14:44:16,1.2525953,-4.8211746,6.468948,-1.5449684,0.09940497,-0.19814894,8.164557949,1.560791979,crawl
16/03/2021, 14:44:16,1.2525953,-4.8211746,6.468948,-1.6537024,0.083522476,-0.18104471,8.164557949,1.665678465,crawl
16/03/2021, 14:44:16,1.2645704,-5.127737,6.478528,-1.6537024,0.083522476,-0.18104471,8.358477776,1.665678465,crawl
16/03/2021, 14:44:17,0.5388794,-7.5059915,4.974456,0.029841548,-1.1882985,0.47258082,9.020837523,1.279170195,crawl
16/03/2021, 14:44:17,0.60594,-7.424561,4.9505057,0.029841548,-1.1882985,0.47258082,8.944203524,1.279170195,crawl
16/03/2021, 14:44:17,0.60594,-7.424561,4.9505057,-0.053236093,-1.2078462,0.46402872,8.944203524,1.295009301,crawl
16/03/2021, 14:44:17,0.69216067,-7.460486,4.9073954,-0.053236093,-1.2078462,0.46402872,8.956587856,1.295009301,crawl
16/03/2021, 14:44:17,0.69216067,-7.460486,4.9073954,-0.13997893,-1.2212852,0.47258082,8.956587856,1.316990634,crawl
16/03/2021, 14:44:17,0.8334668,-7.422166,4.873865,-0.13997893,-1.2212852,0.47258082,8.918395284,1.316990634,crawl
16/03/2021, 14:44:17,0.8334668,-7.422166,4.873865,-0.23038694,-1.2212852,0.48968506,8.918395284,1.335817053,crawl
16/03/2021, 14:44:17,1.0083033,-7.422166,4.89542,-0.23038694,-1.2212852,0.48968506,8.948204257,1.335817053,crawl
16/03/2021, 14:44:17,1.0083033,-7.422166,4.89542,-0.32446015,-1.2163984,0.508011,8.948204257,1.357561974,crawl
16/03/2021, 14:44:17,1.1615845,-7.556287,4.902605,-0.32446015,-1.2163984,0.508011,9.081975846,1.357561974,crawl
16/03/2021, 14:44:17,1.1615845,-7.556287,4.902605,-0.44052452,-1.1956289,0.5324456,9.081975846,1.380973787,crawl
16/03/2021, 14:44:17,1.2597803,-7.7167535,4.82357,-0.44052452,-1.1956289,0.5324456,9.187064605,1.380973787,crawl
16/03/2021, 14:44:17,1.2597803,-7.7167535,4.82357,-0.5798017,-1.1614205,0.56787574,9.187064605,1.416880496,crawl
16/03/2021, 14:44:17,1.219065,-7.90117,4.7708793,-0.5798017,-1.1614205,0.56787574,9.30998884,1.416880496,crawl
16/03/2021, 14:44:17,1.219065,-7.90117,4.7708793,-0.7264093,-1.1174382,0.6179667,9.30998884,1.469088655,crawl
16/03/2021, 14:44:17,1.1400293,-8.076006,4.7229786,-0.7264093,-1.1174382,0.6179667,9.424864216,1.469088655,crawl
16/03/2021, 14:44:17,1.1400293,-8.076006,4.7229786,-0.8644648,-1.0722342,0.6839401,9.424864216,1.537777481,crawl
16/03/2021, 14:44:17,1.0202783,-8.349038,4.7133985,-0.8644648,-1.0722342,0.6839401,9.641759719,1.537777481,crawl
16/03/2021, 14:44:17,1.0202783,-8.349038,4.7133985,-0.98785955,-1.041691,0.75480044,9.641759719,1.621946427,crawl
16/03/2021, 14:44:17,0.9364527,-8.643626,4.4355764,-0.98785955,-1.041691,0.75480044,9.760305123,1.621946427,crawl
16/03/2021, 14:44:18,-2.5459058,2.066902,8.52627,-0.17296563,-0.3880653,1.761506,9.135151814,1.812019604,crawl
16/03/2021, 14:44:18,-2.2369483,1.8441651,8.260423,-0.17296563,-0.3880653,1.761506,8.754396932,1.812019604,crawl
16/03/2021, 14:44:18,-2.2369483,1.8441651,8.260423,-0.10454876,-0.3990609,1.793271,8.754396932,1.840108892,crawl
16/03/2021, 14:44:18,-2.0261867,1.7651294,8.255632,-0.10454876,-0.3990609,1.793271,8.68196872,1.840108892,crawl
16/03/2021, 14:44:18,-2.0261867,1.7651294,8.255632,0.029841548,-0.3550786,1.8445836,8.68196872,1.878685739,crawl
16/03/2021, 14:44:18,-1.8968556,1.6262183,8.2125225,0.029841548,-0.3550786,1.8445836,8.584181562,1.878685739,crawl
16/03/2021, 14:44:18,-1.8968556,1.6262183,8.2125225,0.17767088,-0.29643556,1.9130006,8.584181562,1.943968163,crawl
16/03/2021, 14:44:18,-1.8130299,1.6190332,8.073611,0.17767088,-0.29643556,1.9130006,8.431580201,1.943968163,crawl
16/03/2021, 14:44:18,-1.8130299,1.6190332,8.073611,0.28151792,-0.25611848,1.978974,8.431580201,2.015238707,crawl
16/03/2021, 14:44:18,-1.7531544,1.7148341,8.183782,0.28151792,-0.25611848,1.978974,8.543330029,2.015238707,crawl
16/03/2021, 14:44:18,-1.7531544,1.7148341,8.183782,0.41102132,-0.28910518,2.0168476,8.543330029,2.078507785,crawl
16/03/2021, 14:44:18,-1.7124391,1.6190332,8.461604,0.41102132,-0.28910518,2.0168476,8.783647326,2.078507785,crawl
16/03/2021, 14:44:18,-1.7124391,1.6190332,8.461604,0.5698463,-0.37584803,2.033952,8.783647326,2.145448028,crawl
16/03/2021, 14:44:18,-1.5687379,1.5926881,8.50711,0.5698463,-0.37584803,2.033952,8.795937033,2.145448028,crawl
16/03/2021, 14:44:18,-1.5687379,1.5926881,8.50711,0.7787621,-0.50046444,2.0278432,8.795937033,2.229144065,crawl
16/03/2021, 14:44:18,-1.575923,1.4058765,8.698711,0.7787621,-0.50046444,2.0278432,8.951402232,2.229144065,crawl
16/03/2021, 14:44:18,-1.575923,1.4058765,8.698711,1.0084473,-0.58598554,2.0254,8.951402232,2.337218398,crawl
16/03/2021, 14:44:18,-1.1831397,1.3292359,8.514295,1.0084473,-0.58598554,2.0254,8.698269975,2.337218398,crawl
16/03/2021, 14:44:18,-1.1831397,1.3292359,8.514295,1.2246935,-0.5786552,2.0302868,8.698269975,2.44065166,crawl
16/03/2021, 14:44:18,-0.84065187,1.4489869,8.50711,1.2246935,-0.5786552,2.0302868,8.670477094,2.44065166,crawl
16/03/2021, 14:44:19,3.4488282,-6.239026,7.438931,0.70668,0.1250613,-0.027106738,10.30327893,0.718172491,crawl
16/03/2021, 14:44:19,3.2811768,-6.13604,7.4125857,0.70668,0.1250613,-0.027106738,10.16678602,0.718172491,crawl
16/03/2021, 14:44:19,3.2811768,-6.13604,7.4125857,0.6174937,0.12017438,-0.04909788,10.16678602,0.630992028,crawl
16/03/2021, 14:44:19,3.171006,-6.0665846,7.2760696,0.6174937,0.12017438,-0.04909788,9.989990831,0.630992028,crawl
16/03/2021, 14:44:19,3.171006,-6.0665846,7.2760696,0.50875974,0.10551362,-0.063758634,9.989990831,0.523483292,crawl
16/03/2021, 14:44:19,3.0249097,-5.999524,7.201824,0.50875974,0.10551362,-0.063758634,9.84939796,0.523483292,crawl
16/03/2021, 14:44:19,3.0249097,-5.999524,7.201824,0.3780346,0.082300745,-0.06986728,9.84939796,0.393147558,crawl
16/03/2021, 14:44:19,2.9578493,-5.9252787,7.062913,0.3780346,0.082300745,-0.06986728,9.682073059,0.393147558,crawl
16/03/2021, 14:44:19,2.9578493,-5.9252787,7.062913,0.24242257,0.05664442,-0.063758634,9.682073059,0.256987265,crawl
16/03/2021, 14:44:19,2.924319,-5.8055277,6.998247,0.24242257,0.05664442,-0.063758634,9.551505464,0.256987265,crawl
16/03/2021, 14:44:19,2.924319,-5.8055277,6.998247,0.11291919,0.029766357,-0.05154134,9.551505464,0.127645168,crawl
16/03/2021, 14:44:19,3.0057497,-5.7073317,6.969507,0.11291919,0.029766357,-0.05154134,9.496430739,0.127645168,crawl
16/03/2021, 14:44:19,3.0057497,-5.7073317,6.969507,-0.012919003,0.004110027,-0.03443712,9.496430739,0.037009569,crawl
16/03/2021, 14:44:19,3.0536501,-5.6714063,6.912027,-0.012919003,0.004110027,-0.03443712,9.448055031,0.037009569,crawl
16/03/2021, 14:44:19,3.0536501,-5.6714063,6.912027,-0.1387572,-0.012994194,-0.017332897,9.448055031,0.140438024,crawl
16/03/2021, 14:44:19,3.173401,-5.6498513,6.943162,-0.1387572,-0.012994194,-0.017332897,9.497304495,0.140438024,crawl
16/03/2021, 14:44:19,3.173401,-5.6498513,6.943162,-0.25848675,-0.016659385,-0.005115598,9.497304495,0.259073548,crawl
16/03/2021, 14:44:19,3.276387,-5.6642213,6.8808913,-0.25848675,-0.016659385,-0.005115598,9.495513667,0.259073548,crawl
16/03/2021, 14:44:19,3.276387,-5.6642213,6.8808913,-0.36966416,-0.010550734,0.008323433,9.495513667,0.369908354,crawl
16/03/2021, 14:44:19,3.3051271,-5.719307,6.8737063,-0.36966416,-0.010550734,0.008323433,9.533214371,0.369908354,crawl
16/03/2021, 14:44:20,2.6153615,-6.2773466,6.564749,-0.38554665,0.09940497,-0.08208459,9.452043289,0.406528536,crawl
16/03/2021, 14:44:20,2.6033864,-6.2941117,6.5384035,-0.38554665,0.09940497,-0.08208459,9.44161976,0.406528536,crawl
16/03/2021, 14:44:20,2.6033864,-6.2941117,6.5384035,-0.3745511,0.088409394,-0.04054577,9.44161976,0.386973769,crawl
16/03/2021, 14:44:20,2.5291407,-6.3707523,6.5384035,-0.3745511,0.088409394,-0.04054577,9.472790429,0.386973769,crawl
16/03/2021, 14:44:20,2.5291407,-6.3707523,6.5384035,-0.35255995,0.07130518,0.004658243,9.472790429,0.359728577,crawl
16/03/2021, 14:44:20,2.5004005,-6.454578,6.461763,-0.35255995,0.07130518,0.004658243,9.469316706,0.359728577,crawl
16/03/2021, 14:44:20,2.5004005,-6.454578,6.461763,-0.33179054,0.05542269,0.051083982,9.469316706,0.340244336,crawl
16/03/2021, 14:44:20,2.5387208,-6.495293,6.430628,-0.33179054,0.05542269,0.051083982,9.486143089,0.340244336,crawl
16/03/2021, 14:44:20,2.5387208,-6.495293,6.430628,-0.31346458,0.04198366,0.096287996,9.486143089,0.330596506,crawl
16/03/2021, 14:44:20,2.5051906,-6.5264287,6.4258375,-0.31346458,0.04198366,0.096287996,9.495348301,0.330596506,crawl
16/03/2021, 14:44:20,2.5051906,-6.5264287,6.4258375,-0.30002555,0.04076193,0.13660508,9.495348301,0.332171365,crawl
16/03/2021, 14:44:20,2.548301,-6.6126494,6.4042826,-0.30002555,0.04076193,0.13660508,9.551743598,0.332171365,crawl
16/03/2021, 14:44:20,2.548301,-6.6126494,6.4042826,-0.28414306,0.04198366,0.17203526,9.551743598,0.334807464,crawl
16/03/2021, 14:44:20,2.5411158,-6.622229,6.454578,-0.28414306,0.04198366,0.17203526,9.590243152,0.334807464,crawl
16/03/2021, 14:44:20,2.5411158,-6.622229,6.454578,-0.2645954,0.04442712,0.20746543,9.590243152,0.339155409,crawl
16/03/2021, 14:44:20,2.5075855,-6.69408,6.4833183,-0.2645954,0.04442712,0.20746543,9.650497765,0.339155409,crawl
16/03/2021, 14:44:20,2.5075855,-6.69408,6.4833183,-0.24260426,0.043205388,0.23800868,9.650497765,0.342595477,crawl
16/03/2021, 14:44:20,2.454895,-6.710845,6.4114676,-0.24260426,0.043205388,0.23800868,9.600461773,0.342595477,crawl
16/03/2021, 14:44:20,2.454895,-6.710845,6.4114676,-0.21450447,0.03709674,0.26977363,9.600461773,0.34664989,crawl
16/03/2021, 14:44:20,2.4668703,-6.696475,6.365962,-0.21450447,0.03709674,0.26977363,9.563142762,0.34664989,crawl
16/03/2021, 14:44:21,0.5484595,-11.563155,1.1855347,0.34749135,0.8373299,-0.28733525,11.63670305,0.951016922,crawl
16/03/2021, 14:44:21,0.5484595,-11.563155,1.1855347,0.46966437,0.7298177,-0.3313175,11.63670305,0.928972427,crawl
16/03/2021, 14:44:21,0.62510014,-11.543995,1.1663746,0.46966437,0.7298177,-0.3313175,11.61959544,0.928972427,crawl
16/03/2021, 14:44:21,0.62510014,-11.543995,1.1663746,0.5674028,0.61864024,-0.36186078,11.61959544,0.914114266,crawl
16/03/2021, 14:44:21,0.7831714,-11.441009,1.1927198,0.5674028,0.61864024,-0.36186078,11.52964072,0.914114266,crawl
16/03/2021, 14:44:21,0.7831714,-11.441009,1.1927198,0.6358197,0.5392278,-0.37774327,11.52964072,0.915272222,crawl
16/03/2021, 14:44:21,1.0250684,-11.297308,1.2310401,0.6358197,0.5392278,-0.37774327,11.41031955,0.915272222,crawl
16/03/2021, 14:44:21,1.0250684,-11.297308,1.2310401,0.66514117,0.49768895,-0.3985127,11.41031955,0.921368235,crawl
16/03/2021, 14:44:21,1.1735597,-11.194322,1.3603711,0.66514117,0.49768895,-0.3985127,11.33757861,0.921368235,crawl
16/03/2021, 14:44:21,1.1735597,-11.194322,1.3603711,0.661476,0.479363,-0.43882978,11.33757861,0.92731385,crawl
16/03/2021, 14:44:21,1.3028907,-11.170372,1.463357,0.661476,0.479363,-0.43882978,11.34090598,0.92731385,crawl
16/03/2021, 14:44:21,1.3028907,-11.170372,1.463357,0.6443718,0.479363,-0.5084684,11.34090598,0.95054932,crawl
16/03/2021, 14:44:21,1.3244458,-11.122471,1.5974782,0.6443718,0.479363,-0.5084684,11.31439133,0.95054932,crawl
16/03/2021, 14:44:21,1.3244458,-11.122471,1.5974782,0.6199372,0.4915803,-0.5927678,11.31439133,0.988608589,crawl
16/03/2021, 14:44:21,1.3124708,-11.05541,1.6573536,0.6199372,0.4915803,-0.5927678,11.25573185,0.988608589,crawl
16/03/2021, 14:44:21,1.3124708,-11.05541,1.6573536,0.5588507,0.51357144,-0.6807323,11.25573185,1.019542159,crawl
16/03/2021, 14:44:21,1.214275,-10.97877,1.5591577,0.5588507,0.51357144,-0.6807323,11.1552155,1.019542159,crawl
16/03/2021, 14:44:21,1.214275,-10.97877,1.5591577,0.44156456,0.53311914,-0.75525784,11.1552155,1.024504608,crawl
16/03/2021, 14:44:21,1.1232642,-11.014695,1.4322218,0.44156456,0.53311914,-0.75525784,11.16407145,1.024504608,crawl
16/03/2021, 14:44:21,1.1232642,-11.014695,1.4322218,0.28640485,0.51845837,-0.82367474,11.16407145,1.014527915,crawl
16/03/2021, 14:44:22,3.2452517,-9.405242,4.28469,-0.66165763,-0.056976475,0.1085053,10.83276522,0.672911986,crawl
16/03/2021, 14:44:22,3.2452517,-9.405242,4.28469,-0.49183717,-0.03987225,0.109727025,10.83276522,0.505503335,crawl
16/03/2021, 14:44:22,3.171006,-9.386082,4.1960745,-0.49183717,-0.03987225,0.109727025,10.7592216,0.505503335,crawl
16/03/2021, 14:44:22,3.171006,-9.386082,4.1960745,-0.33179054,-0.030098414,0.11950087,10.7592216,0.353936904,crawl
16/03/2021, 14:44:22,3.2380664,-9.316627,4.0691385,-0.33179054,-0.030098414,0.11950087,10.66969975,0.353936904,crawl
16/03/2021, 14:44:22,3.2380664,-9.316627,4.0691385,-0.2206131,-0.014215924,0.11583568,10.66969975,0.249579928,crawl
16/03/2021, 14:44:22,3.3458424,-9.105865,3.9134622,-0.2206131,-0.014215924,0.11583568,10.46071775,0.249579928,crawl
16/03/2021, 14:44:22,3.3458424,-9.105865,3.9134622,-0.13387027,0.019992517,0.09384454,10.46071775,0.164705036,crawl
16/03/2021, 14:44:22,3.3338673,-9.019644,3.887117,-0.13387027,0.019992517,0.09384454,10.37199706,0.164705036,crawl
16/03/2021, 14:44:22,3.3338673,-9.019644,3.887117,-0.049570903,0.06153134,0.068188205,10.37199706,0.104369591,crawl
16/03/2021, 14:44:22,3.283572,-8.957374,3.9254372,-0.049570903,0.06153134,0.068188205,10.31627085,0.104369591,crawl
16/03/2021, 14:44:22,3.283572,-8.957374,3.9254372,0.03839366,0.103070155,0.053527445,10.31627085,0.122322187,crawl
16/03/2021, 14:44:22,3.2380664,-8.892708,3.887117,0.03839366,0.103070155,0.053527445,10.23108032,0.122322187,crawl
16/03/2021, 14:44:22,3.2380664,-8.892708,3.887117,0.11047573,0.13972206,0.0437536,10.23108032,0.183416245,crawl
16/03/2021, 14:44:22,3.178191,-8.844808,3.9517825,0.11047573,0.13972206,0.0437536,10.19549431,0.183416245,crawl
16/03/2021, 14:44:22,3.178191,-8.844808,3.9517825,0.16545358,0.17026532,0.035201494,10.19549431,0.240008982,crawl
16/03/2021, 14:44:22,3.0895753,-8.813672,4.021238,0.16545358,0.17026532,0.035201494,10.16841407,0.240008982,crawl
16/03/2021, 14:44:22,3.0895753,-8.813672,4.021238,0.20210548,0.18859127,0.018097274,10.16841407,0.277021304,crawl
16/03/2021, 14:44:22,3.0296998,-8.804092,4.1984696,0.20210548,0.18859127,0.018097274,10.21363164,0.277021304,crawl
16/03/2021, 14:44:22,3.0296998,-8.804092,4.1984696,0.23387046,0.19347818,-0.001450407,10.21363164,0.303531388,crawl
16/03/2021, 14:44:23,-0.24668702,-7.441326,6.74198,1.7695851,0.66750944,-0.26656583,10.04432599,1.909988935,crawl
16/03/2021, 14:44:23,-0.31374758,-7.209009,6.9934573,1.7695851,0.66750944,-0.26656583,10.04871614,1.909988935,crawl
16/03/2021, 14:44:23,-0.31374758,-7.209009,6.9934573,1.5973212,0.60397947,-0.24823987,10.04871614,1.725644546,crawl
16/03/2021, 14:44:23,-0.34967285,-6.8904715,7.1419487,1.5973212,0.60397947,-0.24823987,9.93017116,1.725644546,crawl
16/03/2021, 14:44:23,-0.34967285,-6.8904715,7.1419487,1.394514,0.53311914,-0.225027,9.93017116,1.509808718,crawl
16/03/2021, 14:44:23,-0.32093263,-6.591094,7.2401443,1.394514,0.53311914,-0.225027,9.796183282,1.509808718,crawl
16/03/2021, 14:44:23,-0.32093263,-6.591094,7.2401443,1.1587201,0.46103704,-0.21525316,9.796183282,1.265512318,crawl
16/03/2021, 14:44:23,-0.28261232,-6.2917166,7.3646855,1.1587201,0.46103704,-0.21525316,9.690415896,1.265512318,crawl
16/03/2021, 14:44:23,-0.28261232,-6.2917166,7.3646855,0.90215683,0.3901767,-0.22380526,9.690415896,1.008074208,crawl
16/03/2021, 14:44:23,-0.24908204,-6.1216702,7.4269557,0.90215683,0.3901767,-0.22380526,9.627905246,1.008074208,crawl
16/03/2021, 14:44:23,-0.24908204,-6.1216702,7.4269557,0.64315003,0.31931636,-0.24579641,9.627905246,0.758960325,crawl
16/03/2021, 14:44:23,-0.31135255,-6.0330544,7.551497,0.64315003,0.31931636,-0.24579641,9.670563164,0.758960325,crawl
16/03/2021, 14:44:23,-0.31135255,-6.0330544,7.551497,0.37925634,0.24967776,-0.25557026,9.670563164,0.521047516,crawl
16/03/2021, 14:44:23,-0.32572266,-6.006709,7.7287283,0.37925634,0.24967776,-0.25557026,9.793870047,0.521047516,crawl
16/03/2021, 14:44:23,-0.32572266,-6.006709,7.7287283,0.13124514,0.17026532,-0.24213122,9.793870047,0.323794828,crawl
16/03/2021, 14:44:23,-0.3281177,-6.090535,7.7478886,0.13124514,0.17026532,-0.24213122,9.860631675,0.323794828,crawl
16/03/2021, 14:44:23,-0.3281177,-6.090535,7.7478886,-0.08744454,0.07985728,-0.22258353,9.860631675,0.252125289,crawl
16/03/2021, 14:44:23,-0.2562671,-6.1504107,7.8029737,-0.08744454,0.07985728,-0.22258353,9.938793856,0.252125289,crawl
16/03/2021, 14:44:23,-0.2562671,-6.1504107,7.8029737,-0.2731475,-0.005663814,-0.21036623,9.938793856,0.34481239,crawl
16/03/2021, 14:44:23,-0.26105714,-6.217471,7.776629,-0.2731475,-0.005663814,-0.21036623,9.959972698,0.34481239,crawl
16/03/2021, 14:44:24,3.3769777,-7.3072047,6.229446,0.32672194,-0.30010077,0.45303315,10.17866473,0.634071551,crawl
16/03/2021, 14:44:24,3.271597,-7.2832546,6.2821364,0.32672194,-0.30010077,0.45303315,10.15944794,0.634071551,crawl
16/03/2021, 14:44:24,3.271597,-7.2832546,6.2821364,0.3035091,-0.2939921,0.4347072,10.15944794,0.606233838,crawl
16/03/2021, 14:44:24,3.2356715,-7.185059,6.231841,0.3035091,-0.2939921,0.4347072,10.04641664,0.606233838,crawl
16/03/2021, 14:44:24,3.2356715,-7.185059,6.231841,0.28273967,-0.28788346,0.417603,10.04641664,0.580698598,crawl
16/03/2021, 14:44:24,3.2141163,-7.2329593,6.217471,0.28273967,-0.28788346,0.417603,10.06494862,0.580698598,crawl
16/03/2021, 14:44:24,3.2141163,-7.2329593,6.217471,0.25830507,-0.2866617,0.4029422,10.06494862,0.557905793,crawl
16/03/2021, 14:44:24,3.2260914,-7.199429,6.253396,0.25830507,-0.2866617,0.4029422,10.06699588,0.557905793,crawl
16/03/2021, 14:44:24,3.2260914,-7.199429,6.253396,0.22409663,-0.28544,0.38461626,10.06699588,0.528795759,crawl
16/03/2021, 14:44:24,3.1997461,-7.192244,6.2749515,0.22409663,-0.28544,0.38461626,10.06686474,0.528795759,crawl
16/03/2021, 14:44:24,3.1997461,-7.192244,6.2749515,0.19355337,-0.28177482,0.36873376,10.06686474,0.502816612,crawl
16/03/2021, 14:44:24,3.2069314,-7.1635036,6.3156667,0.19355337,-0.28177482,0.36873376,10.07411727,0.502816612,crawl
16/03/2021, 14:44:24,3.2069314,-7.1635036,6.3156667,0.17278396,-0.2781096,0.35651648,10.07411727,0.484048811,crawl
16/03/2021, 14:44:24,3.163821,-7.201824,6.337222,0.17278396,-0.2781096,0.35651648,10.10130778,0.484048811,crawl
16/03/2021, 14:44:24,3.163821,-7.201824,6.337222,0.15690146,-0.26711404,0.3455209,10.10130778,0.464061077,crawl
16/03/2021, 14:44:24,3.1087356,-7.165899,6.332432,0.15690146,-0.26711404,0.3455209,10.05554746,0.464061077,crawl
16/03/2021, 14:44:24,3.1087356,-7.165899,6.332432,0.1459059,-0.2524533,0.32841668,10.05554746,0.439179588,crawl
16/03/2021, 14:44:24,3.1446607,-7.175479,6.3228517,0.1459059,-0.2524533,0.32841668,10.06751419,0.439179588,crawl
16/03/2021, 14:44:24,3.1446607,-7.175479,6.3228517,0.13491033,-0.2377925,0.31131247,10.06751419,0.414320559,crawl
16/03/2021, 14:44:24,3.0776002,-7.1371584,6.2941117,0.13491033,-0.2377925,0.31131247,10.00132469,0.414320559,crawl
16/03/2021, 14:44:25,3.9206471,-2.675237,8.3322735,0.011515599,-0.105845675,1.0309114,9.589324696,1.036394869,crawl
16/03/2021, 14:44:25,4.0739284,-2.7135572,8.382568,0.011515599,-0.105845675,1.0309114,9.707097273,1.036394869,crawl
16/03/2021, 14:44:25,4.0739284,-2.7135572,8.382568,0.007850409,-0.13272373,1.0516808,9.707097273,1.060051758,crawl
16/03/2021, 14:44:25,4.248765,-2.7973828,8.504715,0.007850409,-0.13272373,1.0516808,9.909971307,1.060051758,crawl
16/03/2021, 14:44:25,4.248765,-2.7973828,8.504715,0.006628678,-0.14860623,1.0529026,9.909971307,1.063358637,crawl
16/03/2021, 14:44:25,4.3301954,-2.9722195,8.571775,0.006628678,-0.14860623,1.0529026,10.05286104,1.063358637,crawl
16/03/2021, 14:44:25,4.3301954,-2.9722195,8.571775,-7.02E-04,-0.14982796,1.0467939,10.05286104,1.057462272,crawl
16/03/2021, 14:44:25,4.4259963,-3.051255,8.547825,-7.02E-04,-0.14982796,1.0467939,10.09776758,1.057462272,crawl
16/03/2021, 14:44:25,4.4259963,-3.051255,8.547825,0.010293868,-0.13272373,1.0565678,10.09776758,1.064921145,crawl
16/03/2021, 14:44:25,4.3278003,-3.0249097,8.502319,0.010293868,-0.13272373,1.0565678,10.00846483,1.064921145,crawl
16/03/2021, 14:44:25,4.3278003,-3.0249097,8.502319,0.01884598,-0.1107326,1.0810024,10.00846483,1.086822419,crawl
16/03/2021, 14:44:25,4.3541455,-3.0728102,8.401729,0.01884598,-0.1107326,1.0810024,9.949361266,1.086822419,crawl
16/03/2021, 14:44:25,4.3541455,-3.0728102,8.401729,-0.003145162,-0.105845675,1.0944414,9.949361266,1.099552276,crawl
16/03/2021, 14:44:25,4.3206153,-3.056045,8.372989,-0.003145162,-0.105845675,1.0944414,9.905254548,1.099552276,crawl
16/03/2021, 14:44:25,4.3206153,-3.056045,8.372989,-0.052014362,-0.11806298,1.0956632,9.905254548,1.103232608,crawl
16/03/2021, 14:44:25,4.191284,-3.0776002,8.3179035,-0.052014362,-0.11806298,1.0956632,9.809485474,1.103232608,crawl
16/03/2021, 14:44:25,4.191284,-3.0776002,8.3179035,-0.12287471,-0.1351672,1.0981066,9.809485474,1.113196532,crawl
16/03/2021, 14:44:25,4.038003,-3.1159205,8.183782,-0.12287471,-0.1351672,1.0981066,9.643065408,1.113196532,crawl
16/03/2021, 14:44:25,4.038003,-3.1159205,8.183782,-0.20717408,-0.1437193,1.10055,9.643065408,1.129064551,crawl
16/03/2021, 14:44:25,3.9733377,-3.1302907,8.1071415,-0.20717408,-0.1437193,1.10055,9.555724748,1.129064551,crawl
16/03/2021, 14:44:26,-0.047900394,-0.9053174,8.792117,4.746941,1.3223567,-1.7436374,8.838733932,5.227078389,crawl
16/03/2021, 14:44:26,-0.37122804,-0.06706055,8.916658,4.746941,1.3223567,-1.7436374,8.924634694,5.227078389,crawl
16/03/2021, 14:44:26,-0.37122804,-0.06706055,8.916658,4.715176,1.2820396,-1.6862161,8.924634694,5.169123343,crawl
16/03/2021, 14:44:26,-0.61552006,0.5628296,8.562195,4.715176,1.2820396,-1.6862161,8.602721798,5.169123343,crawl
16/03/2021, 14:44:26,-0.61552006,0.5628296,8.562195,4.5649033,1.2209531,-1.6434556,8.602721798,5.003000564,crawl
16/03/2021, 14:44:26,-0.75203615,1.2885206,8.408914,4.5649033,1.2209531,-1.6434556,8.540238392,5.003000564,crawl
16/03/2021, 14:44:26,-0.75203615,1.2885206,8.408914,4.3339963,1.1439841,-1.6239079,8.540238392,4.767525607,crawl
16/03/2021, 14:44:26,-0.9580079,1.8920655,8.382568,4.3339963,1.1439841,-1.6239079,8.64668395,4.767525607,crawl
16/03/2021, 14:44:26,-0.9580079,1.8920655,8.382568,4.0823197,1.0450239,-1.5970298,8.64668395,4.506430252,crawl
16/03/2021, 14:44:26,-1.1783496,2.3495142,8.301138,4.0823197,1.0450239,-1.5970298,8.707331155,4.506430252,crawl
16/03/2021, 14:44:26,-1.1783496,2.3495142,8.301138,3.8086524,0.92773795,-1.537165,8.707331155,4.210630261,crawl
16/03/2021, 14:44:26,-1.3555812,2.9338992,8.2197075,3.8086524,0.92773795,-1.537165,8.832267874,4.210630261,crawl
16/03/2021, 14:44:26,-1.3555812,2.9338992,8.2197075,3.5239894,0.79090416,-1.4663047,8.832267874,3.897958481,crawl
16/03/2021, 14:44:26,-1.4897022,3.4727786,8.293953,3.5239894,0.79090416,-1.4663047,9.114222898,3.897958481,crawl
16/03/2021, 14:44:26,-1.4897022,3.4727786,8.293953,3.2197785,0.6491835,-1.3954444,9.114222898,3.568708186,crawl
16/03/2021, 14:44:26,-1.5687379,3.891907,8.265213,3.2197785,0.6491835,-1.3954444,9.269391811,3.568708186,crawl
16/03/2021, 14:44:26,-1.5687379,3.891907,8.265213,2.883803,0.5221236,-1.324584,9.269391811,3.21612421,crawl
16/03/2021, 14:44:26,-1.5663428,4.136199,8.375383,2.883803,0.5221236,-1.324584,9.471463389,3.21612421,crawl
16/03/2021, 14:44:26,-1.5663428,4.136199,8.375383,2.5417185,0.41705477,-1.2549454,9.471463389,2.865162383,crawl
16/03/2021, 14:44:26,-1.6142433,4.2799,8.48316,2.5417185,0.41705477,-1.2549454,9.637807317,2.865162383,crawl
16/03/2021, 14:44:27,-1.9639161,-3.5542092,8.631651,-4.869296,-0.07652416,1.6234505,9.53911774,5.133370412,crawl
16/03/2021, 14:44:27,-1.954336,-4.047583,8.626861,-4.869296,-0.07652416,1.6234505,9.727542469,5.133370412,crawl
16/03/2021, 14:44:27,-1.954336,-4.047583,8.626861,-4.5956283,-0.12417163,1.6491069,9.727542469,4.884134637,crawl
16/03/2021, 14:44:27,-2.1148024,-4.567302,8.5119,-4.5956283,-0.12417163,1.6491069,9.888633848,4.884134637,crawl
16/03/2021, 14:44:27,-2.1148024,-4.567302,8.5119,-4.3146305,-0.17914948,1.6698762,9.888633848,4.629969497,crawl
16/03/2021, 14:44:27,-2.2369483,-5.046306,8.231683,-4.3146305,-0.17914948,1.6698762,9.911091989,4.629969497,crawl
16/03/2021, 14:44:27,-2.2369483,-5.046306,8.231683,-4.0617323,-0.19258851,1.7089716,9.911091989,4.410821187,crawl
16/03/2021, 14:44:27,-2.5530908,-5.415139,7.9538603,-4.0617323,-0.19258851,1.7089716,9.955194555,4.410821187,crawl
16/03/2021, 14:44:27,-2.5530908,-5.415139,7.9538603,-3.9016857,-0.16204526,1.7883841,9.955194555,4.295081803,crawl
16/03/2021, 14:44:27,-3.0656252,-5.592371,7.2569094,-3.9016857,-0.16204526,1.7883841,9.661025032,4.295081803,crawl
16/03/2021, 14:44:27,-3.0656252,-5.592371,7.2569094,-3.8259385,-0.10462395,1.8812356,9.661025032,4.264715545,crawl
16/03/2021, 14:44:27,-3.5206788,-5.640271,6.701265,-3.8259385,-0.10462395,1.8812356,9.44006296,4.264715545,crawl
16/03/2021, 14:44:27,-3.5206788,-5.640271,6.701265,-3.8296037,-0.07652416,1.93377,9.44006296,4.290825843,crawl
16/03/2021, 14:44:27,-3.9565725,-5.43909,6.0737696,-3.8296037,-0.07652416,1.93377,9.062496376,4.290825843,crawl
16/03/2021, 14:44:27,-3.9565725,-5.43909,6.0737696,-3.915125,-0.120506436,1.9435438,9.062496376,4.372652193,crawl
16/03/2021, 14:44:27,-4.054768,-5.271438,5.3792143,-3.915125,-0.120506436,1.9435438,8.553662984,4.372652193,crawl
16/03/2021, 14:44:27,-4.054768,-5.271438,5.3792143,-4.1069365,-0.24023597,1.9227743,8.553662984,4.541112356,crawl
16/03/2021, 14:44:27,-3.8511915,-5.151687,4.799619,-4.1069365,-0.24023597,1.9227743,8.025453322,4.541112356,crawl
16/03/2021, 14:44:27,-3.8511915,-5.151687,4.799619,-4.4050384,-0.44670835,1.8494706,8.025453322,4.79838023,crawl
16/03/2021, 14:44:27,-3.532654,-5.367239,4.1888895,-4.4050384,-0.44670835,1.8494706,7.670312533,4.79838023,crawl
16/03/2021, 14:44:28,-8.389753,-3.2284865,1.951941,2.7640731,0.74081326,0.797561,9.19897604,2.970691519,crawl
16/03/2021, 14:44:28,-8.320298,-3.1015503,1.8585353,2.7640731,0.74081326,0.797561,9.071997023,2.970691519,crawl
16/03/2021, 14:44:28,-8.320298,-3.1015503,1.8585353,2.8117206,0.83855164,0.7193703,9.071997023,3.020999053,crawl
16/03/2021, 14:44:28,-8.286768,-2.912344,1.9184108,2.8117206,0.83855164,0.7193703,8.990693554,3.020999053,crawl
16/03/2021, 14:44:28,-8.286768,-2.912344,1.9184108,2.8459291,0.9301814,0.65339684,8.990693554,3.064551769,crawl
16/03/2021, 14:44:28,-8.361013,-2.811753,1.8561403,2.8459291,0.9301814,0.65339684,9.014308463,3.064551769,crawl
16/03/2021, 14:44:28,-8.361013,-2.811753,1.8561403,2.8715856,1.0169241,0.5959756,9.014308463,3.104082071,crawl
16/03/2021, 14:44:28,-8.459209,-2.699187,1.84177,2.8715856,1.0169241,0.5959756,9.068404049,3.104082071,crawl
16/03/2021, 14:44:28,-8.459209,-2.699187,1.84177,2.883803,1.1048888,0.5336673,9.068404049,3.133990935,crawl
16/03/2021, 14:44:28,-8.562195,-2.5363257,1.7268091,2.883803,1.1048888,0.5336673,9.095383337,3.133990935,crawl
16/03/2021, 14:44:28,-8.562195,-2.5363257,1.7268091,2.8960202,1.1977402,0.46402872,9.095383337,3.16809676,crawl
16/03/2021, 14:44:28,-8.708291,-2.4692652,1.6334034,2.8960202,1.1977402,0.46402872,9.197804659,3.16809676,crawl
16/03/2021, 14:44:28,-8.708291,-2.4692652,1.6334034,2.9204547,1.2661572,0.40538567,9.197804659,3.208823361,crawl
16/03/2021, 14:44:28,-8.871153,-2.43813,1.5088624,2.9204547,1.2661572,0.40538567,9.323008982,3.208823361,crawl
16/03/2021, 14:44:28,-8.871153,-2.43813,1.5088624,2.9338937,1.2869265,0.37484244,9.323008982,3.225588135,crawl
16/03/2021, 14:44:28,-9.08431,-2.4261549,1.2502003,2.9338937,1.2869265,0.37484244,9.485457743,3.225588135,crawl
16/03/2021, 14:44:28,-9.08431,-2.4261549,1.2502003,2.9473329,1.271044,0.36751205,9.485457743,3.230694813,crawl
16/03/2021, 14:44:28,-9.163345,-2.318379,1.1975098,2.9473329,1.271044,0.36751205,9.527633927,3.230694813,crawl
16/03/2021, 14:44:28,-9.163345,-2.318379,1.1975098,2.955885,1.2429442,0.35651648,9.527633927,3.226340051,crawl
16/03/2021, 14:44:28,-9.254355,-2.2513185,0.98435307,2.955885,1.2429442,0.35651648,9.574992437,3.226340051,crawl
16/03/2021, 14:44:29,-7.965835,-4.8379397,1.6645386,0.9009351,-0.51634693,-1.2195152,9.467358581,1.601722687,crawl
16/03/2021, 14:44:29,-7.8987746,-5.0750465,1.7411792,0.9009351,-0.51634693,-1.2195152,9.54874039,1.601722687,crawl
16/03/2021, 14:44:29,-7.8987746,-5.0750465,1.7411792,0.98523444,-0.4234955,-1.2744931,9.54874039,1.665643419,crawl
16/03/2021, 14:44:29,-7.94428,-5.4127445,1.590293,0.98523444,-0.4234955,-1.2744931,9.743634964,1.665643419,crawl
16/03/2021, 14:44:29,-7.94428,-5.4127445,1.590293,1.1293986,-0.36973938,-1.2854887,9.743634964,1.750636923,crawl
16/03/2021, 14:44:29,-8.064031,-5.5708156,1.5639478,1.1293986,-0.36973938,-1.2854887,9.92514529,1.750636923,crawl
16/03/2021, 14:44:29,-8.064031,-5.5708156,1.5639478,1.299219,-0.3636307,-1.2879322,9.92514529,1.865198804,crawl
16/03/2021, 14:44:29,-8.167017,-5.6738014,1.477727,1.299219,-0.3636307,-1.2879322,10.0536494,1.865198804,crawl
16/03/2021, 14:44:29,-8.167017,-5.6738014,1.477727,1.4348311,-0.37218282,-1.3196971,10.0536494,1.984656394,crawl
16/03/2021, 14:44:29,-8.164622,-5.743257,1.4513819,1.4348311,-0.37218282,-1.3196971,10.08724781,1.984656394,crawl
16/03/2021, 14:44:29,-8.164622,-5.743257,1.4513819,1.5191305,-0.39295223,-1.393001,10.08724781,2.098242244,crawl
16/03/2021, 14:44:29,-8.056846,-5.8175025,1.6142433,1.5191305,-0.39295223,-1.393001,10.06786366,2.098242244,crawl
16/03/2021, 14:44:29,-8.056846,-5.8175025,1.6142433,1.5948777,-0.39050877,-1.4882959,10.06786366,2.216112986,crawl
16/03/2021, 14:44:29,-8.032896,-5.848638,1.6070582,1.5948777,-0.39050877,-1.4882959,10.06561582,2.216112986,crawl
16/03/2021, 14:44:29,-8.032896,-5.848638,1.6070582,1.670625,-0.3636307,-1.5701518,10.06561582,2.321334052,crawl
16/03/2021, 14:44:29,-7.879615,-5.8055277,1.7292042,1.670625,-0.3636307,-1.5701518,9.938945049,2.321334052,crawl
16/03/2021, 14:44:29,-7.879615,-5.8055277,1.7292042,1.7622547,-0.2976573,-1.63246,9.938945049,2.420551012,crawl
16/03/2021, 14:44:29,-7.661668,-5.6594315,1.707649,1.7622547,-0.2976573,-1.63246,9.677106145,2.420551012,crawl
16/03/2021, 14:44:29,-7.661668,-5.6594315,1.707649,1.8612149,-0.20236234,-1.6739988,9.677106145,2.511442499,crawl
16/03/2021, 14:44:29,-7.565867,-5.5516553,1.6932789,1.8612149,-0.20236234,-1.6739988,9.535743946,2.511442499,crawl
16/03/2021, 14:44:30,-1.7148341,-6.2869267,6.813831,0.42446035,-0.13028027,-0.8016836,9.428382405,0.916425742,crawl
16/03/2021, 14:44:30,-1.7028589,-6.325247,6.7779055,0.42446035,-0.13028027,-0.8016836,9.425947073,0.916425742,crawl
16/03/2021, 14:44:30,-1.7028589,-6.325247,6.7779055,0.40979958,-0.12172817,-0.77602726,9.425947073,0.885986315,crawl
16/03/2021, 14:44:30,-1.6908839,-6.346802,6.7371902,0.40979958,-0.12172817,-0.77602726,9.409076432,0.885986315,crawl
16/03/2021, 14:44:30,-1.6908839,-6.346802,6.7371902,0.3975823,-0.11928471,-0.7491492,9.409076432,0.85646077,crawl
16/03/2021, 14:44:30,-1.5926881,-6.3970976,6.8042507,0.3975823,-0.11928471,-0.7491492,9.47403508,0.85646077,crawl
16/03/2021, 14:44:30,-1.5926881,-6.3970976,6.8042507,0.39147362,-0.13028027,-0.72593635,9.47403508,0.834989901,crawl
16/03/2021, 14:44:30,-1.5352076,-6.4018874,6.813831,0.39147362,-0.13028027,-0.72593635,9.474667057,0.834989901,crawl
16/03/2021, 14:44:30,-1.5352076,-6.4018874,6.813831,0.38780844,-0.13761064,-0.70394516,9.474667057,0.81539614,crawl
16/03/2021, 14:44:30,-1.4178516,-6.440208,6.830596,0.38780844,-0.13761064,-0.70394516,9.494399555,0.81539614,crawl
16/03/2021, 14:44:30,-1.4178516,-6.440208,6.830596,0.38414326,-0.1400541,-0.6831758,9.494399555,0.796184888,crawl
16/03/2021, 14:44:30,-1.3747413,-6.449788,6.799461,0.38414326,-0.1400541,-0.6831758,9.472188158,0.796184888,crawl
16/03/2021, 14:44:30,-1.3747413,-6.449788,6.799461,0.38047805,-0.13761064,-0.6611846,9.472188158,0.775155034,crawl
16/03/2021, 14:44:30,-1.3244458,-6.4905033,6.928792,0.38047805,-0.13761064,-0.6611846,9.585872344,0.775155034,crawl
16/03/2021, 14:44:30,-1.3244458,-6.4905033,6.928792,0.39147362,-0.12905854,-0.6355283,9.585872344,0.757498486,crawl
16/03/2021, 14:44:30,-1.2717555,-6.471343,6.967112,0.39147362,-0.12905854,-0.6355283,9.593554774,0.757498486,crawl
16/03/2021, 14:44:30,-1.2717555,-6.471343,6.967112,0.40857786,-0.12172817,-0.6147589,9.593554774,0.748119061,crawl
16/03/2021, 14:44:30,-1.2909156,-6.454578,7.0413575,0.40857786,-0.12172817,-0.6147589,9.638918765,0.748119061,crawl
16/03/2021, 14:44:30,-1.2909156,-6.454578,7.0413575,0.42446035,-0.11195433,-0.60254157,9.638918765,0.745490913,crawl
16/03/2021, 14:44:30,-1.2909156,-6.447393,7.0341725,0.42446035,-0.11195433,-0.60254157,9.628858816,0.745490913,crawl
16/03/2021, 14:44:31,1.9926564,-5.637876,6.006709,-0.64333165,-0.48580372,0.9710467,8.475663968,1.26206677,crawl
16/03/2021, 14:44:31,1.9160157,-5.345684,6.09293,-0.64333165,-0.48580372,0.9710467,8.32894041,1.26206677,crawl
16/03/2021, 14:44:31,1.9160157,-5.345684,6.09293,-0.6738749,-0.5346729,1.060233,8.32894041,1.365311882,crawl
16/03/2021, 14:44:31,1.6884888,-5.130132,5.9133034,-0.6738749,-0.5346729,1.060233,8.008520946,1.365311882,crawl
16/03/2021, 14:44:31,1.6884888,-5.130132,5.9133034,-0.7508439,-0.5505554,1.1481975,8.008520946,1.478254161,crawl
16/03/2021, 14:44:31,1.5040723,-4.9289503,5.7696023,-0.7508439,-0.5505554,1.1481975,7.735961178,1.478254161,crawl
16/03/2021, 14:44:31,1.5040723,-4.9289503,5.7696023,-0.8803473,-0.55299884,1.2056189,7.735961178,1.591959779,crawl
16/03/2021, 14:44:31,1.2693604,-4.9864306,5.6666164,-0.8803473,-0.55299884,1.2056189,7.654169343,1.591959779,crawl
16/03/2021, 14:44:31,1.2693604,-4.9864306,5.6666164,-1.0379505,-0.5652161,1.2337186,7.654169343,1.708470722,crawl
16/03/2021, 14:44:31,0.9651929,-5.3121533,5.4414845,-1.0379505,-0.5652161,1.2337186,7.665528259,1.708470722,crawl
16/03/2021, 14:44:31,0.9651929,-5.3121533,5.4414845,-1.2419794,-0.5994246,1.254488,7.665528259,1.864286111,crawl
16/03/2021, 14:44:31,0.56522465,-5.752837,5.269043,-1.2419794,-0.5994246,1.254488,7.821600114,1.864286111,crawl
16/03/2021, 14:44:31,0.56522465,-5.752837,5.269043,-1.433791,-0.65806764,1.2740357,7.821600114,2.027800956,crawl
16/03/2021, 14:44:31,0.18441652,-6.239026,5.1612673,-1.433791,-0.65806764,1.2740357,8.099267602,2.027800956,crawl
16/03/2021, 14:44:31,0.18441652,-6.239026,5.1612673,-1.5425249,-0.74481046,1.3033572,8.099267602,2.152409324,crawl
16/03/2021, 14:44:31,-0.16286133,-6.6270194,5.039121,-1.5425249,-0.74481046,1.3033572,8.326863274,2.152409324,crawl
16/03/2021, 14:44:31,-0.16286133,-6.6270194,5.039121,-1.5522988,-0.8486575,1.3412309,8.326863274,2.220079119,crawl
16/03/2021, 14:44:31,-0.18681154,-6.8665214,4.888235,-1.5522988,-0.8486575,1.3412309,8.430827743,2.220079119,crawl
16/03/2021, 14:44:31,-0.18681154,-6.8665214,4.888235,-1.5083165,-0.96472186,1.3754393,8.430827743,2.257773286,crawl
16/03/2021, 14:44:31,-0.16525635,-6.974297,4.526587,-1.5083165,-0.96472186,1.3754393,8.316136057,2.257773286,crawl
16/03/2021, 14:44:32,-2.5842261,-8.885523,2.562671,-0.7398483,-0.42960414,-0.30077428,9.601980174,0.906862953,crawl
16/03/2021, 14:44:32,-2.5578809,-8.892708,2.6656568,-0.7398483,-0.42960414,-0.30077428,9.629575964,0.906862953,crawl
16/03/2021, 14:44:32,-2.5578809,-8.892708,2.6656568,-0.7532874,-0.46136913,-0.28855696,9.629575964,0.929283843,crawl
16/03/2021, 14:44:32,-2.4525,-8.873548,2.684817,-0.7532874,-0.46136913,-0.28855696,9.589726049,0.929283843,crawl
16/03/2021, 14:44:32,-2.4525,-8.873548,2.684817,-0.7374049,-0.45281702,-0.26412237,9.589726049,0.904748497,crawl
16/03/2021, 14:44:32,-2.2489235,-8.811277,2.6896071,-0.7374049,-0.45281702,-0.26412237,9.483156274,0.904748497,crawl
16/03/2021, 14:44:32,-2.2489235,-8.811277,2.6896071,-0.7300745,-0.41005647,-0.24213122,9.483156274,0.87165512,crawl
16/03/2021, 14:44:32,-2.0860622,-8.744217,2.5530908,-0.7300745,-0.41005647,-0.24213122,9.345119458,0.87165512,crawl
16/03/2021, 14:44:32,-2.0860622,-8.744217,2.5530908,-0.73618317,-0.35019168,-0.23846602,9.345119458,0.849391496,crawl
16/03/2021, 14:44:32,-1.9327809,-8.667576,2.4740553,-0.73618317,-0.35019168,-0.23846602,9.218647532,0.849391496,crawl
16/03/2021, 14:44:32,-1.9327809,-8.667576,2.4740553,-0.76428294,-0.28544,-0.25434855,9.218647532,0.854574508,crawl
16/03/2021, 14:44:32,-1.9711012,-8.5430355,2.435735,-0.76428294,-0.28544,-0.25434855,9.099532977,0.854574508,crawl
16/03/2021, 14:44:32,-1.9711012,-8.5430355,2.435735,-0.80215657,-0.2170231,-0.2812266,9.099532977,0.877292762,crawl
16/03/2021, 14:44:32,-2.0094216,-8.418494,2.3016138,-0.80215657,-0.2170231,-0.2812266,8.955794004,0.877292762,crawl
16/03/2021, 14:44:32,-2.0094216,-8.418494,2.3016138,-0.8571344,-0.1596018,-0.29955256,8.955794004,0.921891453,crawl
16/03/2021, 14:44:32,-2.090852,-8.262817,2.1770728,-0.8571344,-0.1596018,-0.29955256,8.796900539,0.921891453,crawl
16/03/2021, 14:44:32,-2.090852,-8.262817,2.1770728,-0.91577744,-0.1351672,-0.2983308,8.796900539,0.97258407,crawl
16/03/2021, 14:44:32,-2.1124072,-8.126302,1.9399658,-0.91577744,-0.1351672,-0.2983308,8.617569963,0.97258407,crawl
16/03/2021, 14:44:32,-2.1124072,-8.126302,1.9399658,-0.976864,-0.14127584,-0.28244832,8.617569963,1.026644609,crawl
16/03/2021, 14:44:32,-2.1124072,-8.126302,1.9399658,-1.0440592,-0.16082352,-0.2653441,8.617569963,1.089188335,crawl
16/03/2021, 14:44:33,-4.2104445,-8.629255,1.8872755,-0.055679552,-0.010550734,0.26122153,9.785381856,0.267297993,crawl
16/03/2021, 14:44:33,-4.2032595,-8.595725,1.8369801,-0.055679552,-0.010550734,0.26122153,9.743119385,0.267297993,crawl
16/03/2021, 14:44:33,-4.2032595,-8.595725,1.8369801,0.016402518,-0.004442084,0.29909515,9.743119385,0.299577512,crawl
16/03/2021, 14:44:33,-4.2272096,-8.705896,1.8250049,0.016402518,-0.004442084,0.29909515,9.848480872,0.299577512,crawl
16/03/2021, 14:44:33,-4.2272096,-8.705896,1.8250049,0.07871075,0.012662137,0.32963842,9.848480872,0.339141859,crawl
16/03/2021, 14:44:33,-4.311035,-8.792117,1.8872755,0.07871075,0.012662137,0.32963842,9.972369638,0.339141859,crawl
16/03/2021, 14:44:33,-4.311035,-8.792117,1.8872755,0.13491033,0.030988088,0.35040784,9.972369638,0.376758162,crawl
16/03/2021, 14:44:33,-4.380491,-8.933423,1.9088306,0.13491033,0.030988088,0.35040784,10.13106022,0.376758162,crawl
16/03/2021, 14:44:33,-4.380491,-8.933423,1.9088306,0.19110991,0.05053577,0.3614034,10.13106022,0.411933591,crawl
16/03/2021, 14:44:33,-4.406836,-8.995694,2.0046315,0.19110991,0.05053577,0.3614034,10.21573613,0.411933591,crawl
16/03/2021, 14:44:33,-4.406836,-8.995694,2.0046315,0.24853122,0.06641825,0.3699555,10.21573613,0.450606516,crawl
16/03/2021, 14:44:33,-4.4523416,-8.971744,1.9447559,0.24853122,0.06641825,0.3699555,10.20282333,0.450606516,crawl
16/03/2021, 14:44:33,-4.4523416,-8.971744,1.9447559,0.30961773,0.07252691,0.37484244,10.20282333,0.491558889,crawl
16/03/2021, 14:44:33,-4.4355764,-8.911868,1.8968556,0.30961773,0.07252691,0.37484244,10.13379457,0.491558889,crawl
16/03/2021, 14:44:33,-4.4355764,-8.911868,1.8968556,0.35970867,0.067639984,0.3699555,10.13379457,0.520415768,crawl
16/03/2021, 14:44:33,-4.3278003,-8.854387,1.9303858,0.35970867,0.067639984,0.3699555,10.04272965,0.520415768,crawl
16/03/2021, 14:44:33,-4.3278003,-8.854387,1.9303858,0.39147362,0.06275307,0.36384687,10.04272965,0.538120885,crawl
16/03/2021, 14:44:33,-4.2751102,-8.813672,1.9255958,0.39147362,0.06275307,0.36384687,9.98325107,0.538120885,crawl
16/03/2021, 14:44:33,-4.2751102,-8.813672,1.9255958,0.4061344,0.06153134,0.35529473,9.98325107,0.543107358,crawl
16/03/2021, 14:44:33,-4.311035,-8.739427,1.9782863,0.4061344,0.06153134,0.35529473,9.943652156,0.543107358,crawl
16/03/2021, 14:44:34,-4.517007,-7.9778104,3.0249097,-0.012919003,-0.001998623,-0.22624873,9.653957142,0.226626082,crawl
16/03/2021, 14:44:34,-4.5074267,-7.92991,3.0009596,-0.012919003,-0.001998623,-0.22624873,9.602402306,0.226626082,crawl
16/03/2021, 14:44:34,-4.5074267,-7.92991,3.0009596,-0.04101879,-0.012994194,-0.23235738,9.602402306,0.236307731,crawl
16/03/2021, 14:44:34,-4.4667115,-7.90117,3.06802,-0.04101879,-0.012994194,-0.23235738,9.580852938,0.236307731,crawl
16/03/2021, 14:44:34,-4.4667115,-7.90117,3.06802,-0.052014362,-0.030098414,-0.24090949,9.580852938,0.248291742,crawl
16/03/2021, 14:44:34,-4.404441,-7.941885,3.1614258,-0.052014362,-0.030098414,-0.24090949,9.615989289,0.248291742,crawl
16/03/2021, 14:44:34,-4.404441,-7.941885,3.1614258,-0.064231664,-0.04353744,-0.25068334,9.615989289,0.262418275,crawl
16/03/2021, 14:44:34,-4.385281,-7.9562554,3.1374757,-0.064231664,-0.04353744,-0.25068334,9.611266551,0.262418275,crawl
16/03/2021, 14:44:34,-4.385281,-7.9562554,3.1374757,-0.07522724,-0.050867822,-0.25801373,9.611266551,0.273528344,crawl
16/03/2021, 14:44:34,-4.3254056,-7.9610453,3.2500417,-0.07522724,-0.050867822,-0.25801373,9.625494611,0.273528344,crawl
16/03/2021, 14:44:34,-4.3254056,-7.9610453,3.2500417,-0.072783776,-0.04720263,-0.26778758,9.625494611,0.281488458,crawl
16/03/2021, 14:44:34,-4.27032,-8.025711,3.2404616,-0.072783776,-0.04720263,-0.26778758,9.65133471,0.281488458,crawl
16/03/2021, 14:44:34,-4.27032,-8.025711,3.2404616,-0.07400551,-0.030098414,-0.28367007,9.65133471,0.294705679,crawl
16/03/2021, 14:44:34,-4.2343946,-8.061636,3.2069314,-0.07400551,-0.030098414,-0.28367007,9.654246757,0.294705679,crawl
16/03/2021, 14:44:34,-4.2343946,-8.061636,3.2069314,-0.08255762,-0.001998623,-0.30443946,9.654246757,0.315441178,crawl
16/03/2021, 14:44:34,-4.129014,-8.135881,3.1135256,-0.08255762,-0.001998623,-0.30443946,9.640299016,0.315441178,crawl
16/03/2021, 14:44:34,-4.129014,-8.135881,3.1135256,-0.085001074,0.030988088,-0.32887405,9.640299016,0.341091756,crawl
16/03/2021, 14:44:34,-4.1146436,-8.152647,3.0368848,-0.085001074,0.030988088,-0.32887405,9.623856521,0.341091756,crawl
16/03/2021, 14:44:34,-4.1146436,-8.152647,3.0368848,-0.08377934,0.0639748,-0.35086522,9.623856521,0.366357956,crawl
16/03/2021, 14:44:34,-4.0763235,-8.143066,2.8836036,-0.08377934,0.0639748,-0.35086522,9.552021431,0.366357956,crawl
16/03/2021, 14:44:35,-5.4055595,0.17483643,9.242381,0.39391708,0.11162227,-0.26778758,10.70851297,0.489224269,crawl
16/03/2021, 14:44:35,-5.4055595,0.17483643,9.242381,0.3206133,0.12750477,-0.1272886,10.70851297,0.367767231,crawl
16/03/2021, 14:44:35,-5.8127127,0.30895755,9.187295,0.3206133,0.12750477,-0.1272886,10.87609636,0.367767231,crawl
16/03/2021, 14:44:35,-5.8127127,0.30895755,9.187295,0.2595268,0.074970365,0.010766893,10.87609636,0.270352799,crawl
16/03/2021, 14:44:35,-5.4534597,0.7759864,8.715476,0.2595268,0.074970365,0.010766893,10.3102813,0.270352799,crawl
16/03/2021, 14:44:35,-5.4534597,0.7759864,8.715476,0.16178839,-0.033763602,0.051083982,10.3102813,0.172988546,crawl
16/03/2021, 14:44:35,-5.4031644,1.0059083,8.598121,0.16178839,-0.033763602,0.051083982,10.2045929,0.172988546,crawl
16/03/2021, 14:44:35,-5.4031644,1.0059083,8.598121,0.0481675,-0.1596018,0.042531874,10.2045929,0.172051738,crawl
16/03/2021, 14:44:35,-5.4031644,1.0059083,8.598121,-0.085001074,-0.26344886,0.027871115,10.2045929,0.278221648,crawl
16/03/2021, 14:44:35,-5.3384986,0.7089258,8.734636,-0.085001074,-0.26344886,0.027871115,10.26138462,0.278221648,crawl
16/03/2021, 14:44:35,-5.4175344,0.07185059,8.993299,-0.085001074,-0.26344886,0.027871115,10.49925042,0.278221648,crawl
16/03/2021, 14:44:35,-5.4175344,0.07185059,8.993299,-0.20961754,-0.35263515,0.025427654,10.49925042,0.411020224,crawl
16/03/2021, 14:44:35,-5.264253,-0.5245093,9.3309965,-0.20961754,-0.35263515,0.025427654,10.72636784,0.411020224,crawl
16/03/2021, 14:44:35,-5.264253,-0.5245093,9.3309965,-0.28047788,-0.46014738,0.031536303,10.72636784,0.539812924,crawl
16/03/2021, 14:44:35,-5.142107,-1.1328443,9.83874,-0.28047788,-0.46014738,0.031536303,11.1590955,0.539812924,crawl
16/03/2021, 14:44:35,-5.142107,-1.1328443,9.83874,-0.25237808,-0.59087247,0.049862254,11.1590955,0.644446437,crawl
16/03/2021, 14:44:35,-5.0846267,-1.587898,10.614727,-0.25237808,-0.59087247,0.049862254,11.87633269,0.644446437,crawl
16/03/2021, 14:44:35,-5.0846267,-1.587898,10.614727,-0.106992215,-0.70449334,0.08529243,11.87633269,0.717657999,crawl
16/03/2021, 14:44:35,-5.0534916,-2.1052222,11.409874,-0.106992215,-0.70449334,0.08529243,12.65523456,0.717657999,crawl
16/03/2021, 14:44:35,-5.0534916,-2.1052222,11.409874,0.0970367,-0.72770625,0.14027028,12.65523456,0.747427764,crawl
16/03/2021, 14:44:36,-1.0490186,-0.2778223,8.696317,0.05427615,-0.27566615,0.28199095,8.763763448,0.398066098,crawl
16/03/2021, 14:44:36,-1.0490186,-0.2778223,8.696317,0.026176358,-0.25978366,0.29665172,8.763763448,0.395189819,crawl
16/03/2021, 14:44:36,-1.0538087,-0.1820215,8.602911,0.026176358,-0.25978366,0.29665172,8.669124649,0.395189819,crawl
16/03/2021, 14:44:36,-1.0538087,-0.1820215,8.602911,-0.027579764,-0.25000983,0.31375593,8.669124649,0.40212976,crawl
16/03/2021, 14:44:36,-1.0130934,-0.07185059,8.619676,-0.027579764,-0.25000983,0.31375593,8.679304622,0.40212976,crawl
16/03/2021, 14:44:36,-1.0130934,-0.07185059,8.619676,-0.08866627,-0.23657079,0.32841668,8.679304622,0.414348837,crawl
16/03/2021, 14:44:36,-0.92208254,-0.031135255,8.617281,-0.08866627,-0.23657079,0.32841668,8.666529684,0.414348837,crawl
16/03/2021, 14:44:36,-0.92208254,-0.031135255,8.617281,-0.135092,-0.21580137,0.34307745,8.666529684,0.427226193,crawl
16/03/2021, 14:44:36,-0.9196875,-0.021555176,8.624466,-0.135092,-0.21580137,0.34307745,8.673390487,0.427226193,crawl
16/03/2021, 14:44:36,-0.9196875,-0.021555176,8.624466,-0.15219623,-0.18647985,0.37117723,8.673390487,0.442392315,crawl
16/03/2021, 14:44:36,-0.9268726,-0.08861572,8.708291,-0.15219623,-0.18647985,0.37117723,8.757926619,0.442392315,crawl
16/03/2021, 14:44:36,-0.9268726,-0.08861572,8.708291,-0.1424224,-0.15715833,0.40049875,8.757926619,0.453191048,crawl
16/03/2021, 14:44:36,-0.86220706,-0.07424561,8.674761,-0.1424224,-0.15715833,0.40049875,8.717820179,0.453191048,crawl
16/03/2021, 14:44:36,-0.86220706,-0.07424561,8.674761,-0.121652976,-0.13028027,0.42004645,8.717820179,0.45630189,crawl
16/03/2021, 14:44:36,-0.80233157,-0.00239502,8.732242,-0.121652976,-0.13028027,0.42004645,8.769024209,0.45630189,crawl
16/03/2021, 14:44:36,-0.80233157,-0.00239502,8.732242,-0.085001074,-0.10340222,0.42982027,8.769024209,0.450180703,crawl
16/03/2021, 14:44:36,-0.77359134,-0.040715333,8.847202,-0.085001074,-0.10340222,0.42982027,8.881052294,0.450180703,crawl
16/03/2021, 14:44:36,-0.77359134,-0.040715333,8.847202,-0.04468398,-0.06552859,0.4469245,8.881052294,0.453907666,crawl
16/03/2021, 14:44:36,-0.74724615,-0.15328126,8.801697,-0.04468398,-0.06552859,0.4469245,8.834689474,0.453907666,crawl
16/03/2021, 14:44:36,-0.74724615,-0.15328126,8.801697,-0.023914574,-0.010550734,0.4872416,8.834689474,0.487942207,crawl
16/03/2021, 14:44:37,-1.8944606,-2.3471193,9.424402,-0.43075067,-0.4931341,0.58864516,9.895317453,0.880471757,crawl
16/03/2021, 14:44:37,-1.9040406,-2.3064039,9.417217,-0.43075067,-0.4931341,0.58864516,9.880731257,0.880471757,crawl
16/03/2021, 14:44:37,-1.9040406,-2.3064039,9.417217,-0.44296798,-0.49924275,0.566654,9.880731257,0.875534548,crawl
16/03/2021, 14:44:37,-1.8944606,-2.4093897,9.405242,-0.44296798,-0.49924275,0.566654,9.892053181,0.875534548,crawl
16/03/2021, 14:44:37,-1.8944606,-2.4093897,9.405242,-0.45029834,-0.4882472,0.55565846,9.892053181,0.865973575,crawl
16/03/2021, 14:44:37,-1.8657203,-2.565066,9.350157,-0.45029834,-0.4882472,0.55565846,9.873495233,0.865973575,crawl
16/03/2021, 14:44:37,-1.8657203,-2.565066,9.350157,-0.4478549,-0.4638126,0.5605454,9.873495233,0.854346103,crawl
16/03/2021, 14:44:37,-1.8010547,-2.6560767,9.2184305,-0.4478549,-0.4638126,0.5605454,9.761045159,0.854346103,crawl
16/03/2021, 14:44:37,-1.8010547,-2.6560767,9.2184305,-0.43319413,-0.44182146,0.57154095,9.761045159,0.842331534,crawl
16/03/2021, 14:44:37,-1.7723145,-2.6896071,9.14179,-0.43319413,-0.44182146,0.57154095,9.692647573,0.842331534,crawl
16/03/2021, 14:44:37,-1.7723145,-2.6896071,9.14179,-0.40509436,-0.4198303,0.58498,9.692647573,0.826172212,crawl
16/03/2021, 14:44:37,-1.6717237,-2.7015822,9.0148535,-0.40509436,-0.4198303,0.58498,9.55828383,0.826172212,crawl
16/03/2021, 14:44:37,-1.6717237,-2.7015822,9.0148535,-0.36966416,-0.39783916,0.6057494,9.55828383,0.813547761,crawl
16/03/2021, 14:44:37,-1.6118482,-2.8141482,8.885523,-0.36966416,-0.39783916,0.6057494,9.458858332,0.813547761,crawl
16/03/2021, 14:44:37,-1.6118482,-2.8141482,8.885523,-0.33912092,-0.36607417,0.64117956,9.458858332,0.812480482,crawl
16/03/2021, 14:44:37,-1.6549586,-2.7901978,8.868757,-0.33912092,-0.36607417,0.64117956,9.443460549,0.812480482,crawl
16/03/2021, 14:44:37,-1.6549586,-2.7901978,8.868757,-0.31224287,-0.330644,0.6814967,9.443460549,0.819303847,crawl
16/03/2021, 14:44:37,-1.6334034,-2.792593,8.840017,-0.31224287,-0.330644,0.6814967,9.413420664,0.819303847,crawl
16/03/2021, 14:44:37,-1.6334034,-2.792593,8.840017,-0.28658652,-0.3013225,0.7169268,9.413420664,0.828801022,crawl
16/03/2021, 14:44:37,-1.7723145,-2.912344,8.933423,-0.28658652,-0.3013225,0.7169268,9.561845719,0.828801022,crawl
16/03/2021, 14:44:38,2.059717,-7.151529,6.1528053,-0.7765002,0.23135182,-0.41317344,9.656283548,0.909499068,crawl
16/03/2021, 14:44:38,2.0980372,-7.27128,6.1719656,-0.7765002,0.23135182,-0.41317344,9.765573702,0.909499068,crawl
16/03/2021, 14:44:38,2.0980372,-7.27128,6.1719656,-0.7716133,0.20325203,-0.40095612,9.765573702,0.893008559,crawl
16/03/2021, 14:44:38,2.074087,-7.4676714,6.2653713,-0.7716133,0.20325203,-0.40095612,9.966084003,0.893008559,crawl
16/03/2021, 14:44:38,2.074087,-7.4676714,6.2653713,-0.7618395,0.16782185,-0.39240402,9.966084003,0.873237956,crawl
16/03/2021, 14:44:38,1.9902613,-7.774234,6.3875175,-0.7618395,0.16782185,-0.39240402,10.25671637,0.873237956,crawl
16/03/2021, 14:44:38,1.9902613,-7.774234,6.3875175,-0.74962217,0.13605687,-0.38629538,10.25671637,0.85420664,crawl
16/03/2021, 14:44:38,1.9447559,-7.94907,6.3635674,-0.74962217,0.13605687,-0.38629538,10.36652201,0.85420664,crawl
16/03/2021, 14:44:38,1.9447559,-7.94907,6.3635674,-0.72885275,0.13239169,-0.378965,10.36652201,0.832086746,crawl
16/03/2021, 14:44:38,1.9040406,-7.9802055,6.342012,-0.72885275,0.13239169,-0.378965,10.36967532,0.832086746,crawl
16/03/2021, 14:44:38,1.9040406,-7.9802055,6.342012,-0.668988,0.13605687,-0.3716346,10.36967532,0.777282883,crawl
16/03/2021, 14:44:38,1.81782,-7.941885,6.231841,-0.668988,0.13605687,-0.3716346,10.25738027,0.777282883,crawl
16/03/2021, 14:44:38,1.81782,-7.941885,6.231841,-0.5663627,0.14460899,-0.3667477,10.25738027,0.690059653,crawl
16/03/2021, 14:44:38,1.8130299,-7.8412943,6.1767554,-0.5663627,0.14460899,-0.3667477,10.14520976,0.690059653,crawl
16/03/2021, 14:44:38,1.8130299,-7.8412943,6.1767554,-0.43930277,0.13972206,-0.35330868,10.14520976,0.580806511,crawl
16/03/2021, 14:44:38,1.8513502,-7.699988,6.047425,-0.43930277,0.13972206,-0.35330868,9.964369405,0.580806511,crawl
16/03/2021, 14:44:38,1.8513502,-7.699988,6.047425,-0.3220167,0.117730916,-0.33986965,9.964369405,0.482769813,crawl
16/03/2021, 14:44:38,1.9303858,-7.6161623,5.927674,-0.3220167,0.117730916,-0.33986965,9.842237271,0.482769813,crawl
16/03/2021, 14:44:38,1.9303858,-7.6161623,5.927674,-0.23893906,0.07985728,-0.33376098,9.842237271,0.418169165,crawl
16/03/2021, 14:44:38,2.0190015,-7.3479204,5.831873,-0.23893906,0.07985728,-0.33376098,9.595782586,0.418169165,crawl
16/03/2021, 14:44:39,3.3266823,-4.9337406,8.689131,0.9791258,-0.2683358,1.1653018,10.53136295,1.545516001,crawl
16/03/2021, 14:44:39,3.5182838,-4.6918435,8.547825,0.9791258,-0.2683358,1.1653018,10.36614811,1.545516001,crawl
16/03/2021, 14:44:39,3.5182838,-4.6918435,8.547825,1.1281769,-0.11195433,1.1616366,10.36614811,1.623180989,crawl
16/03/2021, 14:44:39,3.5853443,-4.524192,8.514295,1.1281769,-0.11195433,1.1616366,10.28670106,1.623180989,crawl
16/03/2021, 14:44:39,3.5853443,-4.524192,8.514295,1.2344674,0.076192096,1.1762973,10.28670106,1.706865642,crawl
16/03/2021, 14:44:39,3.530259,-4.2104445,8.284373,1.2344674,0.076192096,1.1762973,9.940895887,1.706865642,crawl
16/03/2021, 14:44:39,3.530259,-4.2104445,8.284373,1.3224319,0.19958684,1.2007319,9.940895887,1.797336398,crawl
16/03/2021, 14:44:39,3.412903,-3.8487966,8.217313,1.3224319,0.19958684,1.2007319,9.694605332,1.797336398,crawl
16/03/2021, 14:44:39,3.412903,-3.8487966,8.217313,1.3835185,0.24356912,1.2080623,9.694605332,1.852798893,crawl
16/03/2021, 14:44:39,3.290757,-3.5877395,8.121511,1.3835185,0.24356912,1.2080623,9.468891388,1.852798893,crawl
16/03/2021, 14:44:39,3.290757,-3.5877395,8.121511,1.3786315,0.23379527,1.1921798,9.468891388,1.837546636,crawl
16/03/2021, 14:44:39,3.1470559,-3.439248,7.965835,1.3786315,0.23379527,1.1921798,9.229675875,1.837546636,crawl
16/03/2021, 14:44:39,3.1470559,-3.439248,7.965835,1.2833366,0.2020303,1.182406,9.229675875,1.756659614,crawl
16/03/2021, 14:44:39,2.9530592,-3.300337,7.9059596,1.2833366,0.2020303,1.182406,9.061842016,1.756659614,crawl
16/03/2021, 14:44:39,2.9530592,-3.300337,7.9059596,1.1208465,0.17393051,1.2043971,9.061842016,1.65442469,crawl
16/03/2021, 14:44:39,2.804568,-3.1973512,7.975415,1.1208465,0.17393051,1.2043971,9.038578697,1.65442469,crawl
16/03/2021, 14:44:39,2.804568,-3.1973512,7.975415,0.9278132,0.1494959,1.2447143,9.038578697,1.559647363,crawl
16/03/2021, 14:44:39,2.7111623,-3.0943654,8.0305,0.9278132,0.1494959,1.2447143,9.022994792,1.559647363,crawl
16/03/2021, 14:44:39,2.7111623,-3.0943654,8.0305,0.73233634,0.11895265,1.2630402,9.022994792,1.464833355,crawl
16/03/2021, 14:44:39,2.7686427,-2.9985645,8.128696,0.73233634,0.11895265,1.2630402,9.095739497,1.464833355,crawl
16/03/2021, 14:44:40,2.7231374,-5.7552323,7.6401124,0.36826077,0.07985728,-0.36063904,9.945325228,0.521587668,crawl
16/03/2021, 14:44:40,2.7063723,-5.606741,7.680828,0.36826077,0.07985728,-0.36063904,9.887118647,0.521587668,crawl
16/03/2021, 14:44:40,2.7063723,-5.606741,7.680828,0.37925634,0.05542269,-0.34964347,9.887118647,0.518804009,crawl
16/03/2021, 14:44:40,2.7662477,-5.4678297,7.704778,0.37925634,0.05542269,-0.34964347,9.844434738,0.518804009,crawl
16/03/2021, 14:44:40,2.7662477,-5.4678297,7.704778,0.36459556,0.04809231,-0.3459783,9.844434738,0.504919569,crawl
16/03/2021, 14:44:40,2.804568,-5.295388,7.7335186,0.36459556,0.04809231,-0.3459783,9.783355678,0.504919569,crawl
16/03/2021, 14:44:40,2.804568,-5.295388,7.7335186,0.3377175,0.046870578,-0.3423131,9.783355678,0.483144108,crawl
16/03/2021, 14:44:40,2.8141482,-5.221143,7.7071733,0.3377175,0.046870578,-0.3423131,9.725239475,0.483144108,crawl
16/03/2021, 14:44:40,2.8141482,-5.221143,7.7071733,0.29862216,0.043205388,-0.33253926,9.725239475,0.449025902,crawl
16/03/2021, 14:44:40,2.8380983,-5.1564775,7.767049,0.29862216,0.043205388,-0.33253926,9.745312166,0.449025902,crawl
16/03/2021, 14:44:40,2.8380983,-5.1564775,7.767049,0.24975295,0.032209817,-0.30810466,9.745312166,0.397922724,crawl
16/03/2021, 14:44:40,2.816543,-5.0487013,7.6664577,0.24975295,0.032209817,-0.30810466,9.60192026,0.397922724,crawl
16/03/2021, 14:44:40,2.816543,-5.0487013,7.6664577,0.20088375,0.024879437,-0.2812266,9.60192026,0.346499162,crawl
16/03/2021, 14:44:40,2.8404932,-4.988826,7.676038,0.20088375,0.024879437,-0.2812266,9.585319014,0.346499162,crawl
16/03/2021, 14:44:40,2.8404932,-4.988826,7.676038,0.15323628,0.022435976,-0.25801373,9.585319014,0.300924932,crawl
16/03/2021, 14:44:40,2.912344,-4.9385304,7.6137676,0.15323628,0.022435976,-0.25801373,9.531017146,0.300924932,crawl
16/03/2021, 14:44:40,2.912344,-4.9385304,7.6137676,0.101923615,0.027322898,-0.24090949,9.531017146,0.263006359,crawl
16/03/2021, 14:44:40,2.8668385,-4.8906302,7.661668,0.101923615,0.027322898,-0.24090949,9.530906608,0.263006359,crawl
16/03/2021, 14:44:40,2.8668385,-4.8906302,7.661668,0.05183269,0.03465328,-0.22136182,9.530906608,0.229975066,crawl
16/03/2021, 14:44:40,2.8764186,-4.9241605,7.568262,0.05183269,0.03465328,-0.22136182,9.476272029,0.229975066,crawl
16/03/2021, 14:44:41,-0.35685793,4.416416,9.093889,0.017624248,0.30954254,0.21601754,10.1158737,0.377876667,crawl
16/03/2021, 14:44:41,-0.4023633,4.351751,9.192085,0.017624248,0.30954254,0.21601754,10.17811688,0.377876667,crawl
16/03/2021, 14:44:41,-0.4023633,4.351751,9.192085,-0.019027652,0.2997687,0.17447872,10.17811688,0.347370324,crawl
16/03/2021, 14:44:41,-0.37122804,4.28469,9.237591,-0.019027652,0.2997687,0.17447872,10.18967426,0.347370324,crawl
16/03/2021, 14:44:41,-0.37122804,4.28469,9.237591,-0.03979706,0.29854694,0.13538335,10.18967426,0.330216192,crawl
16/03/2021, 14:44:41,-0.24908204,4.258345,9.211246,-0.03979706,0.29854694,0.13538335,10.15098958,0.330216192,crawl
16/03/2021, 14:44:41,-0.24908204,4.258345,9.211246,-0.055679552,0.30343387,0.109727025,10.15098958,0.32743296,crawl
16/03/2021, 14:44:41,-0.244292,4.351751,9.148975,-0.055679552,0.30343387,0.109727025,10.1341583,0.32743296,crawl
16/03/2021, 14:44:41,-0.244292,4.351751,9.148975,-0.06300993,0.3168729,0.117057405,10.1341583,0.343629334,crawl
16/03/2021, 14:44:41,-0.23471193,4.493057,9.096285,-0.06300993,0.3168729,0.117057405,10.14815487,0.343629334,crawl
16/03/2021, 14:44:41,-0.23471193,4.493057,9.096285,-0.06667513,0.3290902,0.14149201,10.14815487,0.364370589,crawl
16/03/2021, 14:44:41,-0.18441652,4.727769,9.026829,-0.06667513,0.3290902,0.14149201,10.19163607,0.364370589,crawl
16/03/2021, 14:44:41,-0.18441652,4.727769,9.026829,-0.086222805,0.3290902,0.14271374,10.19163607,0.368919976,crawl
16/03/2021, 14:44:41,-0.21076173,4.9624805,8.909473,-0.086222805,0.3290902,0.14271374,10.20045834,0.368919976,crawl
16/03/2021, 14:44:41,-0.21076173,4.9624805,8.909473,-0.121652976,0.31076425,0.11827914,10.20045834,0.354067538,crawl
16/03/2021, 14:44:41,-0.2706372,5.127737,8.844808,-0.121652976,0.31076425,0.11827914,10.22729454,0.354067538,crawl
16/03/2021, 14:44:41,-0.2706372,5.127737,8.844808,-0.16563526,0.28144273,0.09750973,10.22729454,0.340812554,crawl
16/03/2021, 14:44:41,-0.35685793,5.1900077,8.765772,-0.16563526,0.28144273,0.09750973,10.19324697,0.340812554,crawl
16/03/2021, 14:44:41,-0.35685793,5.1900077,8.765772,-0.20473062,0.23379527,0.10117492,10.19324697,0.326819855,crawl
16/03/2021, 14:44:41,-0.34488282,5.2810183,8.722662,-0.20473062,0.23379527,0.10117492,10.20259427,0.326819855,crawl
16/03/2021, 14:44:42,-2.8141482,-10.324929,-0.004790039,-1.6940194,-1.2420546,1.9643131,10.70157076,2.875922041,crawl
16/03/2021, 14:44:42,-2.8620484,-10.219549,-0.22992188,-1.6940194,-1.2420546,1.9643131,10.61524236,2.875922041,crawl
16/03/2021, 14:44:42,-2.8620484,-10.219549,-0.22992188,-1.5926158,-1.1479814,2.0070739,10.61524236,2.807602551,crawl
16/03/2021, 14:44:42,-3.1207106,-10.327325,-0.57719976,-1.5926158,-1.1479814,2.0070739,10.80396377,2.807602551,crawl
16/03/2021, 14:44:42,-3.1207106,-10.327325,-0.57719976,-1.5156469,-1.1614205,2.0803776,10.80396377,2.823836751,crawl
16/03/2021, 14:44:42,-3.4655933,-10.3512745,-0.38320315,-1.5156469,-1.1614205,2.0803776,10.92273159,2.823836751,crawl
16/03/2021, 14:44:42,-3.4655933,-10.3512745,-0.38320315,-1.4044695,-1.2652675,2.1891117,10.92273159,2.892342727,crawl
16/03/2021, 14:44:42,-3.6380348,-10.506951,-0.5628296,-1.4044695,-1.2652675,2.1891117,11.13319814,2.892342727,crawl
16/03/2021, 14:44:42,-3.6380348,-10.506951,-0.5628296,-1.2920703,-1.4289793,2.264859,11.13319814,2.973384178,crawl
16/03/2021, 14:44:42,-3.7985013,-10.722503,-0.5843848,-1.2920703,-1.4289793,2.264859,11.39044256,2.973384178,crawl
16/03/2021, 14:44:42,-3.7985013,-10.722503,-0.5843848,-1.1698973,-1.5377133,2.3235018,11.39044256,3.021900499,crawl
16/03/2021, 14:44:42,-3.551814,-10.976375,-0.6706055,-1.1698973,-1.5377133,2.3235018,11.5562059,3.021900499,crawl
16/03/2021, 14:44:42,-3.551814,-10.976375,-0.6706055,-1.0636067,-1.5389351,2.3711493,11.5562059,3.020253208,crawl
16/03/2021, 14:44:42,-3.2380664,-11.165582,-0.40715334,-1.0636067,-1.5389351,2.3711493,11.63275818,3.020253208,crawl
16/03/2021, 14:44:42,-3.2380664,-11.165582,-0.40715334,-0.9121123,-1.358119,2.4114666,11.63275818,2.914036246,crawl
16/03/2021, 14:44:42,-2.7446926,-11.189531,-0.5508545,-0.9121123,-1.358119,2.4114666,11.53440026,2.914036246,crawl
16/03/2021, 14:44:42,-2.7446926,-11.189531,-0.5508545,-0.78260887,-1.1333207,2.445675,11.53440026,2.806816368,crawl
16/03/2021, 14:44:42,-3.0177248,-10.612332,-1.0490186,-0.78260887,-1.1333207,2.445675,11.08281104,2.806816368,crawl
16/03/2021, 14:44:42,-3.0177248,-10.612332,-1.0490186,-0.65921414,-1.0221432,2.4994311,11.08281104,2.779657548,crawl
16/03/2021, 14:44:42,-3.3817677,-10.291399,-1.1376343,-0.65921414,-1.0221432,2.4994311,10.89235779,2.779657548,crawl
16/03/2021, 14:44:43,-7.209009,-4.2152348,3.6045046,1.4617091,0.1006267,-0.912861,9.095629202,1.726277653,crawl
16/03/2021, 14:44:43,-7.4006104,-4.3014555,3.5949244,1.4617091,0.1006267,-0.912861,9.284128187,1.726277653,crawl
16/03/2021, 14:44:43,-7.4006104,-4.3014555,3.5949244,1.471483,0.04442712,-0.90553063,9.284128187,1.728358091,crawl
16/03/2021, 14:44:43,-7.5251517,-4.2200246,3.6308498,1.471483,0.04442712,-0.90553063,9.360533457,1.728358091,crawl
16/03/2021, 14:44:43,-7.5251517,-4.2200246,3.6308498,1.47637,-0.009329004,-0.83711374,9.360533457,1.697207928,crawl
16/03/2021, 14:44:43,-7.582632,-4.1625443,3.666775,1.47637,-0.009329004,-0.83711374,9.395122271,1.697207928,crawl
16/03/2021, 14:44:43,-7.582632,-4.1625443,3.666775,1.4873655,-0.03987225,-0.75647956,9.395122271,1.669163625,crawl
16/03/2021, 14:44:43,-7.3838453,-3.9302273,3.7338357,1.4873655,-0.03987225,-0.75647956,9.16020673,1.669163625,crawl
16/03/2021, 14:44:43,-7.3838453,-3.9302273,3.7338357,1.4702612,-0.063085124,-0.73571014,9.16020673,1.645271161,crawl
16/03/2021, 14:44:43,-7.165899,-3.8440065,3.8368216,1.4702612,-0.063085124,-0.73571014,8.991534437,1.645271161,crawl
16/03/2021, 14:44:43,-7.165899,-3.8440065,3.8368216,1.4311659,-0.07530243,-0.76381,8.991534437,1.623980317,crawl
16/03/2021, 14:44:43,-7.0006423,-3.7458107,3.9493873,1.4311659,-0.07530243,-0.76381,8.867792899,1.623980317,crawl
16/03/2021, 14:44:43,-7.0006423,-3.7458107,3.9493873,1.3969575,-0.064306855,-0.77480555,8.867792899,1.598733658,crawl
16/03/2021, 14:44:43,-7.046148,-3.7410207,4.0595584,1.3969575,-0.064306855,-0.77480555,8.95117027,1.598733658,crawl
16/03/2021, 14:44:43,-7.046148,-3.7410207,4.0595584,1.3529752,-0.050867822,-0.7540361,8.95117027,1.549741928,crawl
16/03/2021, 14:44:43,-6.964717,-3.8847218,4.174519,1.3529752,-0.050867822,-0.7540361,9.001386236,1.549741928,crawl
16/03/2021, 14:44:43,-6.964717,-3.8847218,4.174519,1.2870017,-0.032541875,-0.73815364,9.001386236,1.484015908,crawl
16/03/2021, 14:44:43,-6.964717,-3.903882,4.287085,1.2870017,-0.032541875,-0.73815364,9.062376885,1.484015908,crawl
16/03/2021, 14:44:43,-6.964717,-3.903882,4.287085,1.195372,-0.005663814,-0.73937535,9.062376885,1.405568275,crawl
16/03/2021, 14:44:43,-7.0221977,-3.9302273,4.3709106,1.195372,-0.005663814,-0.73937535,9.15766385,1.405568275,crawl
16/03/2021, 14:44:44,-5.1971927,-5.4534597,4.9792457,0.22898354,-0.054533012,-0.58910257,9.030167337,0.634388795,crawl
16/03/2021, 14:44:44,-5.2091675,-5.455855,4.996011,0.22898354,-0.054533012,-0.58910257,9.047756748,0.634388795,crawl
16/03/2021, 14:44:44,-5.2091675,-5.455855,4.996011,0.08604113,-0.09362838,-0.559781,9.047756748,0.574041927,crawl
16/03/2021, 14:44:44,-5.1900077,-5.508545,5.0654664,0.08604113,-0.09362838,-0.559781,9.10709596,0.574041927,crawl
16/03/2021, 14:44:44,-5.1900077,-5.508545,5.0654664,-0.04101879,-0.12172817,-0.5255726,9.10709596,0.541042368,crawl
16/03/2021, 14:44:44,-5.101392,-5.5947657,5.1564775,-0.04101879,-0.12172817,-0.5255726,9.160505486,0.541042368,crawl
16/03/2021, 14:44:44,-5.101392,-5.5947657,5.1564775,-0.14853103,-0.15471487,-0.5048032,9.160505486,0.548474621,crawl
16/03/2021, 14:44:44,-5.0630717,-5.7624173,5.2115626,-0.14853103,-0.15471487,-0.5048032,9.273647272,0.548474621,crawl
16/03/2021, 14:44:44,-5.0630717,-5.7624173,5.2115626,-0.23038694,-0.19625369,-0.49014243,9.273647272,0.576049702,crawl
16/03/2021, 14:44:44,-4.893025,-5.9564137,5.2666483,-0.23038694,-0.19625369,-0.49014243,9.335852496,0.576049702,crawl
16/03/2021, 14:44:44,-4.893025,-5.9564137,5.2666483,-0.28780827,-0.22801867,-0.47425994,9.335852496,0.59979047,crawl
16/03/2021, 14:44:44,-4.737349,-6.104905,5.3169436,-0.28780827,-0.22801867,-0.47425994,9.379884446,0.59979047,crawl
16/03/2021, 14:44:44,-4.737349,-6.104905,5.3169436,-0.30857766,-0.25123155,-0.46204263,9.379884446,0.609771149,crawl
16/03/2021, 14:44:44,-4.617598,-6.2749515,5.4295096,-0.30857766,-0.25123155,-0.46204263,9.496146721,0.609771149,crawl
16/03/2021, 14:44:44,-4.617598,-6.2749515,5.4295096,-0.31346458,-0.2695575,-0.45349053,9.496146721,0.613657029,crawl
16/03/2021, 14:44:44,-4.4571314,-6.3994923,5.47741,-0.31346458,-0.2695575,-0.45349053,9.530033577,0.613657029,crawl
16/03/2021, 14:44:44,-4.4571314,-6.3994923,5.47741,-0.30735594,-0.2768879,-0.45104706,9.530033577,0.612027804,crawl
16/03/2021, 14:44:44,-4.3541455,-6.4833183,5.5396805,-0.30735594,-0.2768879,-0.45104706,9.574970478,0.612027804,crawl
16/03/2021, 14:44:44,-4.3541455,-6.4833183,5.5396805,-0.2926952,-0.2768879,-0.45837745,9.574970478,0.610284581,crawl
16/03/2021, 14:44:44,-4.191284,-6.543194,5.592371,-0.2926952,-0.2768879,-0.45837745,9.573654561,0.610284581,crawl
16/03/2021, 14:44:45,1.6693287,2.8380983,6.9886675,0.398804,-0.27200097,-0.11751476,7.725473023,0.496828827,crawl
16/03/2021, 14:44:45,1.8489552,2.7973828,7.0413575,0.398804,-0.27200097,-0.11751476,7.799019269,0.496828827,crawl
16/03/2021, 14:44:45,1.8489552,2.7973828,7.0413575,0.46111223,-0.16693217,-0.19448374,7.799019269,0.52755546,crawl
16/03/2021, 14:44:45,1.8800904,2.7901978,6.952742,0.46111223,-0.16693217,-0.19448374,7.724025278,0.52755546,crawl
16/03/2021, 14:44:45,1.8800904,2.7901978,6.952742,0.5246422,-0.063085124,-0.21769662,7.724025278,0.571507673,crawl
16/03/2021, 14:44:45,1.7651294,2.7782228,6.9551373,0.5246422,-0.063085124,-0.21769662,7.694682456,0.571507673,crawl
16/03/2021, 14:44:45,1.7651294,2.7782228,6.9551373,0.5637376,0.019992517,-0.19570547,7.694682456,0.59707653,crawl
16/03/2021, 14:44:45,1.707649,2.9698243,6.933582,0.5637376,0.019992517,-0.19570547,7.733723458,0.59707653,crawl
16/03/2021, 14:44:45,1.707649,2.9698243,6.933582,0.57962006,0.089631125,-0.18226644,7.733723458,0.614177672,crawl
16/03/2021, 14:44:45,1.707649,3.276387,6.981482,0.57962006,0.089631125,-0.18226644,7.898852323,0.614177672,crawl
16/03/2021, 14:44:45,1.707649,3.276387,6.981482,0.56251585,0.16537839,-0.20181413,7.898852323,0.620083093,crawl
16/03/2021, 14:44:45,1.5950831,3.532654,7.089258,0.56251585,0.16537839,-0.20181413,8.079697798,0.620083093,crawl
16/03/2021, 14:44:45,1.5950831,3.532654,7.089258,0.5063163,0.23623873,-0.2372443,8.079697798,0.607000654,crawl
16/03/2021, 14:44:45,1.5543678,3.7122805,7.1299734,0.5063163,0.23623873,-0.2372443,8.187405367,0.607000654,crawl
16/03/2021, 14:44:45,1.5543678,3.7122805,7.1299734,0.398804,0.30221215,-0.27511793,8.187405367,0.571022502,crawl
16/03/2021, 14:44:45,1.3555812,3.755391,7.213799,0.398804,0.30221215,-0.27511793,8.244965554,0.571022502,crawl
16/03/2021, 14:44:45,1.3555812,3.755391,7.213799,0.2644137,0.32664675,-0.28367007,8.244965554,0.507031967,crawl
16/03/2021, 14:44:45,1.2597803,3.896697,7.237749,0.2644137,0.32664675,-0.28367007,8.316027072,0.507031967,crawl
16/03/2021, 14:44:45,1.2597803,3.896697,7.237749,0.11169746,0.2961035,-0.2690093,8.316027072,0.415354798,crawl
16/03/2021, 14:44:45,1.1975098,4.0595584,7.3838453,0.11169746,0.2961035,-0.2690093,8.510888075,0.415354798,crawl
16/03/2021, 14:44:46,1.2573853,4.169729,8.669971,0.12635823,-0.048424363,-0.7577013,9.702374182,0.769689903,crawl
16/03/2021, 14:44:46,1.2430152,4.2343946,8.672366,0.12635823,-0.048424363,-0.7577013,9.730627854,0.769689903,crawl
16/03/2021, 14:44:46,1.2430152,4.2343946,8.672366,0.0970367,-0.055754744,-0.7528144,9.730627854,0.761087545,crawl
16/03/2021, 14:44:46,1.1615845,4.287085,8.648416,0.0970367,-0.055754744,-0.7528144,9.722318068,0.761087545,crawl
16/03/2021, 14:44:46,1.1615845,4.287085,8.648416,0.0726021,-0.064306855,-0.7491492,9.722318068,0.755401195,crawl
16/03/2021, 14:44:46,1.092129,4.3541455,8.600515,0.0726021,-0.064306855,-0.7491492,9.701556244,0.755401195,crawl
16/03/2021, 14:44:46,1.092129,4.3541455,8.600515,0.04572404,-0.0740807,-0.74059707,9.701556244,0.745696089,crawl
16/03/2021, 14:44:46,1.0873389,4.4643164,8.5598,0.04572404,-0.0740807,-0.74059707,9.715071031,0.745696089,crawl
16/03/2021, 14:44:46,1.0873389,4.4643164,8.5598,0.023732899,-0.099737026,-0.7296015,9.715071031,0.736769351,crawl
16/03/2021, 14:44:46,1.1615845,4.533772,8.782537,0.023732899,-0.099737026,-0.7296015,9.951750161,0.736769351,crawl
16/03/2021, 14:44:46,1.1615845,4.533772,8.782537,0.002963488,-0.13394547,-0.71982765,9.951750161,0.732189879,crawl
16/03/2021, 14:44:46,1.2837305,4.629573,8.871153,0.002963488,-0.13394547,-0.71982765,10.08852132,0.732189879,crawl
16/03/2021, 14:44:46,1.2837305,4.629573,8.871153,-0.010475542,-0.16204526,-0.7088321,10.08852132,0.727194146,crawl
16/03/2021, 14:44:46,1.2933106,4.6032276,8.919053,-0.010475542,-0.16204526,-0.7088321,10.11987474,0.727194146,crawl
16/03/2021, 14:44:46,1.2933106,4.6032276,8.919053,-7.02E-04,-0.17670602,-0.6843975,10.11987474,0.7068419,crawl
16/03/2021, 14:44:46,1.3244458,4.4906616,8.873548,-7.02E-04,-0.17670602,-0.6843975,10.03294796,0.7068419,crawl
16/03/2021, 14:44:46,1.3244458,4.4906616,8.873548,0.01884598,-0.1803712,-0.6477456,10.03294796,0.672653933,crawl
16/03/2021, 14:44:46,1.1951149,4.387676,8.880733,0.01884598,-0.1803712,-0.6477456,9.977344761,0.672653933,crawl
16/03/2021, 14:44:46,1.1951149,4.387676,8.880733,0.04205885,-0.17548428,-0.5988764,9.977344761,0.625473136,crawl
16/03/2021, 14:44:46,1.1687696,4.382886,8.775352,0.04205885,-0.17548428,-0.5988764,9.878385792,0.625473136,crawl
16/03/2021, 14:44:47,-0.10777588,3.8128712,9.220825,-0.59812766,0.112844,0.04008841,9.978638176,0.609997992,crawl
16/03/2021, 14:44:47,-0.06945557,3.8272414,9.259146,-0.59812766,0.112844,0.04008841,10.0192006,0.609997992,crawl
16/03/2021, 14:44:47,-0.06945557,3.8272414,9.259146,-0.6445534,0.08474421,0.024205925,10.0192006,0.650551015,crawl
16/03/2021, 14:44:47,-0.16525635,3.796106,9.19448,-0.6445534,0.08474421,0.024205925,9.948677932,0.650551015,crawl
16/03/2021, 14:44:47,-0.16525635,3.796106,9.19448,-0.68242705,0.05542269,0.009545163,9.948677932,0.684740434,crawl
16/03/2021, 14:44:47,-0.122146,3.6116896,9.216036,-0.68242705,0.05542269,0.009545163,9.899219052,0.684740434,crawl
16/03/2021, 14:44:47,-0.122146,3.6116896,9.216036,-0.7093051,0.03343155,0.005879973,9.899219052,0.710116876,crawl
16/03/2021, 14:44:47,-0.12693603,3.4823585,9.177715,-0.7093051,0.03343155,0.005879973,9.816995025,0.710116876,crawl
16/03/2021, 14:44:47,-0.12693603,3.4823585,9.177715,-0.7251876,0.026101166,0.005879973,9.816995025,0.72568099,crawl
16/03/2021, 14:44:47,-0.15328126,3.4009278,9.211246,-0.7251876,0.026101166,0.005879973,9.820226538,0.72568099,crawl
16/03/2021, 14:44:47,-0.15328126,3.4009278,9.211246,-0.7374049,0.032209817,0.008323433,9.820226538,0.738154938,crawl
16/03/2021, 14:44:47,-0.10538086,3.3266823,9.177715,-0.7374049,0.032209817,0.008323433,9.762601016,0.738154938,crawl
16/03/2021, 14:44:47,-0.10538086,3.3266823,9.177715,-0.7398483,0.04076193,0.010766893,9.762601016,0.741048575,crawl
16/03/2021, 14:44:47,-0.1820215,3.1614258,9.208851,-0.7398483,0.04076193,0.010766893,9.738104501,0.741048575,crawl
16/03/2021, 14:44:47,-0.1820215,3.1614258,9.208851,-0.71907896,0.03343155,0.024205925,9.738104501,0.720262552,crawl
16/03/2021, 14:44:47,-0.22513184,2.938689,9.11784,-0.71907896,0.03343155,0.024205925,9.582357758,0.720262552,crawl
16/03/2021, 14:44:47,-0.22513184,2.938689,9.11784,-0.6848705,0.028544627,0.04741879,9.582357758,0.687103278,crawl
16/03/2021, 14:44:47,-0.17244141,2.8740237,9.096285,-0.6848705,0.028544627,0.04741879,9.5410768,0.687103278,crawl
16/03/2021, 14:44:47,-0.17244141,2.8740237,9.096285,-0.6494403,0.027322898,0.06940994,9.5410768,0.653710156,crawl
16/03/2021, 14:44:47,-0.14130616,2.9003687,9.072334,-0.6494403,0.027322898,0.06940994,9.52572073,0.653710156,crawl
16/03/2021, 14:45:34,1.2957057,4.2343946,8.552615,0.7799838,0.03709674,0.09995319,9.631000809,0.787236664,crawl
16/03/2021, 14:45:34,1.2957057,4.2343946,8.552615,-0.257265,-0.09607184,-0.04543269,9.631000809,0.278350873,crawl
16/03/2021, 14:45:34,1.2957057,4.2343946,8.552615,-0.24626943,-0.08874146,-0.05276307,9.631000809,0.267034872,crawl
16/03/2021, 14:45:34,1.2741505,4.176914,8.5502205,-0.24626943,-0.08874146,-0.05276307,9.600851121,0.267034872,crawl
16/03/2021, 14:45:34,1.2741505,4.176914,8.5502205,-0.2364956,-0.08751973,-0.06131518,9.600851121,0.259517672,crawl
16/03/2021, 14:45:34,1.2645704,4.1074586,8.52148,-0.2364956,-0.08751973,-0.06131518,9.543896948,0.259517672,crawl
16/03/2021, 14:45:34,1.2645704,4.1074586,8.52148,-0.22183484,-0.09362838,-0.06864556,9.543896948,0.250378077,crawl
16/03/2021, 14:45:34,1.2382251,4.0811133,8.5430355,-0.22183484,-0.09362838,-0.06864556,9.548410505,0.250378077,crawl
16/03/2021, 14:45:34,1.2382251,4.0811133,8.5430355,-0.19862197,-0.10340222,-0.07597594,9.548410505,0.236463635,crawl
16/03/2021, 14:45:34,1.3124708,4.126619,8.5502205,-0.19862197,-0.10340222,-0.07597594,9.584249227,0.236463635,crawl
16/03/2021, 14:45:34,1.3124708,4.126619,8.5502205,-0.18396121,-0.107067406,-0.100410536,9.584249227,0.235345348,crawl
16/03/2021, 14:45:34,1.334026,4.1074586,8.461604,-0.18396121,-0.107067406,-0.100410536,9.499978192,0.235345348,crawl
16/03/2021, 14:45:34,1.334026,4.1074586,8.461604,-0.17418736,-0.10340222,-0.1150713,9.499978192,0.232969224,crawl
16/03/2021, 14:45:34,1.3627661,4.054768,8.528665,-0.17418736,-0.10340222,-0.1150713,9.541299464,0.232969224,crawl
16/03/2021, 14:45:34,1.3627661,4.054768,8.528665,-0.16563526,-0.09485011,-0.121179946,9.541299464,0.226088834,crawl
16/03/2021, 14:45:34,1.3891114,4.1074586,8.519085,-0.16563526,-0.09485011,-0.121179946,9.559061388,0.226088834,crawl
16/03/2021, 14:45:34,1.3891114,4.1074586,8.519085,-0.16685699,-0.09362838,-0.13461898,9.559061388,0.233944007,crawl
16/03/2021, 14:45:34,1.3795313,4.1002736,8.576566,-0.16685699,-0.09362838,-0.13461898,9.605874771,0.233944007,crawl
16/03/2021, 14:45:34,1.3795313,4.1002736,8.576566,-0.16441353,-0.098515294,-0.14683628,9.605874771,0.241449714,crawl
16/03/2021, 14:45:34,1.3052857,4.1074586,8.590936,-0.16441353,-0.098515294,-0.14683628,9.611407969,0.241449714,crawl
16/03/2021, 14:45:35,0.97237796,4.409231,8.547825,-0.08744454,0.008996947,-0.16271877,9.667065137,0.184945643,crawl
16/03/2021, 14:45:35,0.86220706,4.392466,8.5502205,-0.08744454,0.008996947,-0.16271877,9.651084374,0.184945643,crawl
16/03/2021, 14:45:35,0.86220706,4.392466,8.5502205,-0.093553185,0.007775217,-0.17371434,9.651084374,0.197457146,crawl
16/03/2021, 14:45:35,0.8430469,4.366121,8.56938,-0.093553185,0.007775217,-0.17371434,9.654429518,0.197457146,crawl
16/03/2021, 14:45:35,0.8430469,4.366121,8.56938,-0.093553185,0.005331757,-0.17737953,9.654429518,0.200609384,crawl
16/03/2021, 14:45:35,0.8669971,4.3541455,8.499925,-0.093553185,0.005331757,-0.17737953,9.589524832,0.200609384,crawl
16/03/2021, 14:45:35,0.8669971,4.3541455,8.499925,-0.0984401,-7.77E-04,-0.18226644,9.589524832,0.207152393,crawl
16/03/2021, 14:45:35,0.80233157,4.3134303,8.54064,-0.0984401,-7.77E-04,-0.18226644,9.601663736,0.207152393,crawl
16/03/2021, 14:45:35,0.80233157,4.3134303,8.54064,-0.10943568,-0.001998623,-0.19081856,9.601663736,0.219981558,crawl
16/03/2021, 14:45:35,0.8047266,4.3325906,8.52148,-0.10943568,-0.001998623,-0.19081856,9.593463437,0.219981558,crawl
16/03/2021, 14:45:35,0.8047266,4.3325906,8.52148,-0.106992215,-0.003220353,-0.19326203,9.593463437,0.220925135,crawl
16/03/2021, 14:45:35,0.7879615,4.351751,8.557405,-0.106992215,-0.003220353,-0.19326203,9.632642793,0.220925135,crawl
16/03/2021, 14:45:35,0.7879615,4.351751,8.557405,-0.108213946,0.001666567,-0.1969272,9.632642793,0.224707275,crawl
16/03/2021, 14:45:35,0.87178713,4.3278003,8.566985,-0.108213946,0.001666567,-0.1969272,9.637587988,0.224707275,crawl
16/03/2021, 14:45:35,0.87178713,4.3278003,8.566985,-0.106992215,0.011440408,-0.19937067,9.637587988,0.226554364,crawl
16/03/2021, 14:45:35,0.87897223,4.258345,8.624466,-0.106992215,0.011440408,-0.19937067,9.658545864,0.226554364,crawl
16/03/2021, 14:45:35,0.87897223,4.258345,8.624466,-0.08744454,0.030988088,-0.18715337,9.658545864,0.208885596,crawl
16/03/2021, 14:45:35,0.8933423,4.272715,8.631651,-0.08744454,0.030988088,-0.18715337,9.672618696,0.208885596,crawl
16/03/2021, 14:45:35,0.8933423,4.272715,8.631651,-0.05445782,0.04198366,-0.18226644,9.672618696,0.1948059,crawl
16/03/2021, 14:45:35,0.7831714,4.3086405,8.679551,-0.05445782,0.04198366,-0.18226644,9.721746138,0.1948059,crawl
16/03/2021, 14:45:36,1.0083033,4.605623,8.686736,-0.0373536,-0.056976475,0.031536303,9.883714929,0.075074288,crawl
16/03/2021, 14:45:36,1.0753639,4.5792775,8.674761,-0.0373536,-0.056976475,0.031536303,9.868012226,0.075074288,crawl
16/03/2021, 14:45:36,1.0753639,4.5792775,8.674761,-0.03246668,-0.050867822,0.007101703,9.868012226,0.060762281,crawl
16/03/2021, 14:45:36,1.1328443,4.5457473,8.6627865,-0.03246668,-0.050867822,0.007101703,9.848402118,0.060762281,crawl
16/03/2021, 14:45:36,1.1328443,4.5457473,8.6627865,-0.026358033,-0.044759173,-0.006337327,9.848402118,0.052328684,crawl
16/03/2021, 14:45:36,1.1663746,4.478687,8.571775,-0.026358033,-0.044759173,-0.006337327,9.741375637,0.052328684,crawl
16/03/2021, 14:45:36,1.1663746,4.478687,8.571775,-0.031244954,-0.03987225,-0.018554626,9.741375637,0.053947361,crawl
16/03/2021, 14:45:36,1.0777588,4.416416,8.49753,-0.031244954,-0.03987225,-0.018554626,9.637131918,0.053947361,crawl
16/03/2021, 14:45:36,1.0777588,4.416416,8.49753,-0.030023223,-0.037428793,-0.029550197,9.637131918,0.056351775,crawl
16/03/2021, 14:45:36,1.0562036,4.4667115,8.528665,-0.030023223,-0.037428793,-0.029550197,9.685308335,0.056351775,crawl
16/03/2021, 14:45:36,1.0562036,4.4667115,8.528665,-0.028801491,-0.033763602,-0.03810231,9.685308335,0.058491818,crawl
16/03/2021, 14:45:36,1.0418335,4.4403663,8.490345,-0.028801491,-0.033763602,-0.03810231,9.637853906,0.058491818,crawl
16/03/2021, 14:45:36,1.0418335,4.4403663,8.490345,-0.03246668,-0.031320143,-0.05887172,9.637853906,0.074168161,crawl
16/03/2021, 14:45:36,1.0609937,4.502637,8.464,-0.03246668,-0.031320143,-0.05887172,9.645659047,0.074168161,crawl
16/03/2021, 14:45:36,1.0609937,4.502637,8.464,-0.038575333,-0.032541875,-0.08330631,9.645659047,0.097401086,crawl
16/03/2021, 14:45:36,1.0466236,4.4379716,8.413704,-0.038575333,-0.032541875,-0.08330631,9.569818515,0.097401086,crawl
16/03/2021, 14:45:36,1.0466236,4.4379716,8.413704,-0.042240523,-0.034985334,-0.106519185,9.569818515,0.119810568,crawl
16/03/2021, 14:45:36,1.0873389,4.502637,8.428074,-0.042240523,-0.034985334,-0.106519185,9.617092828,0.119810568,crawl
16/03/2021, 14:45:36,1.0873389,4.502637,8.428074,-0.04101879,-0.04720263,-0.13706243,9.617092828,0.150654371,crawl
16/03/2021, 14:45:36,1.1400293,4.519402,8.461604,-0.04101879,-0.04720263,-0.13706243,9.660404017,0.150654371,crawl
16/03/2021, 14:45:37,-0.42152345,2.6776319,9.721385,-0.18762639,-0.026433224,-0.13217552,10.09221089,0.231025423,crawl
16/03/2021, 14:45:37,-0.46702883,2.6512868,9.754915,-0.18762639,-0.026433224,-0.13217552,10.11957554,0.231025423,crawl
16/03/2021, 14:45:37,-0.46702883,2.6512868,9.754915,-0.19251332,-0.042315714,-0.13706243,10.11957554,0.240079376,crawl
16/03/2021, 14:45:37,-0.4023633,2.6417067,9.80521,-0.19251332,-0.042315714,-0.13706243,10.16280748,0.240079376,crawl
16/03/2021, 14:45:37,-0.4023633,2.6417067,9.80521,-0.19495678,-0.054533012,-0.14927974,10.16280748,0.251528203,crawl
16/03/2021, 14:45:37,-0.3281177,2.6536818,9.922566,-0.19495678,-0.054533012,-0.14927974,10.27652725,0.251528203,crawl
16/03/2021, 14:45:37,-0.3281177,2.6536818,9.922566,-0.19373505,-0.063085124,-0.15905358,10.27652725,0.258478322,crawl
16/03/2021, 14:45:37,-0.34967285,2.6512868,9.903406,-0.19373505,-0.063085124,-0.15905358,10.25812099,0.258478322,crawl
16/03/2021, 14:45:37,-0.34967285,2.6512868,9.903406,-0.20228715,-0.056976475,-0.16516222,10.25812099,0.267291919,crawl
16/03/2021, 14:45:37,-0.28261232,2.7518775,9.915381,-0.20228715,-0.056976475,-0.16516222,10.29405113,0.267291919,crawl
16/03/2021, 14:45:37,-0.28261232,2.7518775,9.915381,-0.21939138,-0.038650524,-0.19570547,10.29405113,0.296524992,crawl
16/03/2021, 14:45:37,-0.12693603,3.0177248,9.8938265,-0.21939138,-0.038650524,-0.19570547,10.34459172,0.296524992,crawl
16/03/2021, 14:45:37,-0.12693603,3.0177248,9.8938265,-0.27925614,-0.030098414,-0.21525316,10.34459172,0.353869787,crawl
16/03/2021, 14:45:37,-0.24668702,2.8452833,9.788445,-0.27925614,-0.030098414,-0.21525316,10.19657571,0.353869787,crawl
16/03/2021, 14:45:37,-0.24668702,2.8452833,9.788445,-0.3171298,-0.045980904,-0.18104471,10.19657571,0.368052626,crawl
16/03/2021, 14:45:37,-0.30416748,2.459685,9.697434,-0.3171298,-0.045980904,-0.18104471,10.00913598,0.368052626,crawl
16/03/2021, 14:45:37,-0.30416748,2.459685,9.697434,-0.3256819,-0.06919378,-0.11629303,10.00913598,0.35267626,crawl
16/03/2021, 14:45:37,-0.2802173,2.2704787,9.754915,-0.3256819,-0.06919378,-0.11629303,10.01957917,0.35267626,crawl
16/03/2021, 14:45:37,-0.2802173,2.2704787,9.754915,-0.28414306,-0.083854534,-0.05520653,10.01957917,0.301357964,crawl
16/03/2021, 14:45:37,-0.22513184,2.1531227,9.800421,-0.28414306,-0.083854534,-0.05520653,10.03667618,0.301357964,crawl
16/03/2021, 14:45:38,0.4263135,3.2093263,9.285491,0.33893925,-0.023989765,0.005879973,9.833710449,0.339838046,crawl
16/03/2021, 14:45:38,0.43110353,3.2739918,9.388477,0.33893925,-0.023989765,0.005879973,9.95230522,0.339838046,crawl
16/03/2021, 14:45:38,0.43110353,3.2739918,9.388477,0.32794368,-0.016659385,0.021762464,9.95230522,0.329086917,crawl
16/03/2021, 14:45:38,0.39517823,3.288362,9.299861,0.32794368,-0.016659385,0.021762464,9.872026358,0.329086917,crawl
16/03/2021, 14:45:38,0.39517823,3.288362,9.299861,0.30595252,4.45E-04,0.038866684,9.872026358,0.308411675,crawl
16/03/2021, 14:45:38,0.30416748,3.2380664,9.3309965,0.30595252,4.45E-04,0.038866684,9.881552916,0.308411675,crawl
16/03/2021, 14:45:38,0.30416748,3.2380664,9.3309965,0.29495695,0.021214247,0.058414362,9.881552916,0.301433053,crawl
16/03/2021, 14:45:38,0.2706372,3.288362,9.333391,0.29495695,0.021214247,0.058414362,9.899432328,0.301433053,crawl
16/03/2021, 14:45:38,0.2706372,3.288362,9.333391,0.28518313,0.03831847,0.07918378,9.899432328,0.29844228,crawl
16/03/2021, 14:45:38,0.22992188,3.391348,9.390872,0.28518313,0.03831847,0.07918378,9.987120781,0.29844228,crawl
16/03/2021, 14:45:38,0.22992188,3.391348,9.390872,0.27907446,0.035875008,0.09384454,9.987120781,0.296608106,crawl
16/03/2021, 14:45:38,0.23471193,3.412903,9.417217,0.27907446,0.035875008,0.09384454,10.01933021,0.296608106,crawl
16/03/2021, 14:45:38,0.23471193,3.412903,9.417217,0.2558616,0.035875008,0.10728357,10.01933021,0.279753363,crawl
16/03/2021, 14:45:38,0.22273682,3.4919386,9.496253,0.2558616,0.035875008,0.10728357,10.12037885,0.279753363,crawl
16/03/2021, 14:45:38,0.22273682,3.4919386,9.496253,0.23875739,0.043205388,0.12683125,10.12037885,0.273784515,crawl
16/03/2021, 14:45:38,0.20118165,3.523074,9.498648,0.23875739,0.043205388,0.12683125,10.1329577,0.273784515,crawl
16/03/2021, 14:45:38,0.20118165,3.523074,9.498648,0.21676624,0.0517575,0.13782682,10.1329577,0.262035631,crawl
16/03/2021, 14:45:38,0.1101709,3.5542092,9.630374,0.21676624,0.0517575,0.13782682,10.26589711,0.262035631,crawl
16/03/2021, 14:45:38,0.1101709,3.5542092,9.630374,0.20454894,0.05053577,0.13904855,10.26589711,0.252445303,crawl
16/03/2021, 14:45:38,0.1580713,3.5757644,9.599238,0.20454894,0.05053577,0.13904855,10.24482579,0.252445303,crawl
16/03/2021, 14:45:39,1.0106983,2.5411158,11.464959,-0.14364412,-0.055754744,0.035201494,11.78660547,0.158054962,crawl
16/03/2021, 14:45:39,1.1280543,2.2680836,10.526112,-0.14364412,-0.055754744,0.035201494,10.82662159,0.158054962,crawl
16/03/2021, 14:45:39,1.1280543,2.2680836,10.526112,0.06893691,0.12750477,0.068188205,10.82662159,0.160185498,crawl
16/03/2021, 14:45:39,1.9854712,3.1135256,10.98835,0.06893691,0.12750477,0.068188205,11.59223757,0.160185498,crawl
16/03/2021, 14:45:39,1.9854712,3.1135256,10.98835,0.39391708,0.27166888,-0.08697151,11.59223757,0.486352437,crawl
16/03/2021, 14:45:39,2.4022048,2.907554,9.254355,0.39391708,0.27166888,-0.08697151,9.993375398,0.486352437,crawl
16/03/2021, 14:45:39,2.4022048,2.907554,9.254355,0.38780844,0.35718998,-0.17371434,9.993375398,0.555118675,crawl
16/03/2021, 14:45:39,1.2406201,3.2500417,8.988508,0.38780844,0.35718998,-0.17371434,9.638215064,0.555118675,crawl
16/03/2021, 14:45:39,1.2406201,3.2500417,8.988508,0.2717441,0.36329865,0.04008841,9.638215064,0.455453456,crawl
16/03/2021, 14:45:39,0.73527104,3.7410207,8.804092,0.2717441,0.36329865,0.04008841,9.594159804,0.455453456,crawl
16/03/2021, 14:45:39,0.73527104,3.7410207,8.804092,0.14468417,0.24234739,0.18913949,9.594159804,0.339763903,crawl
16/03/2021, 14:45:39,0.76880133,4.0882983,8.998089,0.14468417,0.24234739,0.18913949,9.913165053,0.339763903,crawl
16/03/2021, 14:45:39,0.76880133,4.0882983,8.998089,-0.014140733,0.09329632,0.096287996,9.913165053,0.134816696,crawl
16/03/2021, 14:45:39,0.95561284,4.0667434,9.067544,-0.014140733,0.09329632,0.096287996,9.983584099,0.134816696,crawl
16/03/2021, 14:45:39,0.95561284,4.0667434,9.067544,-0.19617851,-0.008107273,-0.10529745,9.983584099,0.222798765,crawl
16/03/2021, 14:45:39,1.1352394,3.8511915,8.813672,-0.19617851,-0.008107273,-0.10529745,9.68510505,0.222798765,crawl
16/03/2021, 14:45:39,1.1352394,3.8511915,8.813672,-0.2853648,-0.022768034,-0.22380526,9.68510505,0.363373434,crawl
16/03/2021, 14:45:39,1.0466236,3.2692018,8.689131,-0.2853648,-0.022768034,-0.22380526,9.342595722,0.363373434,crawl
16/03/2021, 14:45:39,1.0466236,3.2692018,8.689131,-0.28658652,-0.011772463,-0.22747046,9.342595722,0.366078182,crawl
16/03/2021, 14:45:39,1.0562036,2.7303224,8.5119,-0.28658652,-0.011772463,-0.22747046,9.001259188,0.366078182,crawl
16/03/2021, 14:45:40,0.7185059,3.3937428,10.047108,0.41102132,0.38284633,0.035201494,10.62911633,0.562804568,crawl
16/03/2021, 14:45:40,0.6682105,3.5613942,10.061478,0.41102132,0.38284633,0.035201494,10.69408092,0.562804568,crawl
16/03/2021, 14:45:40,0.6682105,3.5613942,10.061478,0.43179074,0.39872882,0.049862254,10.69408092,0.589842485,crawl
16/03/2021, 14:45:40,0.65384036,3.6452198,10.042317,0.43179074,0.39872882,0.049862254,10.70342343,0.589842485,crawl
16/03/2021, 14:45:40,0.65384036,3.6452198,10.042317,0.41712996,0.39750707,0.06085782,10.70342343,0.579407415,crawl
16/03/2021, 14:45:40,0.60354495,3.66438,10.095008,0.41712996,0.39750707,0.06085782,10.75644608,0.579407415,crawl
16/03/2021, 14:45:40,0.60354495,3.66438,10.095008,0.40246922,0.3694073,0.0718534,10.75644608,0.551004658,crawl
16/03/2021, 14:45:40,0.5460645,3.5110989,10.193204,0.40246922,0.3694073,0.0718534,10.79478615,0.551004658,crawl
16/03/2021, 14:45:40,0.5460645,3.5110989,10.193204,0.39147362,0.33153367,0.09262281,10.79478615,0.521291814,crawl
16/03/2021, 14:45:40,0.50534916,3.3602126,10.047108,0.39147362,0.33153367,0.09262281,10.60616704,0.521291814,crawl
16/03/2021, 14:45:40,0.50534916,3.3602126,10.047108,0.38658673,0.3046556,0.11583568,10.60616704,0.505650317,crawl
16/03/2021, 14:45:40,0.4526587,3.300337,10.049502,0.38658673,0.3046556,0.11583568,10.58723867,0.505650317,crawl
16/03/2021, 14:45:40,0.4526587,3.300337,10.049502,0.38536498,0.28266445,0.11950087,10.58723867,0.492631521,crawl
16/03/2021, 14:45:40,0.5005591,3.3410523,9.977652,0.38536498,0.28266445,0.11950087,10.53407429,0.492631521,crawl
16/03/2021, 14:45:40,0.5005591,3.3410523,9.977652,0.35970867,0.266782,0.10484011,10.53407429,0.459950433,crawl
16/03/2021, 14:45:40,0.5029541,3.2452517,10.044712,0.35970867,0.266782,0.10484011,10.56791662,0.459950433,crawl
16/03/2021, 14:45:40,0.5029541,3.2452517,10.044712,0.31572637,0.25700814,0.088957615,10.56791662,0.416713066,crawl
16/03/2021, 14:45:40,0.4526587,3.288362,10.121353,0.31572637,0.25700814,0.088957615,10.65176109,0.416713066,crawl
16/03/2021, 14:45:40,0.4526587,3.288362,10.121353,0.27785274,0.27777755,0.087735884,10.65176109,0.40256689,crawl
16/03/2021, 14:45:40,0.44547364,3.1159205,10.269844,0.27785274,0.27777755,0.087735884,10.74137349,0.40256689,crawl
16/03/2021, 14:45:41,0.5604346,1.1687696,9.3381815,-2.1191816,-0.034985334,0.12194433,9.427711437,2.12297555,crawl
16/03/2021, 14:45:41,0.4742139,0.6730005,9.319021,-2.1191816,-0.034985334,0.12194433,9.355317478,2.12297555,crawl
16/03/2021, 14:45:41,0.4742139,0.6730005,9.319021,-2.131399,0.018770786,0.19036122,9.355317478,2.139965204,crawl
16/03/2021, 14:45:41,0.4622388,0.4047583,9.465117,-2.131399,0.018770786,0.19036122,9.485037818,2.139965204,crawl
16/03/2021, 14:45:41,0.4622388,0.4047583,9.465117,-2.0715342,0.110400535,0.26855192,9.485037818,2.091784447,crawl
16/03/2021, 14:45:41,0.5724097,0.40715334,9.307046,-2.0715342,0.110400535,0.26855192,9.333516527,2.091784447,crawl
