DATE,TIME,ax,ay,az,gx,gy,gz,ma,mg,label
09/07/2020, 21:56:36,3.6466618,0.39720857,9.123833,-0.051286668,0.19049335,0.15630223,9.833628009,0.251691127,crawl
09/07/2020, 21:56:36,3.6753755,0.4235296,9.119047,-0.051286668,0.19049335,0.15630223,9.840974713,0.251691127,crawl
09/07/2020, 21:56:36,3.6753755,0.4235296,9.119047,-0.04029667,0.20392556,0.15508112,9.840974713,0.259344582,crawl
09/07/2020, 21:56:36,3.6586258,0.41635114,9.090333,-0.04029667,0.20392556,0.15508112,9.807805315,0.259344582,crawl
09/07/2020, 21:56:36,3.6586258,0.41635114,9.090333,-0.02198,0.21003112,0.16607112,9.807805315,0.268655557,crawl
09/07/2020, 21:56:36,3.6586258,0.38763726,9.099904,-0.02198,0.21003112,0.16607112,9.815500986,0.268655557,crawl
09/07/2020, 21:56:36,3.6586258,0.38763726,9.099904,-0.01099,0.21735778,0.16118668,9.815500986,0.27082528,crawl
09/07/2020, 21:56:36,3.7280176,0.42592242,9.114262,-0.01099,0.21735778,0.16118668,9.856433935,0.27082528,crawl
09/07/2020, 21:56:36,3.7280176,0.42592242,9.114262,0,0.21613668,0.15019667,9.856433935,0.263199742,crawl
09/07/2020, 21:56:36,3.7854455,0.4881358,9.114262,0,0.21613668,0.15019667,9.881175985,0.263199742,crawl
09/07/2020, 21:56:36,3.7854455,0.4881358,9.114262,-0.009768889,0.21980001,0.15141778,9.881175985,0.267085789,crawl
09/07/2020, 21:56:36,3.8261235,0.53599226,9.140582,-0.009768889,0.21980001,0.15141778,9.923545204,0.267085789,crawl
09/07/2020, 21:56:36,3.8261235,0.53599226,9.140582,-0.036633335,0.24055889,0.14653334,9.923545204,0.28404683,crawl
09/07/2020, 21:56:36,3.8739798,0.5838487,9.162118,-0.036633335,0.24055889,0.14653334,9.964587515,0.28404683,crawl
09/07/2020, 21:56:36,3.8739798,0.5838487,9.162118,-0.06105556,0.25887558,0.12943779,9.964587515,0.295801433,crawl
09/07/2020, 21:56:36,3.9146578,0.526421,9.142975,-0.06105556,0.25887558,0.12943779,9.959701511,0.295801433,crawl
09/07/2020, 21:56:36,3.9146578,0.526421,9.142975,-0.039075557,0.2613178,0.12577444,9.959701511,0.292631333,crawl
09/07/2020, 21:56:36,3.9577286,0.45942193,9.128618,-0.039075557,0.2613178,0.12577444,9.96023872,0.292631333,crawl
09/07/2020, 21:56:36,3.9577286,0.45942193,9.128618,0.008547778,0.2613178,0.11112112,9.96023872,0.284091455,crawl
09/07/2020, 21:56:36,3.9361932,0.37567315,9.042477,0.008547778,0.2613178,0.11112112,9.869201157,0.284091455,crawl
09/07/2020, 21:56:37,7.786245,0.782453,5.5130634,-2.129618,-1.5654645,-2.7218568,9.572445364,3.794002666,crawl
09/07/2020, 21:56:37,7.786245,0.782453,5.5130634,-2.3909357,-1.5447056,-2.79146,9.572445364,3.986845614,crawl
09/07/2020, 21:56:37,8.085348,0.6987042,5.4867425,-2.3909357,-1.5447056,-2.79146,9.796192379,3.986845614,crawl
09/07/2020, 21:56:37,8.085348,0.6987042,5.4867425,-2.64859,-1.4751023,-2.8574002,9.796192379,4.166016328,crawl
09/07/2020, 21:56:37,8.4012,0.61016977,5.359923,-2.64859,-1.4751023,-2.8574002,9.984049623,4.166016328,crawl
09/07/2020, 21:56:37,8.4012,0.61016977,5.359923,-2.889149,-1.39573,-2.9270034,9.984049623,4.343108651,crawl
09/07/2020, 21:56:37,8.729017,0.46181476,5.359923,-2.889149,-1.39573,-2.9270034,10.25367195,4.343108651,crawl
09/07/2020, 21:56:37,8.729017,0.46181476,5.359923,-3.0955167,-1.3102523,-3.0002701,10.25367195,4.505619323,crawl
09/07/2020, 21:56:37,9.004191,0.2656033,5.345566,-3.0955167,-1.3102523,-3.0002701,10.47478313,4.505619323,crawl
09/07/2020, 21:56:37,9.004191,0.2656033,5.345566,-3.2652512,-1.2333223,-3.064989,10.47478313,4.645116474,crawl
09/07/2020, 21:56:37,9.18126,-0.038285162,5.288138,-3.2652512,-1.2333223,-3.064989,10.5953483,4.645116474,crawl
09/07/2020, 21:56:37,9.18126,-0.038285162,5.288138,-3.4423125,-1.1563922,-3.107728,10.5953483,4.779616252,crawl
09/07/2020, 21:56:37,9.29133,-0.3589234,5.288138,-3.4423125,-1.1563922,-3.107728,10.6968242,4.779616252,crawl
09/07/2020, 21:56:37,9.29133,-0.3589234,5.288138,-3.6181524,-1.05504,-3.1297078,10.6968242,4.898898554,crawl
09/07/2020, 21:56:37,9.41815,-0.701097,5.2235317,-3.6181524,-1.05504,-3.1297078,10.7925145,4.898898554,crawl
09/07/2020, 21:56:37,9.41815,-0.701097,5.2235317,-3.7634647,-0.9549089,-3.1480246,10.7925145,4.998557403,crawl
09/07/2020, 21:56:37,9.556933,-1.0839486,5.1254263,-3.7634647,-0.9549089,-3.1480246,10.89861988,4.998557403,crawl
09/07/2020, 21:56:37,9.556933,-1.0839486,5.1254263,-3.8733647,-0.8547778,-3.162678,10.89861988,5.073079071,crawl
09/07/2020, 21:56:37,9.65504,-1.4380864,4.981857,-3.8733647,-0.8547778,-3.162678,10.95932403,5.073079071,crawl
09/07/2020, 21:56:37,9.65504,-1.4380864,4.981857,-3.9405258,-0.7534256,-3.1687834,10.95932403,5.112394926,crawl
09/07/2020, 21:56:38,8.752945,-3.7328033,4.601398,-0.091583334,0.46768558,1.5630223,10.56980272,1.634061162,crawl
09/07/2020, 21:56:38,8.752945,-3.7328033,4.601398,-0.10135223,0.4493689,1.7217667,10.56980272,1.782325807,crawl
09/07/2020, 21:56:38,8.286345,-3.6634114,4.254439,-0.10135223,0.4493689,1.7217667,10.00921269,1.782325807,crawl
09/07/2020, 21:56:38,8.286345,-3.6634114,4.254439,-0.068382226,0.4041878,1.8731846,10.00921269,1.917515139,crawl
09/07/2020, 21:56:38,8.054241,-3.644269,3.9649072,-0.068382226,0.4041878,1.8731846,9.688755664,1.917515139,crawl
09/07/2020, 21:56:38,8.054241,-3.644269,3.9649072,0.006105556,0.3504589,1.9965167,9.688755664,2.02705147,crawl
09/07/2020, 21:56:38,8.051848,-3.67059,3.8165522,0.006105556,0.3504589,1.9965167,9.636989345,2.02705147,crawl
09/07/2020, 21:56:38,8.051848,-3.67059,3.8165522,0.12943779,0.31382558,2.0893211,9.636989345,2.116719973,crawl
09/07/2020, 21:56:38,8.26481,-3.737589,3.818945,0.12943779,0.31382558,2.0893211,9.841798052,2.116719973,crawl
09/07/2020, 21:56:38,8.26481,-3.737589,3.818945,0.2845189,0.31016225,2.1442711,9.841798052,2.185188853,crawl
09/07/2020, 21:56:38,8.590233,-3.7567315,3.912265,0.2845189,0.31016225,2.1442711,10.15927901,2.185188853,crawl
09/07/2020, 21:56:38,8.590233,-3.7567315,3.912265,0.44570556,0.33214223,2.1601458,10.15927901,2.230515997,crawl
09/07/2020, 21:56:38,8.896515,-3.737589,4.007978,0.44570556,0.33214223,2.1601458,10.44899207,2.230515997,crawl
09/07/2020, 21:56:38,8.896515,-3.737589,4.007978,0.6032289,0.36511225,2.1454923,10.44899207,2.258390879,crawl
09/07/2020, 21:56:38,9.183653,-3.7160535,4.058227,0.6032289,0.36511225,2.1454923,10.70596752,2.258390879,crawl
09/07/2020, 21:56:38,9.183653,-3.7160535,4.058227,0.7387723,0.40907225,2.1051955,10.70596752,2.268253241,crawl
09/07/2020, 21:56:38,9.425328,-3.67059,4.1084766,0.7387723,0.40907225,2.1051955,10.91740003,2.268253241,crawl
09/07/2020, 21:56:38,9.425328,-3.67059,4.1084766,0.8401245,0.46158,2.0502455,10.91740003,2.263265774,crawl
09/07/2020, 21:56:38,9.678967,-3.6323047,4.1204405,0.8401245,0.46158,2.0502455,11.12897472,2.263265774,crawl
09/07/2020, 21:56:38,9.678967,-3.6323047,4.1204405,0.89385337,0.5153089,1.9745368,11.12897472,2.227849322,crawl
09/07/2020, 21:56:39,9.133404,-4.0869412,6.613762,-0.19171445,-0.5006556,0.12821667,11.99433199,0.551225876,crawl
09/07/2020, 21:56:39,9.078369,-3.9984066,6.7501526,-0.19171445,-0.5006556,0.12821667,11.99869168,0.551225876,crawl
09/07/2020, 21:56:39,9.078369,-3.9984066,6.7501526,-0.15386,-0.4273889,0.23689556,11.99869168,0.512302337,crawl
09/07/2020, 21:56:39,8.997013,-3.897908,6.71426,-0.15386,-0.4273889,0.23689556,11.88365347,0.512302337,crawl
09/07/2020, 21:56:39,8.997013,-3.897908,6.71426,-0.1306589,-0.34679556,0.3309211,11.88365347,0.49683769,crawl
09/07/2020, 21:56:39,8.889337,-3.7974095,6.6305118,-0.1306589,-0.34679556,0.3309211,11.72195847,0.49683769,crawl
09/07/2020, 21:56:39,8.889337,-3.7974095,6.6305118,-0.09646778,-0.26498112,0.41395667,11.72195847,0.500880378,crawl
09/07/2020, 21:56:39,8.822337,-3.6753755,6.5347986,-0.09646778,-0.26498112,0.41395667,11.57780681,0.500880378,crawl
09/07/2020, 21:56:39,8.822337,-3.6753755,6.5347986,-0.064718895,-0.18683001,0.49943447,11.57780681,0.537148751,crawl
09/07/2020, 21:56:39,8.724232,-3.5940197,6.4438715,-0.064718895,-0.18683001,0.49943447,11.425965,0.537148751,crawl
09/07/2020, 21:56:39,8.724232,-3.5940197,6.4438715,-0.02075889,-0.117226675,0.57514334,11.425965,0.587335409,crawl
09/07/2020, 21:56:39,8.676374,-3.5126636,6.3625154,-0.02075889,-0.117226675,0.57514334,11.31812183,0.587335409,crawl
09/07/2020, 21:56:39,8.676374,-3.5126636,6.3625154,0.04029667,-0.035412222,0.6459678,11.31812183,0.648191501,crawl
09/07/2020, 21:56:39,8.666803,-3.4983068,6.285945,0.04029667,-0.035412222,0.6459678,11.26342463,0.648191501,crawl
09/07/2020, 21:56:39,8.666803,-3.4983068,6.285945,0.109900005,0.04151778,0.7119078,11.26342463,0.72153618,crawl
09/07/2020, 21:56:39,8.69791,-3.5557344,6.204589,0.109900005,0.04151778,0.7119078,11.26027593,0.72153618,crawl
09/07/2020, 21:56:39,8.69791,-3.5557344,6.204589,0.21613668,0.10745778,0.7778478,11.26027593,0.814438137,crawl
09/07/2020, 21:56:39,8.831908,-3.629912,6.209375,0.21613668,0.10745778,0.7778478,11.39013608,0.814438137,crawl
09/07/2020, 21:56:39,8.831908,-3.629912,6.209375,0.3370267,0.18316667,0.8266923,11.39013608,0.91134908,crawl
09/07/2020, 21:56:39,9.0544405,-3.7064822,6.2141604,0.3370267,0.18316667,0.8266923,11.59037069,0.91134908,crawl
09/07/2020, 21:56:40,11.624332,-3.6490545,2.3449662,-0.9317078,-1.6741434,-1.8963857,12.4072386,2.69575857,crawl
09/07/2020, 21:56:40,11.789437,-3.6179478,2.2660031,-0.9317078,-1.6741434,-1.8963857,12.5385465,2.69575857,crawl
09/07/2020, 21:56:40,11.789437,-3.6179478,2.2660031,-1.0953367,-1.581339,-1.9476722,12.5385465,2.737484732,crawl
09/07/2020, 21:56:40,11.877972,-3.546163,2.1798615,-1.0953367,-1.581339,-1.9476722,12.58623373,2.737484732,crawl
09/07/2020, 21:56:40,11.877972,-3.546163,2.1798615,-1.2675134,-1.4848711,-2.0075068,12.58623373,2.800270751,crawl
09/07/2020, 21:56:40,11.988042,-3.5030923,2.1296122,-1.2675134,-1.4848711,-2.0075068,12.66965082,2.800270751,crawl
09/07/2020, 21:56:40,11.988042,-3.5030923,2.1296122,-1.4409112,-1.4030567,-2.0563512,12.66965082,2.876347236,crawl
09/07/2020, 21:56:40,12.009577,-3.507878,2.158326,-1.4409112,-1.4030567,-2.0563512,12.69620077,2.876347236,crawl
09/07/2020, 21:56:40,12.009577,-3.507878,2.158326,-1.5996556,-1.3261267,-2.1027534,12.69620077,2.956193837,crawl
09/07/2020, 21:56:40,12.000006,-3.591627,2.3425734,-1.5996556,-1.3261267,-2.1027534,12.7431382,2.956193837,crawl
09/07/2020, 21:56:40,12.000006,-3.591627,2.3425734,-1.7303145,-1.2491968,-2.1283967,12.7431382,3.014059312,crawl
09/07/2020, 21:56:40,11.952149,-3.739982,2.5531418,-1.7303145,-1.2491968,-2.1283967,12.78123127,3.014059312,crawl
09/07/2020, 21:56:40,11.952149,-3.739982,2.5531418,-1.8267823,-1.1698245,-2.1381657,12.78123127,3.045878472,crawl
09/07/2020, 21:56:40,11.844472,-3.9290147,2.9910283,-1.8267823,-1.1698245,-2.1381657,12.8325727,3.045878472,crawl
09/07/2020, 21:56:40,11.844472,-3.9290147,2.9910283,-1.8988279,-1.0990001,-2.1393867,12.8325727,3.064363539,crawl
09/07/2020, 21:56:40,11.724831,-4.132405,3.493521,-1.8988279,-1.0990001,-2.1393867,12.91329205,3.064363539,crawl
09/07/2020, 21:56:40,11.724831,-4.132405,3.493521,-1.95622,-1.0367234,-2.122291,12.91329205,3.066873266,crawl
09/07/2020, 21:56:40,11.552547,-4.2927237,4.0007997,-1.95622,-1.0367234,-2.122291,12.95743906,3.066873266,crawl
09/07/2020, 21:56:40,11.552547,-4.2927237,4.0007997,-2.0075068,-0.9854367,-2.0832157,12.95743906,3.056297907,crawl
09/07/2020, 21:56:40,11.306087,-4.4578285,4.386044,-2.0075068,-0.9854367,-2.0832157,12.92041834,3.056297907,crawl
09/07/2020, 21:56:41,10.99502,-1.942972,1.8640088,0.68504333,-1.7022289,-1.2711767,11.31989981,2.232209176,crawl
09/07/2020, 21:56:41,11.380264,-1.9884356,2.1463618,0.68504333,-1.7022289,-1.2711767,11.75036852,2.232209176,crawl
09/07/2020, 21:56:41,11.380264,-1.9884356,2.1463618,0.65451556,-1.5642434,-1.4018356,11.75036852,2.200088882,crawl
09/07/2020, 21:56:41,10.920842,-1.8951155,2.507678,0.65451556,-1.5642434,-1.4018356,11.36418521,2.200088882,crawl
09/07/2020, 21:56:41,10.920842,-1.8951155,2.507678,0.54950005,-1.5007457,-1.4824289,11.36418521,2.179858548,crawl
09/07/2020, 21:56:41,9.822537,-1.7730815,2.8546374,0.54950005,-1.5007457,-1.4824289,10.38147457,2.179858548,crawl
09/07/2020, 21:56:41,9.822537,-1.7730815,2.8546374,0.40052447,-1.6033189,-1.4934189,10.38147457,2.227409155,crawl
09/07/2020, 21:56:41,8.640483,-1.7228323,3.0460632,0.40052447,-1.6033189,-1.4934189,9.322263509,2.227409155,crawl
09/07/2020, 21:56:41,8.640483,-1.7228323,3.0460632,0.25521225,-1.7925912,-1.4421322,9.322263509,2.314791985,crawl
09/07/2020, 21:56:41,7.8053875,-1.8113668,3.225525,0.25521225,-1.7925912,-1.4421322,8.637657932,2.314791985,crawl
09/07/2020, 21:56:41,7.8053875,-1.8113668,3.225525,0.1746189,-1.9696523,-1.3420012,8.637657932,2.389767592,crawl
09/07/2020, 21:56:41,7.4943204,-2.0338993,3.330809,0.1746189,-1.9696523,-1.3420012,8.449607914,2.389767592,crawl
09/07/2020, 21:56:41,7.4943204,-2.0338993,3.330809,0.19537778,-2.1039746,-1.2369856,8.449607914,2.448471932,crawl
09/07/2020, 21:56:41,7.7096744,-2.2444677,3.3116665,0.19537778,-2.1039746,-1.2369856,8.685841874,2.448471932,crawl
09/07/2020, 21:56:41,7.7096744,-2.2444677,3.3116665,0.30283555,-2.1918945,-1.1832567,8.685841874,2.509224489,crawl
09/07/2020, 21:56:41,8.16431,-2.4047868,3.1513474,0.30283555,-2.1918945,-1.1832567,9.075789515,2.509224489,crawl
09/07/2020, 21:56:41,8.16431,-2.4047868,3.1513474,0.45059,-2.2541711,-1.1905833,9.075789515,2.58878496,crawl
09/07/2020, 21:56:41,8.702696,-2.4502504,2.9359934,0.45059,-2.2541711,-1.1905833,9.505824498,2.58878496,crawl
09/07/2020, 21:56:41,8.702696,-2.4502504,2.9359934,0.59956557,-2.3091211,-1.2101212,9.505824498,2.675053734,crawl
09/07/2020, 21:56:41,9.233903,-2.5028925,2.7397819,0.59956557,-2.3091211,-1.2101212,9.951675176,2.675053734,crawl
09/07/2020, 21:56:42,7.133004,-2.5459633,2.4789643,-1.7095556,1.0318389,1.3981723,7.969124291,2.43765412,crawl
09/07/2020, 21:56:42,7.133004,-2.5459633,2.4789643,-1.5532534,0.9549089,1.2687345,7.969124291,2.221291134,crawl
09/07/2020, 21:56:42,6.8075805,-2.4071796,2.5172493,-1.5532534,0.9549089,1.2687345,7.646843122,2.221291134,crawl
09/07/2020, 21:56:42,6.8075805,-2.4071796,2.5172493,-1.3590968,0.8718734,1.1283067,7.646843122,1.969868859,crawl
09/07/2020, 21:56:42,6.448657,-2.359323,2.7278178,-1.3590968,0.8718734,1.1283067,7.388678671,1.969868859,crawl
09/07/2020, 21:56:42,6.448657,-2.359323,2.7278178,-1.10999,0.74976224,0.9854367,7.388678671,1.662921123,crawl
09/07/2020, 21:56:42,6.175875,-2.4119651,3.0317063,-1.10999,0.74976224,0.9854367,7.290422032,1.662921123,crawl
09/07/2020, 21:56:42,6.175875,-2.4119651,3.0317063,-0.8364611,0.60445005,0.8535567,7.290422032,1.339248335,crawl
09/07/2020, 21:56:42,6.0370917,-2.4837499,3.2829528,-0.8364611,0.60445005,0.8535567,7.307069794,1.339248335,crawl
09/07/2020, 21:56:42,6.0370917,-2.4837499,3.2829528,-0.5678167,0.46524334,0.71923447,7.307069794,1.02769906,crawl
09/07/2020, 21:56:42,5.989235,-2.4670002,3.4360933,-0.5678167,0.46524334,0.71923447,7.332377689,1.02769906,crawl
09/07/2020, 21:56:42,5.989235,-2.4670002,3.4360933,-0.31504667,0.3504589,0.56293225,7.332377689,0.73414478,crawl
09/07/2020, 21:56:42,6.0394845,-2.3545375,3.3906298,-0.31504667,0.3504589,0.56293225,7.315435055,0.73414478,crawl
09/07/2020, 21:56:42,6.0394845,-2.3545375,3.3906298,-0.10867889,0.25643334,0.3834289,7.315435055,0.473905983,crawl
09/07/2020, 21:56:42,6.206982,-2.184647,3.2997024,-0.10867889,0.25643334,0.3834289,7.361205477,0.473905983,crawl
09/07/2020, 21:56:42,6.206982,-2.184647,3.2997024,0.042738892,0.19171445,0.19171445,7.361205477,0.274473085,crawl
09/07/2020, 21:56:42,6.424729,-2.0793629,3.1896327,0.042738892,0.19171445,0.19171445,7.468242596,0.274473085,crawl
09/07/2020, 21:56:42,6.424729,-2.0793629,3.1896327,0.15630223,0.11966889,0.012211111,7.468242596,0.197231189,crawl
09/07/2020, 21:56:42,6.721439,-1.9980069,3.1202407,0.15630223,0.11966889,0.012211111,7.675003216,0.197231189,crawl
09/07/2020, 21:56:42,6.721439,-1.9980069,3.1202407,0.24788557,0.04151778,-0.14775445,7.675003216,0.291551639,crawl
09/07/2020, 21:56:43,9.552148,-3.3427732,1.4620147,-1.0123012,1.2455333,2.207769,10.22522119,2.729533045,crawl
09/07/2020, 21:56:43,9.552148,-3.3427732,1.4620147,-0.9976478,1.2150056,2.2248645,10.22522119,2.724254364,crawl
09/07/2020, 21:56:43,9.437292,-3.3499517,1.3806586,-0.9976478,1.2150056,2.2248645,10.10895035,2.724254364,crawl
09/07/2020, 21:56:43,9.437292,-3.3499517,1.3806586,-0.9549089,1.1710457,2.2382967,10.10895035,2.700587212,crawl
09/07/2020, 21:56:43,9.336794,-3.37388,1.3040884,-0.9549089,1.1710457,2.2382967,10.01296322,2.700587212,crawl
09/07/2020, 21:56:43,9.336794,-3.37388,1.3040884,-0.8865267,1.1295278,2.2431812,10.01296322,2.663385944,crawl
09/07/2020, 21:56:43,9.221938,-3.4049866,1.227518,-0.8865267,1.1295278,2.2431812,9.906809636,2.663385944,crawl
09/07/2020, 21:56:43,9.221938,-3.4049866,1.227518,-0.7949434,1.0904523,2.2236435,9.906809636,2.601078977,crawl
09/07/2020, 21:56:43,9.116654,-3.4049866,1.227518,-0.7949434,1.0904523,2.2236435,9.808879733,2.601078977,crawl
09/07/2020, 21:56:43,9.116654,-3.4049866,1.227518,-0.6984756,1.0672512,2.1906734,9.808879733,2.534944384,crawl
09/07/2020, 21:56:43,8.956335,-3.3284163,1.2251252,-0.6984756,1.0672512,2.1906734,9.633027819,2.534944384,crawl
09/07/2020, 21:56:43,8.956335,-3.3284163,1.2251252,-0.63131446,1.0489345,2.151598,9.633027819,2.475519197,crawl
09/07/2020, 21:56:43,8.762517,-3.266203,1.2634103,-0.63131446,1.0489345,2.151598,9.436418333,2.475519197,crawl
09/07/2020, 21:56:43,8.762517,-3.266203,1.2634103,-0.6007867,1.0293967,2.1113012,9.436418333,2.424498876,crawl
09/07/2020, 21:56:43,8.537591,-3.1848469,1.282553,-0.6007867,1.0293967,2.1113012,9.202100384,2.424498876,crawl
09/07/2020, 21:56:43,8.537591,-3.1848469,1.282553,-0.6117767,1.0123012,2.0600145,9.202100384,2.375433468,crawl
09/07/2020, 21:56:43,8.274381,-3.0604203,1.3423735,-0.6117767,1.0123012,2.0600145,8.923761233,2.375433468,crawl
09/07/2020, 21:56:43,8.274381,-3.0604203,1.3423735,-0.65085226,0.96956223,2.012391,8.923761233,2.326666605,crawl
09/07/2020, 21:56:43,8.114061,-2.885744,1.3184453,-0.65085226,0.96956223,2.012391,8.712279193,2.326666605,crawl
09/07/2020, 21:56:43,8.114061,-2.885744,1.3184453,-0.7070234,0.8975167,1.9488934,8.712279193,2.259115741,crawl
09/07/2020, 21:56:44,12.760923,-4.7114677,2.507678,-1.1881411,1.4738811,1.9977379,13.83211998,2.752264798,crawl
09/07/2020, 21:56:44,12.760923,-4.7114677,2.507678,-1.05504,1.3639811,2.1174068,13.83211998,2.730744527,crawl
09/07/2020, 21:56:44,12.725031,-4.8215375,2.629712,-1.05504,1.3639811,2.1174068,13.85961836,2.730744527,crawl
09/07/2020, 21:56:44,12.725031,-4.8215375,2.629712,-0.8633256,1.2369856,2.2309701,13.85961836,2.693082278,crawl
09/07/2020, 21:56:44,12.492927,-4.924429,2.6679974,-0.8633256,1.2369856,2.2309701,13.69092492,2.693082278,crawl
09/07/2020, 21:56:44,12.492927,-4.924429,2.6679974,-0.6471889,1.0953367,2.3335435,13.69092492,2.657826435,crawl
09/07/2020, 21:56:44,12.172289,-4.9292145,2.7206392,-0.6471889,1.0953367,2.3335435,13.41132544,2.657826435,crawl
09/07/2020, 21:56:44,12.172289,-4.9292145,2.7206392,-0.41151446,0.9280445,2.426348,13.41132544,2.630166386,crawl
09/07/2020, 21:56:44,11.933006,-4.938786,2.7206392,-0.41151446,0.9280445,2.426348,13.19811063,2.630166386,crawl
09/07/2020, 21:56:44,11.933006,-4.938786,2.7206392,-0.18805112,0.7766267,2.5020568,13.19811063,2.626556811,crawl
09/07/2020, 21:56:44,11.779866,-4.8789654,2.7158537,-0.18805112,0.7766267,2.5020568,13.03631131,2.626556811,crawl
09/07/2020, 21:56:44,11.779866,-4.8789654,2.7158537,-0.028085556,0.68260115,2.5509012,13.03631131,2.640801003,crawl
09/07/2020, 21:56:44,11.66501,-4.761717,2.6871397,-0.028085556,0.68260115,2.5509012,12.8828233,2.640801003,crawl
09/07/2020, 21:56:44,11.66501,-4.761717,2.6871397,0.06594,0.6337567,2.5765445,12.8828233,2.654162262,crawl
09/07/2020, 21:56:44,11.531013,-4.6468616,2.5914268,0.06594,0.6337567,2.5765445,12.69933327,2.654162262,crawl
09/07/2020, 21:56:44,11.531013,-4.6468616,2.5914268,0.10135223,0.61299783,2.6009667,12.69933327,2.67414778,crawl
09/07/2020, 21:56:44,11.313266,-4.5152564,2.4239295,0.10135223,0.61299783,2.6009667,12.41986141,2.67414778,crawl
09/07/2020, 21:56:44,11.313266,-4.5152564,2.4239295,0.10501556,0.59590226,2.614399,12.41986141,2.683506974,crawl
09/07/2020, 21:56:44,11.014163,-4.371687,2.2492533,0.10501556,0.59590226,2.614399,12.06161573,2.683506974,crawl
09/07/2020, 21:56:44,11.014163,-4.371687,2.2492533,0.08669889,0.57270116,2.62661,12.06161573,2.68971813,crawl
09/07/2020, 21:56:45,9.611969,-5.1852465,5.300102,0.5592689,0.5519422,0.8266923,12.13951451,1.140544628,crawl
09/07/2020, 21:56:45,9.611969,-5.1852465,5.300102,0.6288723,0.6105556,0.8413456,12.13951451,1.214957159,crawl
09/07/2020, 21:56:45,10.320244,-5.326423,5.276174,0.6288723,0.6105556,0.8413456,12.75602718,1.214957159,crawl
09/07/2020, 21:56:45,10.320244,-5.326423,5.276174,0.7119078,0.67283225,0.83401895,12.75602718,1.286508282,crawl
09/07/2020, 21:56:45,11.129018,-5.5537415,5.2953167,0.7119078,0.67283225,0.83401895,13.51811603,1.286508282,crawl
09/07/2020, 21:56:45,11.129018,-5.5537415,5.2953167,0.8095967,0.74976224,0.8083756,13.51811603,1.367867451,crawl
09/07/2020, 21:56:45,12.038291,-5.814559,5.393422,0.8095967,0.74976224,0.8083756,14.41591302,1.367867451,crawl
09/07/2020, 21:56:45,12.038291,-5.814559,5.393422,0.92438114,0.87065226,0.77052116,14.41591302,1.485334543,crawl
09/07/2020, 21:56:45,12.918849,-6.0658054,5.4891353,0.92438114,0.87065226,0.77052116,15.29121515,1.485334543,crawl
09/07/2020, 21:56:45,12.918849,-6.0658054,5.4891353,1.0379444,1.0318389,0.7326667,15.29121515,1.6367103,crawl
09/07/2020, 21:56:45,13.677374,-6.2524457,5.5776696,1.0379444,1.0318389,0.7326667,16.03976409,1.6367103,crawl
09/07/2020, 21:56:45,13.677374,-6.2524457,5.5776696,1.1124322,1.2174479,0.70580226,16.03976409,1.793834345,crawl
09/07/2020, 21:56:45,14.19901,-6.302695,5.6374903,1.1124322,1.2174479,0.70580226,16.52625609,1.793834345,crawl
09/07/2020, 21:56:45,14.19901,-6.302695,5.6374903,1.1173167,1.4445745,0.69603336,16.52625609,1.954393643,crawl
09/07/2020, 21:56:45,14.301901,-6.1184473,5.6709895,1.1173167,1.4445745,0.69603336,16.55717028,1.954393643,crawl
09/07/2020, 21:56:45,14.301901,-6.1184473,5.6709895,1.0318389,1.6863545,0.72778225,16.55717028,2.106691735,crawl
09/07/2020, 21:56:45,13.887942,-5.771488,5.3982077,1.0318389,1.6863545,0.72778225,15.97891309,2.106691735,crawl
09/07/2020, 21:56:45,13.887942,-5.771488,5.3982077,0.8450089,1.8646368,0.8120389,15.97891309,2.202343649,crawl
09/07/2020, 21:56:45,13.115061,-5.2570314,4.9028935,0.8450089,1.8646368,0.8120389,14.95592072,2.202343649,crawl
09/07/2020, 21:56:45,13.115061,-5.2570314,4.9028935,0.56049,1.9379034,0.9317078,14.95592072,2.222093176,crawl
09/07/2020, 21:56:46,7.798209,-5.163711,5.4341,0.11234222,-0.29184556,-1.1600556,10.8169045,1.201467306,crawl
09/07/2020, 21:56:46,7.743174,-4.9938207,5.359923,0.11234222,-0.29184556,-1.1600556,10.65944478,1.201467306,crawl
09/07/2020, 21:56:46,7.743174,-4.9938207,5.359923,0.05006556,-0.25887558,-1.0330601,10.65944478,1.066178335,crawl
09/07/2020, 21:56:46,7.759924,-4.85743,5.3312087,0.05006556,-0.25887558,-1.0330601,10.5939998,1.066178335,crawl
09/07/2020, 21:56:46,7.759924,-4.85743,5.3312087,-0.039075557,-0.2283478,-0.8999589,10.5939998,0.929298472,crawl
09/07/2020, 21:56:46,7.826923,-4.749753,5.3312087,-0.039075557,-0.2283478,-0.8999589,10.59446373,0.929298472,crawl
09/07/2020, 21:56:46,7.826923,-4.749753,5.3312087,-0.117226675,-0.19049335,-0.7717422,10.59446373,0.803502252,crawl
09/07/2020, 21:56:46,7.9704924,-4.706682,5.3766723,-0.117226675,-0.19049335,-0.7717422,10.70468171,0.803502252,crawl
09/07/2020, 21:56:46,7.9704924,-4.706682,5.3766723,-0.17828223,-0.13798556,-0.6569578,10.70468171,0.694563263,crawl
09/07/2020, 21:56:46,8.130812,-4.735396,5.4221363,-0.17828223,-0.13798556,-0.6569578,10.85972538,0.694563263,crawl
09/07/2020, 21:56:46,8.130812,-4.735396,5.4221363,-0.22346334,-0.07693,-0.54339445,10.85972538,0.592563595,crawl
09/07/2020, 21:56:46,8.195417,-4.7784667,5.505885,-0.22346334,-0.07693,-0.54339445,10.96874566,0.592563595,crawl
09/07/2020, 21:56:46,8.195417,-4.7784667,5.505885,-0.23811668,-0.019537779,-0.42861003,10.96874566,0.490701369,crawl
09/07/2020, 21:56:46,8.142776,-4.9052863,5.575277,-0.23811668,-0.019537779,-0.42861003,11.02045095,0.490701369,crawl
09/07/2020, 21:56:46,8.142776,-4.9052863,5.575277,-0.2185789,0.013432222,-0.29917222,11.02045095,0.370757577,crawl
09/07/2020, 21:56:46,7.9800634,-5.056034,5.5776696,-0.2185789,0.013432222,-0.29917222,10.97065593,0.370757577,crawl
09/07/2020, 21:56:46,7.9800634,-5.056034,5.5776696,-0.16973445,0.035412222,-0.16607112,10.97065593,0.24009045,crawl
09/07/2020, 21:56:46,7.8053875,-5.1900325,5.6350975,-0.16973445,0.035412222,-0.16607112,10.93685672,0.24009045,crawl
09/07/2020, 21:56:46,7.8053875,-5.1900325,5.6350975,-0.08425667,0.046402223,-0.035412222,10.93685672,0.102500627,crawl
09/07/2020, 21:56:46,7.63789,-5.285745,5.6781683,-0.08425667,0.046402223,-0.035412222,10.88659995,0.102500627,crawl
09/07/2020, 21:56:47,11.0811615,-3.5820556,4.6085763,-0.60811335,-0.5104245,-2.9367723,12.52446557,3.042197696,crawl
09/07/2020, 21:56:47,11.0811615,-3.5820556,4.6085763,-0.7265611,-0.49821335,-2.9062445,12.52446557,3.036834669,crawl
09/07/2020, 21:56:47,10.932807,-3.804588,4.7880383,-0.7265611,-0.49821335,-2.9062445,12.52702954,3.036834669,crawl
09/07/2020, 21:56:47,10.932807,-3.804588,4.7880383,-0.76930004,-0.4798967,-2.8647268,12.52702954,3.004793326,crawl
09/07/2020, 21:56:47,10.758131,-4.1108694,4.8789654,-0.76930004,-0.4798967,-2.8647268,12.50763501,3.004793326,crawl
09/07/2020, 21:56:47,10.758131,-4.1108694,4.8789654,-0.72900337,-0.48356003,-2.8158824,12.50763501,2.948638695,crawl
09/07/2020, 21:56:47,10.549955,-4.4339004,4.924429,-0.72900337,-0.48356003,-2.8158824,12.45837192,2.948638695,crawl
09/07/2020, 21:56:47,10.549955,-4.4339004,4.924429,-0.6386411,-0.50798225,-2.757269,12.45837192,2.87548957,crawl
09/07/2020, 21:56:47,10.363315,-4.692325,4.9052863,-0.6386411,-0.50798225,-2.757269,12.38862538,2.87548957,crawl
09/07/2020, 21:56:47,10.363315,-4.692325,4.9052863,-0.5140878,-0.5421733,-2.6864445,12.38862538,2.788408568,crawl
09/07/2020, 21:56:47,10.195817,-4.8382874,4.8933225,-0.5140878,-0.5421733,-2.6864445,12.30074443,2.788408568,crawl
09/07/2020, 21:56:47,10.195817,-4.8382874,4.8933225,-0.38220778,-0.5690378,-2.6082935,12.30074443,2.696865209,crawl
09/07/2020, 21:56:47,10.064212,-4.9579287,4.8885365,-0.38220778,-0.5690378,-2.6082935,12.23794122,2.696865209,crawl
09/07/2020, 21:56:47,10.064212,-4.9579287,4.8885365,-0.24910668,-0.59468114,-2.5215945,12.23794122,2.602717569,crawl
09/07/2020, 21:56:47,9.937392,-4.9770713,4.883751,-0.24910668,-0.59468114,-2.5215945,12.13977043,2.602717569,crawl
09/07/2020, 21:56:47,9.937392,-4.9770713,4.883751,-0.13798556,-0.6068922,-2.4422224,12.13977043,2.520279395,crawl
09/07/2020, 21:56:47,9.8632145,-4.948357,4.9603214,-0.13798556,-0.6068922,-2.4422224,12.09851341,2.520279395,crawl
09/07/2020, 21:56:47,9.8632145,-4.948357,4.9603214,-0.048844445,-0.59468114,-2.3604078,12.09851341,2.434657381,crawl
09/07/2020, 21:56:47,9.793823,-4.8909297,5.032106,-0.048844445,-0.59468114,-2.3604078,12.04833005,2.434657381,crawl
09/07/2020, 21:56:47,9.793823,-4.8909297,5.032106,0.008547778,-0.57514334,-2.2700458,12.04833005,2.34178792,crawl
09/07/2020, 21:56:48,10.880164,-2.2372892,3.397808,-0.5128667,-0.4713489,-2.5667756,11.61587425,2.659612528,crawl
09/07/2020, 21:56:48,10.880164,-2.2372892,3.397808,-0.46646446,-0.5336256,-2.6522534,11.61587425,2.745322097,crawl
09/07/2020, 21:56:48,10.033105,-2.5268207,3.723232,-0.46646446,-0.5336256,-2.6522534,10.99592985,2.745322097,crawl
09/07/2020, 21:56:48,10.033105,-2.5268207,3.723232,-0.29917222,-0.6557367,-2.7047613,10.99592985,2.79914775,crawl
09/07/2020, 21:56:48,9.410972,-2.8426733,4.1204405,-0.29917222,-0.6557367,-2.7047613,10.65951258,2.79914775,crawl
09/07/2020, 21:56:48,9.410972,-2.8426733,4.1204405,-0.06960334,-0.78029,-2.7120879,10.65951258,2.822962581,crawl
09/07/2020, 21:56:48,9.083155,-3.1082766,4.4817567,-0.06960334,-0.78029,-2.7120879,10.59486788,2.822962581,crawl
09/07/2020, 21:56:48,9.083155,-3.1082766,4.4817567,0.14287001,-0.8730945,-2.6998768,10.59486788,2.841133664,crawl
09/07/2020, 21:56:48,8.985049,-3.158526,4.6971107,0.14287001,-0.8730945,-2.6998768,10.61933353,2.841133664,crawl
09/07/2020, 21:56:48,8.985049,-3.158526,4.6971107,0.29673,-0.9304867,-2.688887,10.61933353,2.860763328,crawl
09/07/2020, 21:56:48,9.008977,-3.0173492,4.74736,0.29673,-0.9304867,-2.688887,10.62089879,2.860763328,crawl
09/07/2020, 21:56:48,9.008977,-3.0173492,4.74736,0.3724389,-0.97078335,-2.6766756,10.62089879,2.871536714,crawl
09/07/2020, 21:56:48,9.097511,-2.737389,4.7042894,0.3724389,-0.97078335,-2.6766756,10.60133717,2.871536714,crawl
09/07/2020, 21:56:48,9.097511,-2.737389,4.7042894,0.37976557,-0.9829945,-2.6778967,10.60133717,2.877782307,crawl
09/07/2020, 21:56:48,9.327223,-2.5459633,4.5942197,0.37976557,-0.9829945,-2.6778967,10.70447893,2.877782307,crawl
09/07/2020, 21:56:48,9.327223,-2.5459633,4.5942197,0.34557447,-0.9817734,-2.6852233,10.70447893,2.879882822,crawl
09/07/2020, 21:56:48,9.702896,-2.4622145,4.462614,0.34557447,-0.9817734,-2.6852233,10.96009204,2.879882822,crawl
09/07/2020, 21:56:48,9.702896,-2.4622145,4.462614,0.3174889,-0.97811,-2.688887,10.96009204,2.878821125,crawl
09/07/2020, 21:56:48,10.171889,-2.4933212,4.2999024,0.3174889,-0.97811,-2.688887,11.32135785,2.878821125,crawl
09/07/2020, 21:56:48,10.171889,-2.4933212,4.2999024,0.28818223,-0.96589893,-2.688887,11.32135785,2.87160624,crawl
09/07/2020, 21:56:49,6.9942207,-1.7682959,1.3040884,-1.5618012,0.7949434,1.3249056,7.331210026,2.196937165,crawl
09/07/2020, 21:56:49,6.9942207,-1.7682959,1.3040884,-1.4970822,0.6764956,1.1295278,7.331210026,1.993673643,crawl
09/07/2020, 21:56:49,6.721439,-1.8783658,1.3591232,-1.4970822,0.6764956,1.1295278,7.110078378,1.993673643,crawl
09/07/2020, 21:56:49,6.721439,-1.8783658,1.3591232,-1.4006145,0.5568267,0.9170545,7.110078378,1.764303226,crawl
09/07/2020, 21:56:49,6.4701924,-2.0219352,1.4668003,-1.4006145,0.5568267,0.9170545,6.935640949,1.764303226,crawl
09/07/2020, 21:56:49,6.4701924,-2.0219352,1.4668003,-1.2821667,0.44204223,0.69114894,6.935640949,1.52218254,crawl
09/07/2020, 21:56:49,6.209375,-2.172683,1.5529419,-1.2821667,0.44204223,0.69114894,6.759328127,1.52218254,crawl
09/07/2020, 21:56:49,6.209375,-2.172683,1.5529419,-1.1441811,0.33214223,0.45791668,6.759328127,1.276384194,crawl
09/07/2020, 21:56:49,5.922236,-2.3042881,1.6701902,-1.1441811,0.33214223,0.45791668,6.570552341,1.276384194,crawl
09/07/2020, 21:56:49,5.922236,-2.3042881,1.6701902,-0.97933114,0.23201112,0.22224224,6.570552341,1.030684359,crawl
09/07/2020, 21:56:49,5.608776,-2.4095724,1.8281165,-0.97933114,0.23201112,0.22224224,6.372316557,1.030684359,crawl
09/07/2020, 21:56:49,5.608776,-2.4095724,1.8281165,-0.7949434,0.123332225,-0.013432222,6.372316557,0.804565882,crawl
09/07/2020, 21:56:49,5.3886366,-2.481357,1.98365,-0.7949434,0.123332225,-0.013432222,6.255350073,0.804565882,crawl
09/07/2020, 21:56:49,5.3886366,-2.481357,1.98365,-0.6020078,0.004884445,-0.2515489,6.255350073,0.652467699,crawl
09/07/2020, 21:56:49,5.2019963,-2.57707,2.0602202,-0.6020078,0.004884445,-0.2515489,6.160078165,0.652467699,crawl
09/07/2020, 21:56:49,5.2019963,-2.57707,2.0602202,-0.4249467,-0.12211112,-0.4908867,6.160078165,0.660651618,crawl
09/07/2020, 21:56:49,5.113462,-2.605784,2.1631117,-0.4249467,-0.12211112,-0.4908867,6.133241838,0.660651618,crawl
09/07/2020, 21:56:49,5.113462,-2.605784,2.1631117,-0.26864445,-0.27230778,-0.7302245,6.133241838,0.824347728,crawl
09/07/2020, 21:56:49,5.2163534,-2.589034,2.1296122,-0.26864445,-0.27230778,-0.7302245,6.200700653,0.824347728,crawl
09/07/2020, 21:56:49,5.2163534,-2.589034,2.1296122,-0.13554333,-0.44326335,-0.96589893,6.200700653,1.071361348,crawl
09/07/2020, 21:56:50,8.872586,-1.457229,2.3282163,0.16851334,1.4885345,1.7803801,9.287997329,2.326775658,crawl
09/07/2020, 21:56:50,8.872586,-1.457229,2.3282163,-0.018316668,1.4909767,1.7693901,9.287997329,2.313890305,crawl
09/07/2020, 21:56:50,8.762517,-1.3495519,2.201397,-0.018316668,1.4909767,1.7693901,9.135050225,2.313890305,crawl
09/07/2020, 21:56:50,8.762517,-1.3495519,2.201397,-0.19171445,1.5019667,1.7535156,9.135050225,2.31678126,crawl
09/07/2020, 21:56:50,8.736196,-1.3663018,2.062613,-0.19171445,1.5019667,1.7535156,9.079772349,2.31678126,crawl
09/07/2020, 21:56:50,8.736196,-1.3663018,2.062613,-0.34679556,1.504409,1.7303145,9.079772349,2.318944094,crawl
09/07/2020, 21:56:50,8.690732,-1.4524434,1.9908284,-0.34679556,1.504409,1.7303145,9.033372136,2.318944094,crawl
09/07/2020, 21:56:50,8.690732,-1.4524434,1.9908284,-0.47867557,1.5007457,1.7010078,9.033372136,2.318360521,crawl
09/07/2020, 21:56:50,8.642876,-1.5457634,1.9190438,-0.47867557,1.5007457,1.7010078,8.987291767,2.318360521,crawl
09/07/2020, 21:56:50,8.642876,-1.5457634,1.9190438,-0.59956557,1.4958612,1.6533846,8.987291767,2.308843875,crawl
09/07/2020, 21:56:50,8.58784,-1.6103697,1.9142581,-0.59956557,1.4958612,1.6533846,8.944756672,2.308843875,crawl
09/07/2020, 21:56:50,8.58784,-1.6103697,1.9142581,-0.6996967,1.4873134,1.6057612,8.944756672,2.297856731,crawl
09/07/2020, 21:56:50,8.5112705,-1.6701902,1.9381863,-0.6996967,1.4873134,1.6057612,8.887509626,2.297856731,crawl
09/07/2020, 21:56:50,8.5112705,-1.6701902,1.9381863,-0.80104893,1.4641123,1.559359,8.887509626,2.284054403,crawl
09/07/2020, 21:56:50,8.437093,-1.7036897,1.9669002,-0.80104893,1.4641123,1.559359,8.829257595,2.284054403,crawl
09/07/2020, 21:56:50,8.437093,-1.7036897,1.9669002,-0.8853056,1.4445745,1.504409,8.829257595,2.265790744,crawl
09/07/2020, 21:56:50,8.34138,-1.7778672,1.9669002,-0.8853056,1.4445745,1.504409,8.752607073,2.265790744,crawl
09/07/2020, 21:56:50,8.34138,-1.7778672,1.9669002,-0.9524667,1.4128256,1.4409112,8.752607073,2.231477987,crawl
09/07/2020, 21:56:50,8.195417,-1.7970098,1.9381863,-0.9524667,1.4128256,1.4409112,8.611078726,2.231477987,crawl
09/07/2020, 21:56:50,8.195417,-1.7970098,1.9381863,-0.9964267,1.3725289,1.3676445,8.611078726,2.178796317,crawl
09/07/2020, 21:56:51,10.741381,-2.6225336,5.2235317,-0.098910004,1.1283067,1.2711767,12.22866408,1.702571436,crawl
09/07/2020, 21:56:51,10.741381,-2.6225336,5.2235317,-0.26009667,1.1979101,1.4348056,12.22866408,1.887142288,crawl
09/07/2020, 21:56:51,9.839287,-2.589034,4.7306104,-0.26009667,1.1979101,1.4348056,11.22022,1.887142288,crawl
09/07/2020, 21:56:51,9.839287,-2.589034,4.7306104,-0.35290113,1.2162267,1.61553,11.22022,2.052725947,crawl
09/07/2020, 21:56:51,9.116654,-2.5842485,4.28076,-0.35290113,1.2162267,1.61553,10.39791481,2.052725947,crawl
09/07/2020, 21:56:51,9.116654,-2.5842485,4.28076,-0.3834289,1.2027946,1.790149,10.39791481,2.190517246,crawl
09/07/2020, 21:56:51,8.580662,-2.5507488,3.9026937,-0.3834289,1.2027946,1.790149,9.76550534,2.190517246,crawl
09/07/2020, 21:56:51,8.580662,-2.5507488,3.9026937,-0.36389112,1.1417389,1.9488934,9.76550534,2.287830859,crawl
09/07/2020, 21:56:51,8.298309,-2.5052853,3.6179478,-0.36389112,1.1417389,1.9488934,9.392972816,2.287830859,crawl
09/07/2020, 21:56:51,8.298309,-2.5052853,3.6179478,-0.32970002,1.05504,2.0929844,9.392972816,2.366937973,crawl
09/07/2020, 21:56:51,8.243274,-2.4191437,3.3906298,-0.32970002,1.05504,2.0929844,9.235810101,2.366937973,crawl
09/07/2020, 21:56:51,8.243274,-2.4191437,3.3906298,-0.27108666,0.9634567,2.2150958,9.235810101,2.430717176,crawl
09/07/2020, 21:56:51,8.394022,-2.3856442,3.2207394,-0.27108666,0.9634567,2.2150958,9.301831294,2.430717176,crawl
09/07/2020, 21:56:51,8.394022,-2.3856442,3.2207394,-0.19049335,0.8730945,2.3091211,9.301831294,2.476009314,crawl
09/07/2020, 21:56:51,8.772088,-2.3928227,3.1130621,-0.19049335,0.8730945,2.3091211,9.610738024,2.476009314,crawl
09/07/2020, 21:56:51,8.772088,-2.3928227,3.1130621,-0.07204556,0.7900589,2.3652923,9.610738024,2.494792849,crawl
09/07/2020, 21:56:51,9.29133,-2.4622145,3.103491,-0.07204556,0.7900589,2.3652923,10.10064237,2.494792849,crawl
09/07/2020, 21:56:51,9.29133,-2.4622145,3.103491,0.078151114,0.72534,2.3872724,10.10064237,2.496256204,crawl
09/07/2020, 21:56:51,9.920643,-2.603391,3.318845,0.078151114,0.72534,2.3872724,10.78014524,2.496256204,crawl
09/07/2020, 21:56:51,9.920643,-2.603391,3.318845,0.26498112,0.6618422,2.3811667,10.78014524,2.485599518,crawl
09/07/2020, 21:56:52,8.178668,-3.438486,6.257231,1.1612767,-0.42250445,-0.2625389,10.85664497,1.26332904,crawl
09/07/2020, 21:56:52,8.178668,-3.438486,6.257231,1.2333223,-0.35534334,-0.23201112,10.85664497,1.304293623,crawl
09/07/2020, 21:56:52,8.439486,-3.495914,6.2979093,1.2333223,-0.35534334,-0.23201112,11.09549422,1.304293623,crawl
09/07/2020, 21:56:52,8.439486,-3.495914,6.2979093,1.3017045,-0.27230778,-0.19904111,11.09549422,1.3446946,crawl
09/07/2020, 21:56:52,8.784052,-3.5700915,6.34098,1.3017045,-0.27230778,-0.19904111,11.40671508,1.3446946,crawl
09/07/2020, 21:56:52,8.784052,-3.5700915,6.34098,1.3554333,-0.20148334,-0.14775445,11.40671508,1.378269373,crawl
09/07/2020, 21:56:52,9.253045,-3.682554,6.3744793,1.3554333,-0.20148334,-0.14775445,11.82429844,1.378269373,crawl
09/07/2020, 21:56:52,9.253045,-3.682554,6.3744793,1.4140468,-0.12089001,-0.085477784,11.82429844,1.42177674,crawl
09/07/2020, 21:56:52,9.810573,-3.7615173,6.4438715,1.4140468,-0.12089001,-0.085477784,12.32557615,1.42177674,crawl
09/07/2020, 21:56:52,9.810573,-3.7615173,6.4438715,1.4848711,-0.04396,-0.025643334,12.32557615,1.485743044,crawl
09/07/2020, 21:56:52,10.573883,-3.859623,6.498906,1.4848711,-0.04396,-0.025643334,12.99767184,1.485743044,crawl
09/07/2020, 21:56:52,10.573883,-3.859623,6.498906,1.5679067,0.037854444,0.035412222,12.99767184,1.568763373,crawl
09/07/2020, 21:56:52,11.485549,-3.952943,6.5754766,1.5679067,0.037854444,0.035412222,13.81233099,1.568763373,crawl
09/07/2020, 21:56:52,11.485549,-3.952943,6.5754766,1.6423945,0.15019667,0.09646778,13.81233099,1.652066859,crawl
09/07/2020, 21:56:52,12.416357,-4.0103707,6.690332,1.6423945,0.15019667,0.09646778,14.6632035,1.652066859,crawl
09/07/2020, 21:56:52,12.416357,-4.0103707,6.690332,1.6753645,0.29795113,0.16973445,14.6632035,1.710096737,crawl
09/07/2020, 21:56:52,13.217953,-3.8907297,6.7262244,1.6753645,0.29795113,0.16973445,15.33278013,1.710096737,crawl
09/07/2020, 21:56:52,13.217953,-3.8907297,6.7262244,1.6375101,0.4921078,0.25277,15.33278013,1.728439172,crawl
09/07/2020, 21:56:52,13.79223,-3.7280176,6.687939,1.6375101,0.4921078,0.25277,15.77505132,1.728439172,crawl
09/07/2020, 21:56:52,13.79223,-3.7280176,6.687939,1.5215045,0.7265611,0.35168,15.77505132,1.72236637,crawl
09/07/2020, 21:56:53,9.389436,-3.926622,5.6853466,0.85111445,-1.0037534,-2.0832157,11.65774548,2.464082883,crawl
09/07/2020, 21:56:53,9.389436,-3.926622,5.6853466,0.88896894,-0.97933114,-1.998959,11.65774548,2.39691304,crawl
09/07/2020, 21:56:53,9.415757,-3.8500516,5.5704913,0.88896894,-0.97933114,-1.998959,11.59783404,2.39691304,crawl
09/07/2020, 21:56:53,9.415757,-3.8500516,5.5704913,0.90362227,-0.94880337,-1.911039,11.59783404,2.317073817,crawl
09/07/2020, 21:56:53,9.410972,-3.7184465,5.45085,0.90362227,-0.94880337,-1.911039,11.49369381,2.317073817,crawl
09/07/2020, 21:56:53,9.410972,-3.7184465,5.45085,0.89019006,-0.9048434,-1.8109078,11.49369381,2.211462665,crawl
09/07/2020, 21:56:53,9.45165,-3.6466618,5.345566,0.89019006,-0.9048434,-1.8109078,11.45455792,2.211462665,crawl
09/07/2020, 21:56:53,9.45165,-3.6466618,5.345566,0.8425667,-0.8523356,-1.6997868,11.45455792,2.079824446,crawl
09/07/2020, 21:56:53,9.523434,-3.5102708,5.2809596,0.8425667,-0.8523356,-1.6997868,11.44143019,2.079824446,crawl
09/07/2020, 21:56:53,9.523434,-3.5102708,5.2809596,0.7717422,-0.78761667,-1.5752333,11.44143019,1.922832847,crawl
09/07/2020, 21:56:53,9.623933,-3.3810585,5.218746,0.7717422,-0.78761667,-1.5752333,11.45805181,1.922832847,crawl
09/07/2020, 21:56:53,9.623933,-3.3810585,5.218746,0.6838223,-0.7070234,-1.4519012,11.45805181,1.753713789,crawl
09/07/2020, 21:56:53,9.65504,-3.3044882,5.1852465,0.6838223,-0.7070234,-1.4519012,11.44666835,1.753713789,crawl
09/07/2020, 21:56:53,9.65504,-3.3044882,5.1852465,0.5873545,-0.6252089,-1.3188001,11.44666835,1.573246692,crawl
09/07/2020, 21:56:53,9.611969,-3.237489,5.204389,0.5873545,-0.6252089,-1.3188001,11.39986617,1.573246692,crawl
09/07/2020, 21:56:53,9.611969,-3.237489,5.204389,0.5018767,-0.54339445,-1.1795933,11.39986617,1.392335509,crawl
09/07/2020, 21:56:53,9.540184,-3.199204,5.204389,0.5018767,-0.54339445,-1.1795933,11.32853402,1.392335509,crawl
09/07/2020, 21:56:53,9.540184,-3.199204,5.204389,0.42128336,-0.4689067,-1.0293967,11.32853402,1.207066956,crawl
09/07/2020, 21:56:53,9.406186,-3.1441689,5.2307105,0.42128336,-0.4689067,-1.0293967,11.21260305,1.207066956,crawl
09/07/2020, 21:56:53,9.406186,-3.1441689,5.2307105,0.34435335,-0.40296668,-0.8730945,11.21260305,1.021398735,crawl
09/07/2020, 21:56:54,7.372287,-2.5818555,4.106084,0.82425004,-1.4445745,-2.1821256,8.824767156,2.743693777,crawl
09/07/2020, 21:56:54,7.800602,-2.6009982,4.28076,0.82425004,-1.4445745,-2.1821256,9.270355276,2.743693777,crawl
09/07/2020, 21:56:54,7.800602,-2.6009982,4.28076,0.9927634,-1.5190623,-2.1711357,9.270355276,2.829657126,crawl
09/07/2020, 21:56:54,8.389236,-2.5842485,4.462614,0.9927634,-1.5190623,-2.1711357,9.847464292,2.829657126,crawl
09/07/2020, 21:56:54,8.389236,-2.5842485,4.462614,1.1478444,-1.5825601,-2.1552613,9.847464292,2.90984439,crawl
09/07/2020, 21:56:54,9.083155,-2.5220351,4.6085763,1.1478444,-1.5825601,-2.1552613,10.49301365,2.90984439,crawl
09/07/2020, 21:56:54,9.083155,-2.5220351,4.6085763,1.2540811,-1.6521634,-2.1479344,10.49301365,2.985964782,crawl
09/07/2020, 21:56:54,9.836894,-2.4191437,4.682754,1.2540811,-1.6521634,-2.1479344,11.15996979,2.985964782,crawl
09/07/2020, 21:56:54,9.836894,-2.4191437,4.682754,1.3175789,-1.68147,-2.1479344,11.15996979,3.029352739,crawl
09/07/2020, 21:56:54,10.631311,-2.3018954,4.7569313,1.3175789,-1.68147,-2.1479344,11.87231655,3.029352739,crawl
09/07/2020, 21:56:54,10.631311,-2.3018954,4.7569313,1.3224634,-1.6631534,-2.1479344,11.87231655,3.021359137,crawl
09/07/2020, 21:56:54,11.327622,-2.1702902,4.802395,1.3224634,-1.6631534,-2.1479344,12.49352575,3.021359137,crawl
09/07/2020, 21:56:54,11.327622,-2.1702902,4.802395,1.2491968,-1.5911078,-2.15404,12.49352575,2.954996698,crawl
09/07/2020, 21:56:54,11.813365,-2.0195422,4.8215375,1.2491968,-1.5911078,-2.15404,12.91825711,2.954996698,crawl
09/07/2020, 21:56:54,11.813365,-2.0195422,4.8215375,1.10999,-1.4848711,-2.1479344,12.91825711,2.837347789,crawl
09/07/2020, 21:56:54,11.971292,-1.8065811,4.7688956,1.10999,-1.4848711,-2.1479344,13.01222203,2.837347789,crawl
09/07/2020, 21:56:54,11.971292,-1.8065811,4.7688956,0.9048434,-1.3932878,-2.1442711,13.01222203,2.712543289,crawl
09/07/2020, 21:56:54,11.779866,-1.5984055,4.685147,0.9048434,-1.3932878,-2.1442711,12.77774428,2.712543289,crawl
09/07/2020, 21:56:54,11.779866,-1.5984055,4.685147,0.67039,-1.32979,-2.141829,12.77774428,2.608677006,crawl
09/07/2020, 21:56:54,11.492727,-1.4117653,4.6085763,0.67039,-1.32979,-2.141829,12.46253735,2.608677006,crawl
09/07/2020, 21:56:55,7.628319,-1.68694,2.1463618,-0.60811335,0.7436567,1.2601867,8.102091274,1.584581198,crawl
09/07/2020, 21:56:55,7.628319,-1.68694,2.1463618,-0.62765115,0.68504333,1.1563922,8.102091274,1.483399239,crawl
09/07/2020, 21:56:55,7.587641,-1.5840486,2.1176481,-0.62765115,0.68504333,1.1563922,8.035293148,1.483399239,crawl
09/07/2020, 21:56:55,7.587641,-1.5840486,2.1176481,-0.64841,0.6288723,1.0403867,8.035293148,1.377795461,crawl
09/07/2020, 21:56:55,7.5661054,-1.4715859,2.1391835,-0.64841,0.6288723,1.0403867,7.999226307,1.377795461,crawl
09/07/2020, 21:56:55,7.5661054,-1.4715859,2.1391835,-0.6667267,0.5653745,0.9170545,7.999226307,1.266949774,crawl
09/07/2020, 21:56:55,7.537391,-1.3950156,2.172683,-0.6667267,0.5653745,0.9170545,7.967363794,1.266949774,crawl
09/07/2020, 21:56:55,7.537391,-1.3950156,2.172683,-0.6899278,0.5018767,0.7766267,7.967363794,1.15370259,crawl
09/07/2020, 21:56:55,7.587641,-1.3543376,2.199004,-0.6899278,0.5018767,0.7766267,8.015119519,1.15370259,crawl
09/07/2020, 21:56:55,7.587641,-1.3543376,2.199004,-0.69603336,0.42983112,0.6252089,8.015119519,1.029613234,crawl
09/07/2020, 21:56:55,7.6737823,-1.3591232,2.225325,-0.69603336,0.42983112,0.6252089,8.104703778,1.029613234,crawl
09/07/2020, 21:56:55,7.6737823,-1.3591232,2.225325,-0.69114894,0.36267,0.4566956,8.104703778,0.904315898,crawl
09/07/2020, 21:56:55,7.745567,-1.3998013,2.2827528,-0.69114894,0.36267,0.4566956,8.195377321,0.904315898,crawl
09/07/2020, 21:56:55,7.745567,-1.3998013,2.2827528,-0.6801589,0.29673,0.28574002,8.195377321,0.795180611,crawl
09/07/2020, 21:56:55,7.84128,-1.4237294,2.3665016,-0.6801589,0.29673,0.28574002,8.313423297,0.795180611,crawl
09/07/2020, 21:56:55,7.84128,-1.4237294,2.3665016,-0.6471889,0.22346334,0.109900005,8.313423297,0.693445997,crawl
09/07/2020, 21:56:55,8.006385,-1.4476577,2.5268207,-0.6471889,0.22346334,0.109900005,8.519550096,0.693445997,crawl
09/07/2020, 21:56:55,8.006385,-1.4476577,2.5268207,-0.6020078,0.15386,-0.07693,8.519550096,0.626102647,crawl
09/07/2020, 21:56:55,8.260024,-1.3878372,2.7421749,-0.6020078,0.15386,-0.07693,8.81326345,0.626102647,crawl
09/07/2020, 21:56:55,8.260024,-1.3878372,2.7421749,-0.56659555,0.10379445,-0.26498112,8.81326345,0.634049528,crawl
09/07/2020, 21:56:56,8.008778,-1.0289137,1.5720844,-0.9927634,1.4555645,1.7925912,8.226216133,2.513489694,crawl
09/07/2020, 21:56:56,8.008778,-1.0289137,1.5720844,-1.064809,1.3774134,1.6497211,8.226216133,2.398471522,crawl
09/07/2020, 21:56:56,7.8293157,-0.9499506,1.5625132,-1.064809,1.3774134,1.6497211,8.040027204,2.398471522,crawl
09/07/2020, 21:56:56,7.8293157,-0.9499506,1.5625132,-1.119759,1.2919356,1.4934189,8.040027204,2.270078796,crawl
09/07/2020, 21:56:56,7.688139,-0.9068798,1.550549,-1.119759,1.2919356,1.4934189,7.895195623,2.270078796,crawl
09/07/2020, 21:56:56,7.688139,-0.9068798,1.550549,-1.1637189,1.2040156,1.3285689,7.895195623,2.137519773,crawl
09/07/2020, 21:56:56,7.6139617,-0.9499506,1.6007984,-1.1637189,1.2040156,1.3285689,7.83819968,2.137519773,crawl
09/07/2020, 21:56:56,7.6139617,-0.9499506,1.6007984,-1.18692,1.119759,1.1490656,7.83819968,1.99574325,crawl
09/07/2020, 21:56:56,7.580462,-1.0241281,1.7180467,-1.18692,1.119759,1.1490656,7.83989327,1.99574325,crawl
09/07/2020, 21:56:56,7.580462,-1.0241281,1.7180467,-1.1893623,1.0562612,0.96223557,7.83989327,1.85907709,crawl
09/07/2020, 21:56:56,7.487142,-1.119841,1.7970098,-1.1893623,1.0562612,0.96223557,7.780783042,1.85907709,crawl
09/07/2020, 21:56:56,7.487142,-1.119841,1.7970098,-1.1661612,0.9964267,0.7631945,7.780783042,1.713261193,crawl
09/07/2020, 21:56:56,7.372287,-1.2490535,1.9525433,-1.1661612,0.9964267,0.7631945,7.728076888,1.713261193,crawl
09/07/2020, 21:56:56,7.372287,-1.2490535,1.9525433,-1.119759,0.92438114,0.5678167,7.728076888,1.559088323,crawl
09/07/2020, 21:56:56,7.23111,-1.3926228,2.053042,-1.119759,0.92438114,0.5678167,7.644823919,1.559088323,crawl
09/07/2020, 21:56:56,7.23111,-1.3926228,2.053042,-1.064809,0.85111445,0.37854445,7.644823919,1.414747271,crawl
09/07/2020, 21:56:56,7.0468626,-1.5672989,2.1774685,-1.064809,0.85111445,0.37854445,7.540296253,1.414747271,crawl
09/07/2020, 21:56:56,7.0468626,-1.5672989,2.1774685,-1.009859,0.7680789,0.19171445,7.540296253,1.283165926,crawl
09/07/2020, 21:56:56,6.896115,-1.68694,2.199004,-1.009859,0.7680789,0.19171445,7.432212619,1.283165926,crawl
09/07/2020, 21:56:56,6.896115,-1.68694,2.199004,-0.9500245,0.6679478,0.008547778,7.432212619,1.16136725,crawl
09/07/2020, 21:56:57,11.743974,-1.5984055,2.8474588,2.0844367,1.1918045,3.1712258,12.18949716,3.977681132,crawl
09/07/2020, 21:56:57,11.743974,-1.5984055,2.8474588,1.8414357,1.24187,3.1553512,12.18949716,3.858674318,crawl
09/07/2020, 21:56:57,11.700903,-1.564906,2.87378,1.8414357,1.24187,3.1553512,12.14984247,3.858674318,crawl
09/07/2020, 21:56:57,11.700903,-1.564906,2.87378,1.6216357,1.2797245,3.1297078,12.14984247,3.749995734,crawl
09/07/2020, 21:56:57,11.69851,-1.6319051,2.9072795,1.6216357,1.2797245,3.1297078,12.16431373,3.749995734,crawl
09/07/2020, 21:56:57,11.69851,-1.6319051,2.9072795,1.4323634,1.3114734,3.0930746,12.16431373,3.65222364,crawl
09/07/2020, 21:56:57,11.703296,-1.7659031,2.9623144,1.4323634,1.3114734,3.0930746,12.2008545,3.65222364,crawl
09/07/2020, 21:56:57,11.703296,-1.7659031,2.9623144,1.2699556,1.34078,3.0393457,12.2008545,3.556416864,crawl
09/07/2020, 21:56:57,11.693725,-1.9046868,3.0460632,1.2699556,1.34078,3.0393457,12.23313241,3.556416864,crawl
09/07/2020, 21:56:57,11.693725,-1.9046868,3.0460632,1.1417389,1.3749712,2.9721847,12.23313241,3.468139992,crawl
09/07/2020, 21:56:57,11.660225,-2.1128623,3.0795627,1.1417389,1.3749712,2.9721847,12.24372241,3.468139992,crawl
09/07/2020, 21:56:57,11.660225,-2.1128623,3.0795627,1.0623667,1.3981723,2.887928,12.24372241,3.379887115,crawl
09/07/2020, 21:56:57,11.600404,-2.2971098,3.0987053,1.0623667,1.3981723,2.887928,12.22489493,3.379887115,crawl
09/07/2020, 21:56:57,11.600404,-2.2971098,3.0987053,1.0293967,1.4225945,2.7926812,12.22489493,3.298863607,crawl
09/07/2020, 21:56:57,11.464013,-2.4191437,3.089134,1.0293967,1.4225945,2.7926812,12.11687258,3.298863607,crawl
09/07/2020, 21:56:57,11.464013,-2.4191437,3.089134,1.0318389,1.4348056,2.6827812,12.11687258,3.212580548,crawl
09/07/2020, 21:56:57,11.260623,-2.5938199,3.0077782,1.0318389,1.4348056,2.6827812,11.94053017,3.212580548,crawl
09/07/2020, 21:56:57,11.260623,-2.5938199,3.0077782,1.0611455,1.4360267,2.5728812,11.94053017,3.131759938,crawl
09/07/2020, 21:56:57,11.050055,-2.6991038,2.8666015,1.0611455,1.4360267,2.5728812,11.73056994,3.131759938,crawl
09/07/2020, 21:56:57,11.050055,-2.6991038,2.8666015,1.0977789,1.4335845,2.4556546,11.73056994,3.048035851,crawl
09/07/2020, 21:56:58,8.779266,-2.7397819,4.505685,-0.54461557,1.2027946,0.7973856,10.24124594,1.542447601,crawl
09/07/2020, 21:56:58,8.374879,-2.696711,4.0031924,-0.54461557,1.2027946,0.7973856,9.666250383,1.542447601,crawl
09/07/2020, 21:56:58,8.374879,-2.696711,4.0031924,-0.5507211,1.1490656,0.94758224,9.666250383,1.58794132,crawl
09/07/2020, 21:56:58,8.322237,-2.6679974,3.694518,-0.5507211,1.1490656,0.94758224,9.488271853,1.58794132,crawl
09/07/2020, 21:56:58,8.322237,-2.6679974,3.694518,-0.5018767,1.0733567,1.0855678,9.488271853,1.606994854,crawl
09/07/2020, 21:56:58,8.578269,-2.6919255,3.5318062,-0.5018767,1.0733567,1.0855678,9.659545404,1.606994854,crawl
09/07/2020, 21:56:58,8.578269,-2.6919255,3.5318062,-0.3944189,1.0147433,1.2223322,9.659545404,1.636877023,crawl
09/07/2020, 21:56:58,9.049655,-2.778067,3.5102708,-0.3944189,1.0147433,1.2223322,10.09633167,1.636877023,crawl
09/07/2020, 21:56:58,9.049655,-2.778067,3.5102708,-0.23445335,0.9524667,1.339559,10.09633167,1.660294987,crawl
09/07/2020, 21:56:58,9.623933,-2.9838498,3.6658044,-0.23445335,0.9524667,1.339559,10.72201308,1.660294987,crawl
09/07/2020, 21:56:58,9.623933,-2.9838498,3.6658044,-0.023201112,0.8865267,1.4348056,10.72201308,1.686752824,crawl
09/07/2020, 21:56:58,10.298709,-3.249453,3.885944,-0.023201112,0.8865267,1.4348056,11.47706018,1.686752824,crawl
09/07/2020, 21:56:58,10.298709,-3.249453,3.885944,0.22346334,0.85111445,1.5141778,11.47706018,1.751304109,crawl
09/07/2020, 21:56:58,11.002198,-3.5509489,4.278367,0.22346334,0.85111445,1.5141778,12.32728794,1.751304109,crawl
09/07/2020, 21:56:58,11.002198,-3.5509489,4.278367,0.48478112,0.88042116,1.5825601,12.32728794,1.874740116,crawl
09/07/2020, 21:56:58,11.602797,-3.9026937,4.718646,0.48478112,0.88042116,1.5825601,13.1195094,1.874740116,crawl
09/07/2020, 21:56:58,11.602797,-3.9026937,4.718646,0.7338878,0.95857227,1.636289,13.1195094,2.033443822,crawl
09/07/2020, 21:56:58,11.96172,-4.1180477,5.0249276,0.7338878,0.95857227,1.636289,13.61216261,2.033443822,crawl
09/07/2020, 21:56:58,11.96172,-4.1180477,5.0249276,0.96223557,1.0428289,1.6729223,13.61216261,2.193640424,crawl
09/07/2020, 21:56:58,12.0023985,-4.1922255,5.180461,0.96223557,1.0428289,1.6729223,13.7284194,2.193640424,crawl
09/07/2020, 21:56:59,9.942178,-3.182454,5.948557,1.1063267,-1.1087689,-1.8927222,12.01500072,2.456771223,crawl
09/07/2020, 21:56:59,9.937392,-3.1202407,5.9988065,1.1063267,-1.1087689,-1.8927222,12.01970655,2.456771223,crawl
09/07/2020, 21:56:59,9.937392,-3.1202407,5.9988065,1.06603,-1.0696933,-1.7669479,12.01970655,2.324385637,crawl
09/07/2020, 21:56:59,9.911072,-3.0364919,6.087341,1.06603,-1.0696933,-1.7669479,12.0210376,2.324385637,crawl
09/07/2020, 21:56:59,9.911072,-3.0364919,6.087341,1.0147433,-1.01108,-1.6387311,12.0210376,2.176563009,crawl
09/07/2020, 21:56:59,9.891929,-2.9982069,6.175875,1.0147433,-1.01108,-1.6387311,12.04080278,2.176563009,crawl
09/07/2020, 21:56:59,9.891929,-2.9982069,6.175875,0.9512456,-0.9414767,-1.5080723,12.04080278,2.01631558,crawl
09/07/2020, 21:56:59,9.844072,-2.9766715,6.2811594,0.9512456,-0.9414767,-1.5080723,12.05069694,2.01631558,crawl
09/07/2020, 21:56:59,9.844072,-2.9766715,6.2811594,0.88286334,-0.86088336,-1.3664234,12.05069694,1.840565309,crawl
09/07/2020, 21:56:59,9.738789,-2.9838498,6.3744793,0.88286334,-0.86088336,-1.3664234,12.01587904,1.840565309,crawl
09/07/2020, 21:56:59,9.738789,-2.9838498,6.3744793,0.8095967,-0.7717422,-1.229659,12.01587904,1.662255717,crawl
09/07/2020, 21:56:59,9.571291,-3.0269206,6.4151573,0.8095967,-0.7717422,-1.229659,11.91327421,1.662255717,crawl
09/07/2020, 21:56:59,9.571291,-3.0269206,6.4151573,0.7546467,-0.6789378,-1.0831256,11.91327421,1.484455874,crawl
09/07/2020, 21:56:59,9.329616,-3.0652058,6.4343,0.7546467,-0.6789378,-1.0831256,11.74041863,1.484455874,crawl
09/07/2020, 21:56:59,9.329616,-3.0652058,6.4343,0.71923447,-0.58979666,-0.9402556,11.74041863,1.322587948,crawl
09/07/2020, 21:56:59,9.013762,-3.0963125,6.4677997,0.71923447,-0.58979666,-0.9402556,11.51813777,1.322587948,crawl
09/07/2020, 21:56:59,9.013762,-3.0963125,6.4677997,0.7021389,-0.51775116,-0.7986067,11.51813777,1.182724798,crawl
09/07/2020, 21:56:59,8.652447,-3.1226335,6.398408,0.7021389,-0.51775116,-0.7986067,11.20514607,1.182724798,crawl
09/07/2020, 21:56:59,8.652447,-3.1226335,6.398408,0.71435004,-0.4566956,-0.6569578,11.20514607,1.072595172,crawl
09/07/2020, 21:56:59,8.348558,-3.1657043,6.3314085,0.71435004,-0.4566956,-0.6569578,10.94563131,1.072595172,crawl
09/07/2020, 21:57:00,-3.2279177,-3.9433718,0.033499517,-2.62661,-2.9160135,2.2150958,5.096151062,4.506535713,crawl
09/07/2020, 21:57:00,-2.8139594,-3.6466618,0.1698904,-2.62661,-2.9160135,2.2150958,4.609270225,4.506535713,crawl
09/07/2020, 21:57:00,-2.8139594,-3.6466618,0.1698904,-2.5411322,-2.7865756,1.998959,4.609270225,4.268277534,crawl
09/07/2020, 21:57:00,-2.469393,-3.3427732,0.09092726,-2.5411322,-2.7865756,1.998959,4.156958298,4.268277534,crawl
09/07/2020, 21:57:00,-2.469393,-3.3427732,0.09092726,-2.515489,-2.614399,1.7632846,4.156958298,4.03384925,crawl
09/07/2020, 21:57:00,-2.1966112,-3.103491,-0.0526421,-2.515489,-2.614399,1.7632846,3.802568686,4.03384925,crawl
09/07/2020, 21:57:00,-2.1966112,-3.103491,-0.0526421,-2.5106046,-2.449549,1.5141778,3.802568686,3.820492124,crawl
09/07/2020, 21:57:00,-2.0291135,-2.9910283,0.16510476,-2.5106046,-2.449549,1.5141778,3.618122669,3.820492124,crawl
09/07/2020, 21:57:00,-2.0291135,-2.9910283,0.16510476,-2.481298,-2.2834778,1.2882723,3.618122669,3.609813821,crawl
09/07/2020, 21:57:00,-1.9908284,-2.940779,0.5814559,-2.481298,-2.2834778,1.2882723,3.598564936,3.609813821,crawl
09/07/2020, 21:57:00,-1.9908284,-2.940779,0.5814559,-2.4434435,-2.0942056,1.1185378,3.598564936,3.406940014,crawl
09/07/2020, 21:57:00,-1.995614,-2.9240294,1.052842,-2.4434435,-2.0942056,1.1185378,3.693358824,3.406940014,crawl
09/07/2020, 21:57:00,-1.995614,-2.9240294,1.052842,-2.4007046,-1.8817323,0.98055226,3.693358824,3.204025909,crawl
09/07/2020, 21:57:00,-2.132005,-2.8163524,1.3447664,-2.4007046,-1.8817323,0.98055226,3.779640524,3.204025909,crawl
09/07/2020, 21:57:00,-2.132005,-2.8163524,1.3447664,-2.3628502,-1.6582689,0.84745115,3.779640524,3.008503001,crawl
09/07/2020, 21:57:00,-2.3832514,-2.861816,1.1700903,-2.3628502,-1.6582689,0.84745115,3.903714787,3.008503001,crawl
09/07/2020, 21:57:00,-2.3832514,-2.861816,1.1700903,-2.3628502,-1.4421322,0.7448778,3.903714787,2.866644268,crawl
09/07/2020, 21:57:00,-2.6679974,-3.0915267,0.8422736,-2.3628502,-1.4421322,0.7448778,4.169553015,2.866644268,crawl
09/07/2020, 21:57:00,-2.6679974,-3.0915267,0.8422736,-2.372619,-1.28583,0.67039,4.169553015,2.780665769,crawl
09/07/2020, 21:57:00,-3.0269206,-3.35713,0.6987042,-2.372619,-1.28583,0.67039,4.573921487,2.780665769,crawl
09/07/2020, 21:57:01,-9.616755,-3.158526,-1.5098711,-1.2931567,-0.18927222,-0.4566956,10.23415676,1.384431001,crawl
09/07/2020, 21:57:01,-9.52822,-3.5700915,-1.1078769,-1.2931567,-0.18927222,-0.4566956,10.23522956,1.384431001,crawl
09/07/2020, 21:57:01,-9.52822,-3.5700915,-1.1078769,-1.3566545,-0.14287001,-0.45303226,10.23522956,1.437414889,crawl
09/07/2020, 21:57:01,-9.212367,-4.115655,-1.174876,-1.3566545,-0.14287001,-0.45303226,10.15808328,1.437414889,crawl
09/07/2020, 21:57:01,-9.212367,-4.115655,-1.174876,-1.3835189,-0.07326667,-0.47501224,10.15808328,1.464625985,crawl
09/07/2020, 21:57:01,-9.176475,-4.6707897,-1.3112668,-1.3835189,-0.07326667,-0.47501224,10.379951,1.464625985,crawl
09/07/2020, 21:57:01,-9.176475,-4.6707897,-1.3112668,-1.3725289,-0.064718895,-0.49821335,10.379951,1.461588413,crawl
09/07/2020, 21:57:01,-9.35833,-5.3742795,-1.3567305,-1.3725289,-0.064718895,-0.49821335,10.87666924,1.461588413,crawl
09/07/2020, 21:57:01,-9.35833,-5.3742795,-1.3567305,-1.3310112,-0.09280445,-0.45425335,10.87666924,1.409450077,crawl
09/07/2020, 21:57:01,-9.597611,-6.393622,-1.294517,-1.3310112,-0.09280445,-0.45425335,11.60466806,1.409450077,crawl
09/07/2020, 21:57:01,-9.597611,-6.393622,-1.294517,-1.1478444,-0.14164889,-0.37854445,11.60466806,1.216925286,crawl
09/07/2020, 21:57:01,-9.762716,-7.001399,-0.9284152,-1.1478444,-0.14164889,-0.37854445,12.04957147,1.216925286,crawl
09/07/2020, 21:57:01,-9.762716,-7.001399,-0.9284152,-0.78395337,-0.16485001,-0.30405667,12.04957147,0.85685989,crawl
09/07/2020, 21:57:01,-9.7196455,-7.365108,-0.56470615,-0.78395337,-0.16485001,-0.30405667,12.2079981,0.85685989,crawl
09/07/2020, 21:57:01,-9.7196455,-7.365108,-0.56470615,-0.4933289,-0.10745778,-0.19537778,12.2079981,0.541380693,crawl
09/07/2020, 21:57:01,-9.509077,-7.3292155,-0.4139583,-0.4933289,-0.10745778,-0.19537778,12.01296418,0.541380693,crawl
09/07/2020, 21:57:01,-8.539984,-7.0301127,-0.7896315,-0.4933289,-0.10745778,-0.19537778,11.08951421,0.541380693,crawl
09/07/2020, 21:57:01,-8.52802,-7.520642,-1.3208381,-0.4933289,-0.10745778,-0.19537778,11.44691181,0.541380693,crawl
09/07/2020, 21:57:01,-8.52802,-7.520642,-1.3208381,-0.5470578,0.48966557,0.06594,11.44691181,0.737151746,crawl
09/07/2020, 21:57:01,-8.597412,-8.130812,-1.6007984,-0.5470578,0.48966557,0.06594,11.94102798,0.737151746,crawl
09/07/2020, 21:57:02,6.7094746,0.2847459,3.9768713,-0.45547447,0.2869611,0.41884112,7.804718708,0.682078847,crawl
09/07/2020, 21:57:02,6.250053,0.031106694,4.1922255,-0.45547447,0.2869611,0.41884112,7.525880913,0.682078847,crawl
09/07/2020, 21:57:02,6.250053,0.031106694,4.1922255,-0.16973445,0.13432223,0.34679556,7.525880913,0.408802401,crawl
09/07/2020, 21:57:02,5.9676995,0.08135597,4.290331,-0.16973445,0.13432223,0.34679556,7.350305814,0.408802401,crawl
09/07/2020, 21:57:02,5.9676995,0.08135597,4.290331,0.068382226,-0.012211111,0.2625389,7.350305814,0.271573046,crawl
09/07/2020, 21:57:02,5.946164,0.4354937,4.3094735,0.068382226,-0.012211111,0.2625389,7.356499481,0.271573046,crawl
09/07/2020, 21:57:02,5.946164,0.4354937,4.3094735,0.21491556,-0.11966889,0.17217667,7.356499481,0.300256804,crawl
09/07/2020, 21:57:02,6.209375,0.88295156,4.23051,0.21491556,-0.11966889,0.17217667,7.565259877,0.300256804,crawl
09/07/2020, 21:57:02,6.209375,0.88295156,4.23051,0.2613178,-0.16729222,0.070824444,7.565259877,0.318260548,crawl
09/07/2020, 21:57:02,6.7836523,1.1940185,4.1276193,0.2613178,-0.16729222,0.070824444,8.029997481,0.318260548,crawl
09/07/2020, 21:57:02,6.7836523,1.1940185,4.1276193,0.24300112,-0.17584,-0.037854444,8.029997481,0.302327984,crawl
09/07/2020, 21:57:02,7.3842506,1.4237294,3.9338005,0.24300112,-0.17584,-0.037854444,8.486987041,0.302327984,crawl
09/07/2020, 21:57:02,7.3842506,1.4237294,3.9338005,0.19904111,-0.18927222,-0.14042778,8.486987041,0.308482256,crawl
09/07/2020, 21:57:02,7.8867435,1.4907285,3.711268,0.19904111,-0.18927222,-0.14042778,8.842878773,0.308482256,crawl
09/07/2020, 21:57:02,7.8867435,1.4907285,3.711268,0.12577444,-0.22712667,-0.23079,8.842878773,0.347375535,crawl
09/07/2020, 21:57:02,8.228917,1.4404793,3.5174494,0.12577444,-0.22712667,-0.23079,9.064353683,0.347375535,crawl
09/07/2020, 21:57:02,8.228917,1.4404793,3.5174494,0.054950003,-0.2845189,-0.31382558,9.064353683,0.427149855,crawl
09/07/2020, 21:57:02,8.377272,1.2969099,3.4360933,0.054950003,-0.2845189,-0.31382558,9.146988197,0.427149855,crawl
09/07/2020, 21:57:02,8.377272,1.2969099,3.4360933,0.029306669,-0.34679556,-0.41273558,9.146988197,0.539885822,crawl
09/07/2020, 21:57:02,8.336594,1.1030912,3.7974095,0.029306669,-0.34679556,-0.41273558,9.22691296,0.539885822,crawl
09/07/2020, 21:57:03,4.319045,-1.4189439,7.372287,0.5336256,1.1881411,1.3529912,8.66130271,1.878036428,crawl
09/07/2020, 21:57:03,4.182654,-1.3064811,7.312466,0.5336256,1.1881411,1.3529912,8.52488403,1.878036428,crawl
09/07/2020, 21:57:03,4.182654,-1.3064811,7.312466,0.49821335,1.2101212,1.3420012,8.52488403,1.87445378,crawl
09/07/2020, 21:57:03,3.9960139,-1.174876,7.2095747,0.49821335,1.2101212,1.3420012,8.326249325,1.87445378,crawl
09/07/2020, 21:57:03,3.9960139,-1.174876,7.2095747,0.5006556,1.2125634,1.3346745,8.326249325,1.871449163,crawl
09/07/2020, 21:57:03,3.7710886,-1.105484,7.082755,0.5006556,1.2125634,1.3346745,8.099915047,1.871449163,crawl
09/07/2020, 21:57:03,3.7710886,-1.105484,7.082755,0.50554,1.2052367,1.3346745,8.099915047,1.868026259,crawl
09/07/2020, 21:57:03,3.5653057,-1.0600204,6.920043,0.50554,1.2052367,1.3346745,7.85633777,1.868026259,crawl
09/07/2020, 21:57:03,3.5653057,-1.0600204,6.920043,0.5226356,1.1893623,1.3444434,7.85633777,1.869561115,crawl
09/07/2020, 21:57:03,3.318845,-1.0097711,6.7908306,0.5226356,1.1893623,1.3444434,7.625598367,1.869561115,crawl
09/07/2020, 21:57:03,3.318845,-1.0097711,6.7908306,0.56171113,1.1673822,1.3554333,7.625598367,1.874966731,crawl
09/07/2020, 21:57:03,3.1322048,-0.9834501,6.7764735,0.56171113,1.1673822,1.3554333,7.529838926,1.874966731,crawl
09/07/2020, 21:57:03,3.1322048,-0.9834501,6.7764735,0.6239878,1.1283067,1.3725289,7.529838926,1.88315493,crawl
09/07/2020, 21:57:03,2.9623144,-0.9451649,6.8865438,0.6239878,1.1283067,1.3725289,7.555999468,1.88315493,crawl
09/07/2020, 21:57:03,2.9623144,-0.9451649,6.8865438,0.6777167,1.0916734,1.3810767,7.555999468,1.886378402,crawl
09/07/2020, 21:57:03,2.8881369,-0.89491564,7.02772,0.6777167,1.0916734,1.3810767,7.650559234,1.886378402,crawl
09/07/2020, 21:57:03,2.8881369,-0.89491564,7.02772,0.69603336,1.0574822,1.3725289,7.650559234,1.867235052,crawl
09/07/2020, 21:57:03,2.885744,-0.7848458,7.133004,0.69603336,1.0574822,1.3725289,7.73454916,1.867235052,crawl
09/07/2020, 21:57:03,2.885744,-0.7848458,7.133004,0.6874856,1.0232911,1.34078,7.73454916,1.821387432,crawl
09/07/2020, 21:57:03,2.9503503,-0.64845496,7.2095747,0.6874856,1.0232911,1.34078,7.816842584,1.821387432,crawl
09/07/2020, 21:57:04,9.640682,-1.3399807,3.859623,0.96589893,1.5398211,1.7132189,10.47067292,2.497824855,crawl
09/07/2020, 21:57:04,9.640682,-1.3399807,3.859623,0.69114894,1.6399523,1.8157923,10.47067292,2.54248543,crawl
09/07/2020, 21:57:04,9.839287,-1.4404793,3.8117664,0.69114894,1.6399523,1.8157923,10.64969992,2.54248543,crawl
09/07/2020, 21:57:04,9.839287,-1.4404793,3.8117664,0.46646446,1.7327567,1.9073756,10.64969992,2.618800598,crawl
09/07/2020, 21:57:04,10.057034,-1.6390835,3.7734814,0.46646446,1.7327567,1.9073756,10.8659873,2.618800598,crawl
09/07/2020, 21:57:04,10.057034,-1.6390835,3.7734814,0.28818223,1.8060234,1.9891901,10.8659873,2.702155923,crawl
09/07/2020, 21:57:04,10.250853,-1.8281165,3.7471602,0.28818223,1.8060234,1.9891901,11.06630916,2.702155923,crawl
09/07/2020, 21:57:04,10.250853,-1.8281165,3.7471602,0.14775445,1.8475412,2.0697834,11.06630916,2.778352648,crawl
09/07/2020, 21:57:04,10.432707,-2.050649,3.7447674,0.14775445,1.8475412,2.0697834,11.27252483,2.778352648,crawl
09/07/2020, 21:57:04,10.432707,-2.050649,3.7447674,0.042738892,1.8829534,2.141829,11.27252483,2.852152111,crawl
09/07/2020, 21:57:04,10.671989,-2.2636101,3.682554,0.042738892,1.8829534,2.141829,11.51418662,2.852152111,crawl
09/07/2020, 21:57:04,10.671989,-2.2636101,3.682554,-0.023201112,1.90127,2.2053268,11.51418662,2.911843454,crawl
09/07/2020, 21:57:04,10.959127,-2.498107,3.6011982,-0.023201112,1.90127,2.2053268,11.80303523,2.911843454,crawl
09/07/2020, 21:57:04,10.959127,-2.498107,3.6011982,-0.046402223,1.91226,2.2590556,11.80303523,2.960105396,crawl
09/07/2020, 21:57:04,11.320444,-2.7182465,3.5509489,-0.046402223,1.91226,2.2590556,12.17171132,2.960105396,crawl
09/07/2020, 21:57:04,11.320444,-2.7182465,3.5509489,-0.023201112,1.9232501,2.3054578,12.17171132,3.002426513,crawl
09/07/2020, 21:57:04,11.662618,-2.928815,3.5198421,-0.023201112,1.9232501,2.3054578,12.52932147,3.002426513,crawl
09/07/2020, 21:57:04,11.662618,-2.928815,3.5198421,0.028085556,1.9317979,2.3420913,12.52932147,3.036119816,crawl
09/07/2020, 21:57:04,12.021541,-3.1154552,3.5126636,0.028085556,1.9317979,2.3420913,12.90590197,3.036119816,crawl
09/07/2020, 21:57:04,12.021541,-3.1154552,3.5126636,0.10867889,1.9317979,2.3640711,12.90590197,3.054911847,crawl
09/07/2020, 21:57:05,10.152746,-2.6081767,5.845666,1.4860923,-1.6753645,-0.40785113,12.00219361,2.276325799,crawl
09/07/2020, 21:57:05,9.829716,-2.5531418,6.108876,1.4860923,-1.6753645,-0.40785113,11.85159117,2.276325799,crawl
09/07/2020, 21:57:05,9.829716,-2.5531418,6.108876,1.4860923,-1.5679067,-0.2942878,11.85159117,2.18023101,crawl
09/07/2020, 21:57:05,9.475577,-2.4789643,6.465407,1.4860923,-1.5679067,-0.2942878,11.73598384,2.18023101,crawl
09/07/2020, 21:57:05,9.475577,-2.4789643,6.465407,1.4787656,-1.4457957,-0.16973445,11.73598384,2.075062066,crawl
09/07/2020, 21:57:05,9.064013,-2.416751,6.8051877,1.4787656,-1.4457957,-0.16973445,11.58911505,2.075062066,crawl
09/07/2020, 21:57:05,9.064013,-2.416751,6.8051877,1.4531223,-1.3273479,-0.039075557,11.58911505,1.968487637,crawl
09/07/2020, 21:57:05,8.63809,-2.292324,7.0348988,1.4531223,-1.3273479,-0.039075557,11.37370438,1.968487637,crawl
09/07/2020, 21:57:05,8.63809,-2.292324,7.0348988,1.4042778,-1.2089001,0.09036223,11.37370438,1.855155226,crawl
09/07/2020, 21:57:05,8.257631,-2.103291,7.233503,1.4042778,-1.2089001,0.09036223,11.17747161,1.855155226,crawl
09/07/2020, 21:57:05,8.257631,-2.103291,7.233503,1.3310112,-1.0941156,0.21613668,11.17747161,1.736489215,crawl
09/07/2020, 21:57:05,7.9537425,-1.8975084,7.331609,1.3310112,-1.0941156,0.21613668,10.98248811,1.736489215,crawl
09/07/2020, 21:57:05,7.9537425,-1.8975084,7.331609,1.2333223,-0.96956223,0.3370267,10.98248811,1.60459394,crawl
09/07/2020, 21:57:05,7.7814593,-1.6845472,7.405786,1.2333223,-0.96956223,0.3370267,10.87356774,1.60459394,crawl
09/07/2020, 21:57:05,7.7814593,-1.6845472,7.405786,1.130749,-0.8486723,0.44204223,10.87356774,1.481296469,crawl
09/07/2020, 21:57:05,7.7551384,-1.4596218,7.391429,1.130749,-0.8486723,0.44204223,10.81230268,1.481296469,crawl
09/07/2020, 21:57:05,7.7551384,-1.4596218,7.391429,1.0330601,-0.71801335,0.5287411,10.81230268,1.364669724,crawl
09/07/2020, 21:57:05,7.893922,-1.2514462,7.348358,1.0330601,-0.71801335,0.5287411,10.85718598,1.364669724,crawl
09/07/2020, 21:57:05,7.893922,-1.2514462,7.348358,0.93415004,-0.5800278,0.59834445,10.85718598,1.251832514,crawl
09/07/2020, 21:57:05,8.13799,-1.0456635,7.2909307,0.93415004,-0.5800278,0.59834445,10.97624546,1.251832514,crawl
09/07/2020, 21:57:06,8.980264,-2.8163524,5.4460645,-1.0074167,-1.1173167,-0.78761667,10.87366521,1.698124005,crawl
09/07/2020, 21:57:06,8.980264,-2.8163524,5.4460645,-0.8169234,-1.1112112,-0.7167922,10.87366521,1.554331107,crawl
09/07/2020, 21:57:06,8.7984085,-2.6895328,5.4412785,-0.8169234,-1.1112112,-0.7167922,10.68892371,1.554331107,crawl
09/07/2020, 21:57:06,8.7984085,-2.6895328,5.4412785,-0.6337567,-1.1063267,-0.63986224,10.68892371,1.426544777,crawl
09/07/2020, 21:57:06,8.652447,-2.5316064,5.4819565,-0.6337567,-1.1063267,-0.63986224,10.55110007,1.426544777,crawl
09/07/2020, 21:57:06,8.652447,-2.5316064,5.4819565,-0.4591378,-1.1136534,-0.55316335,10.55110007,1.325526745,crawl
09/07/2020, 21:57:06,8.580662,-2.3545375,5.56092,-0.4591378,-1.1136534,-0.55316335,10.49263703,1.325526745,crawl
09/07/2020, 21:57:06,8.580662,-2.3545375,5.56092,-0.2942878,-1.1173167,-0.46646446,10.49263703,1.246030121,crawl
09/07/2020, 21:57:06,8.60459,-2.1918256,5.721239,-0.2942878,-1.1173167,-0.46646446,10.56293768,1.246030121,crawl
09/07/2020, 21:57:06,8.60459,-2.1918256,5.721239,-0.15019667,-1.0953367,-0.38831335,10.56293768,1.171797224,crawl
09/07/2020, 21:57:06,8.681161,-2.0003998,5.907879,-0.15019667,-1.0953367,-0.38831335,10.68958312,1.171797224,crawl
09/07/2020, 21:57:06,8.681161,-2.0003998,5.907879,-0.04396,-1.053819,-0.31871,10.68958312,1.101836152,crawl
09/07/2020, 21:57:06,8.779266,-1.8281165,6.0370917,-0.04396,-1.053819,-0.31871,10.8103656,1.101836152,crawl
09/07/2020, 21:57:06,8.779266,-1.8281165,6.0370917,0.03174889,-1.0037534,-0.2515489,10.8103656,1.035280527,crawl
09/07/2020, 21:57:06,8.855837,-1.6031911,6.1806607,0.03174889,-1.0037534,-0.2515489,10.91772117,1.035280527,crawl
09/07/2020, 21:57:06,8.855837,-1.6031911,6.1806607,0.068382226,-0.94514006,-0.1965989,10.91772117,0.967789749,crawl
09/07/2020, 21:57:06,8.961121,-1.4141582,6.2668023,0.068382226,-0.94514006,-0.1965989,11.02607533,0.967789749,crawl
09/07/2020, 21:57:06,8.961121,-1.4141582,6.2668023,0.06105556,-0.8633256,-0.15508112,11.02607533,0.879266183,crawl
09/07/2020, 21:57:06,9.037691,-1.2442678,6.2787666,0.06105556,-0.8633256,-0.15508112,11.07479,0.879266183,crawl
09/07/2020, 21:57:06,9.037691,-1.2442678,6.2787666,0.025643334,-0.77052116,-0.11112112,11.07479,0.778914853,crawl
09/07/2020, 21:57:07,10.762917,-1.6965113,3.6179478,-1.2467545,-1.7950335,-1.5630223,11.48076957,2.686927712,crawl
09/07/2020, 21:57:07,10.762917,-1.6965113,3.6179478,-1.3639811,-1.7779379,-1.5996556,11.48076957,2.753253672,crawl
09/07/2020, 21:57:07,10.695917,-1.9094725,3.7471602,-1.3639811,-1.7779379,-1.5996556,11.49303867,2.753253672,crawl
09/07/2020, 21:57:07,10.695917,-1.9094725,3.7471602,-1.4641123,-1.7657267,-1.6191934,11.49303867,2.807704201,crawl
09/07/2020, 21:57:07,10.633704,-2.1966112,3.888337,-1.4641123,-1.7657267,-1.6191934,11.5334266,2.807704201,crawl
09/07/2020, 21:57:07,10.633704,-2.1966112,3.888337,-1.5227256,-1.7620634,-1.6350678,11.5334266,2.84552409,crawl
09/07/2020, 21:57:07,10.5690975,-2.4454648,4.139583,-1.5227256,-1.7620634,-1.6350678,11.6112992,2.84552409,crawl
09/07/2020, 21:57:07,10.5690975,-2.4454648,4.139583,-1.5410423,-1.7596211,-1.6460578,11.6112992,2.860172102,crawl
09/07/2020, 21:57:07,10.552348,-2.6368906,4.402794,-1.5410423,-1.7596211,-1.6460578,11.73413131,2.860172102,crawl
09/07/2020, 21:57:07,10.552348,-2.6368906,4.402794,-1.5422634,-1.74741,-1.6594901,11.73413131,2.861105677,crawl
09/07/2020, 21:57:07,10.540383,-2.7397819,4.694718,-1.5422634,-1.74741,-1.6594901,11.85944609,2.861105677,crawl
09/07/2020, 21:57:07,10.540383,-2.7397819,4.694718,-1.5398211,-1.7278723,-1.680249,11.85944609,2.860039914,crawl
09/07/2020, 21:57:07,10.554741,-2.7326035,4.9340005,-1.5398211,-1.7278723,-1.680249,11.9672068,2.860039914,crawl
09/07/2020, 21:57:07,10.554741,-2.7326035,4.9340005,-1.5483689,-1.6826912,-1.6985656,11.9672068,2.8485121,crawl
09/07/2020, 21:57:07,10.57149,-2.7230322,5.099105,-1.5483689,-1.6826912,-1.6985656,12.04874193,2.8485121,crawl
09/07/2020, 21:57:07,10.57149,-2.7230322,5.099105,-1.5434844,-1.6167512,-1.7119979,12.04874193,2.815522219,crawl
09/07/2020, 21:57:07,10.51167,-2.7732813,5.2402816,-1.5434844,-1.6167512,-1.7119979,12.06842363,2.815522219,crawl
09/07/2020, 21:57:07,10.51167,-2.7732813,5.2402816,-1.50563,-1.5447056,-1.7181034,12.06842363,2.757701316,crawl
09/07/2020, 21:57:07,10.454242,-2.8091738,5.410172,-1.50563,-1.5447056,-1.7181034,12.10175975,2.757701316,crawl
09/07/2020, 21:57:07,10.454242,-2.8091738,5.410172,-1.4335845,-1.4860923,-1.7217667,12.10175975,2.688515463,crawl
09/07/2020, 21:57:08,8.279166,-1.4691931,3.2446675,0.81326,-1.2430911,-0.23323223,9.012823591,1.503683687,crawl
09/07/2020, 21:57:08,8.874979,-1.3974084,3.2135608,0.81326,-1.2430911,-0.23323223,9.541749099,1.503683687,crawl
09/07/2020, 21:57:08,8.874979,-1.3974084,3.2135608,0.8645467,-1.3481067,-0.33336335,9.541749099,1.635837381,crawl
09/07/2020, 21:57:08,9.466006,-1.2729816,3.2446675,0.8645467,-1.3481067,-0.33336335,10.08730016,1.635837381,crawl
09/07/2020, 21:57:08,9.466006,-1.2729816,3.2446675,0.88042116,-1.4091623,-0.43349445,10.08730016,1.717206219,crawl
09/07/2020, 21:57:08,9.944571,-1.1772687,3.345166,0.88042116,-1.4091623,-0.43349445,10.55796289,1.717206219,crawl
09/07/2020, 21:57:08,9.944571,-1.1772687,3.345166,0.8437878,-1.4519012,-0.5262989,10.55796289,1.759825398,crawl
09/07/2020, 21:57:08,10.210175,-1.0911272,3.3810585,0.8437878,-1.4519012,-0.5262989,10.8106327,1.759825398,crawl
09/07/2020, 21:57:08,10.210175,-1.0911272,3.3810585,0.7558678,-1.5215045,-0.61544,10.8106327,1.806952826,crawl
09/07/2020, 21:57:08,10.327422,-1.0217353,3.37388,0.7558678,-1.5215045,-0.61544,10.91250002,1.806952826,crawl
09/07/2020, 21:57:08,10.327422,-1.0217353,3.37388,0.6227667,-1.5788968,-0.70336,10.91250002,1.837244848,crawl
09/07/2020, 21:57:08,10.382458,-1.0145568,3.2925239,0.6227667,-1.5788968,-0.70336,10.93917124,1.837244848,crawl
09/07/2020, 21:57:08,10.382458,-1.0145568,3.2925239,0.47257003,-1.6277412,-0.7851745,10.93917124,1.867983641,crawl
09/07/2020, 21:57:08,10.4351,-1.0456635,3.211168,0.47257003,-1.6277412,-0.7851745,10.96796773,1.867983641,crawl
09/07/2020, 21:57:08,10.4351,-1.0456635,3.211168,0.33214223,-1.6729223,-0.85722005,10.96796773,1.908877563,crawl
09/07/2020, 21:57:08,10.447063,-1.2059826,3.2997024,0.33214223,-1.6729223,-0.85722005,11.02195829,1.908877563,crawl
09/07/2020, 21:57:08,10.447063,-1.2059826,3.2997024,0.21980001,-1.6717012,-0.8987378,11.02195829,1.910661282,crawl
09/07/2020, 21:57:08,10.191031,-1.3615161,3.5509489,0.21980001,-1.6717012,-0.8987378,10.87750367,1.910661282,crawl
09/07/2020, 21:57:08,10.191031,-1.3615161,3.5509489,0.13188,-1.6558267,-0.91217005,10.87750367,1.895048432,crawl
09/07/2020, 21:57:08,9.757931,-1.4931214,3.8165522,0.13188,-1.6558267,-0.91217005,10.58360499,1.895048432,crawl
09/07/2020, 21:57:09,8.008778,-3.3643086,3.4241292,1.35177,1.0904523,1.2369856,9.337224019,2.132252749,crawl
09/07/2020, 21:57:09,8.008778,-3.3643086,3.4241292,1.3065889,1.07702,1.23088,9.337224019,2.093373435,crawl
09/07/2020, 21:57:09,7.881958,-3.0723844,3.5509489,1.3065889,1.07702,1.23088,9.174641436,2.093373435,crawl
09/07/2020, 21:57:09,7.881958,-3.0723844,3.5509489,1.1844778,1.0855678,1.2027946,9.174641436,2.007027634,crawl
09/07/2020, 21:57:09,7.8723865,-2.7326035,3.6921253,1.1844778,1.0855678,1.2027946,9.114459943,2.007027634,crawl
09/07/2020, 21:57:09,7.8723865,-2.7326035,3.6921253,0.99886894,1.10999,1.1600556,9.114459943,1.890911433,crawl
09/07/2020, 21:57:09,7.948957,-2.4454648,3.7734814,0.99886894,1.10999,1.1600556,9.132654424,1.890911433,crawl
09/07/2020, 21:57:09,7.948957,-2.4454648,3.7734814,0.76930004,1.1563922,1.0990001,9.132654424,1.77112019,crawl
09/07/2020, 21:57:09,8.001599,-2.2564318,3.8117664,0.76930004,1.1563922,1.0990001,9.145853655,1.77112019,crawl
09/07/2020, 21:57:09,8.001599,-2.2564318,3.8117664,0.53973114,1.2089001,1.0355023,9.145853655,1.680777853,crawl
09/07/2020, 21:57:09,7.989635,-2.2372892,3.7040894,0.53973114,1.2089001,1.0355023,9.086253822,1.680777853,crawl
09/07/2020, 21:57:09,7.989635,-2.2372892,3.7040894,0.34191114,1.2333223,0.96712005,9.086253822,1.604153429,crawl
09/07/2020, 21:57:09,7.908279,-2.3138595,3.507878,0.34191114,1.2333223,0.96712005,8.955446944,1.604153429,crawl
09/07/2020, 21:57:09,7.908279,-2.3138595,3.507878,0.18683001,1.2455333,0.9072856,8.955446944,1.552232547,crawl
09/07/2020, 21:57:09,7.850851,-2.4502504,3.3260236,0.18683001,1.2455333,0.9072856,8.871416018,1.552232547,crawl
09/07/2020, 21:57:09,7.850851,-2.4502504,3.3260236,0.081814446,1.2455333,0.8584412,8.871416018,1.514915236,crawl
09/07/2020, 21:57:09,7.798209,-2.5531418,3.2063823,0.081814446,1.2455333,0.8584412,8.809738196,1.514915236,crawl
09/07/2020, 21:57:09,7.798209,-2.5531418,3.2063823,0.009768889,1.2491968,0.8095967,8.809738196,1.488635228,crawl
09/07/2020, 21:57:09,7.685746,-2.5962126,3.1680973,0.009768889,1.2491968,0.8095967,8.709067388,1.488635228,crawl
09/07/2020, 21:57:09,7.685746,-2.5962126,3.1680973,-0.037854444,1.2382067,0.7570889,8.709067388,1.451816966,crawl
09/07/2020, 21:57:10,10.346565,-2.2875385,4.7832522,1.2833878,1.6863545,1.21989,11.62599445,2.445200884,crawl
09/07/2020, 21:57:10,10.279566,-2.062613,4.2448673,1.2833878,1.6863545,1.21989,11.31117785,2.445200884,crawl
09/07/2020, 21:57:10,10.279566,-2.062613,4.2448673,1.2174479,1.7266512,1.3456645,11.31117785,2.504858603,crawl
09/07/2020, 21:57:10,10.289138,-1.9669002,3.8548372,1.2174479,1.7266512,1.3456645,11.16220514,2.504858603,crawl
09/07/2020, 21:57:10,10.289138,-1.9669002,3.8548372,1.2259957,1.7290934,1.4543434,11.16220514,2.570592206,crawl
09/07/2020, 21:57:10,10.432707,-1.9501505,3.505485,1.2259957,1.7290934,1.4543434,11.17733798,2.570592206,crawl
09/07/2020, 21:57:10,10.432707,-1.9501505,3.505485,1.2882723,1.7010078,1.5324945,11.17733798,2.627092049,crawl
09/07/2020, 21:57:10,10.66481,-2.012364,3.3882368,1.2882723,1.7010078,1.5324945,11.36960567,2.627092049,crawl
09/07/2020, 21:57:10,10.66481,-2.012364,3.3882368,1.3859612,1.6729223,1.5886656,11.36960567,2.691359442,crawl
09/07/2020, 21:57:10,10.908878,-2.1367905,3.4648073,1.3859612,1.6729223,1.5886656,11.64364159,2.691359442,crawl
09/07/2020, 21:57:10,10.908878,-2.1367905,3.4648073,1.5141778,1.6521634,1.625299,11.64364159,2.768388525,crawl
09/07/2020, 21:57:10,11.272588,-2.3234308,3.6681972,1.5141778,1.6521634,1.625299,12.07995183,2.768388525,crawl
09/07/2020, 21:57:10,11.272588,-2.3234308,3.6681972,1.6570479,1.6460578,1.6350678,12.07995183,2.851098181,crawl
09/07/2020, 21:57:10,11.66501,-2.5818555,3.991228,1.6570479,1.6460578,1.6350678,12.59636252,2.851098181,crawl
09/07/2020, 21:57:10,11.66501,-2.5818555,3.991228,1.7925912,1.6680379,1.6277412,12.59636252,2.940284874,crawl
09/07/2020, 21:57:10,12.069397,-2.902494,4.338187,1.7925912,1.6680379,1.6277412,13.14970276,2.940284874,crawl
09/07/2020, 21:57:10,12.069397,-2.902494,4.338187,1.8878379,1.7119979,1.6008767,13.14970276,3.009597108,crawl
09/07/2020, 21:57:10,12.428321,-3.1441689,4.6636114,1.8878379,1.7119979,1.6008767,13.64178248,3.009597108,crawl
09/07/2020, 21:57:10,12.428321,-3.1441689,4.6636114,1.9366823,1.7852645,1.56058,13.64178248,3.061587462,crawl
09/07/2020, 21:57:10,12.634104,-3.3212378,4.941179,1.9366823,1.7852645,1.56058,13.96661901,3.061587462,crawl
09/07/2020, 21:57:11,9.332008,-4.3764725,5.477171,0.11966889,-0.004884445,0.74121445,11.67215888,0.750828455,crawl
09/07/2020, 21:57:11,9.332008,-4.3764725,5.477171,0.4371578,-0.013432222,0.8205867,11.67215888,0.929865515,crawl
09/07/2020, 21:57:11,10.363315,-4.584648,5.8193445,0.4371578,-0.013432222,0.8205867,12.73899758,0.929865515,crawl
09/07/2020, 21:57:11,10.363315,-4.584648,5.8193445,0.7631945,0.02075889,0.88042116,12.73899758,1.165348961,crawl
09/07/2020, 21:57:11,11.468799,-4.761717,6.2404814,0.7631945,0.02075889,0.88042116,13.89787384,1.165348961,crawl
09/07/2020, 21:57:11,11.468799,-4.761717,6.2404814,1.0477134,0.11356334,0.9292656,13.89787384,1.405038998,crawl
09/07/2020, 21:57:11,12.452249,-4.7688956,6.7740808,1.0477134,0.11356334,0.9292656,14.95623716,1.405038998,crawl
09/07/2020, 21:57:11,12.452249,-4.7688956,6.7740808,1.24187,0.28574002,0.98055226,14.95623716,1.607908982,crawl
09/07/2020, 21:57:11,13.079168,-4.658826,7.173682,1.24187,0.28574002,0.98055226,15.62789234,1.607908982,crawl
09/07/2020, 21:57:11,13.079168,-4.658826,7.173682,1.29682,0.5043189,1.0477134,15.62789234,1.741775858,crawl
09/07/2020, 21:57:11,13.215559,-4.4051867,7.2693954,1.29682,0.5043189,1.0477134,15.71307666,1.741775858,crawl
09/07/2020, 21:57:11,13.215559,-4.4051867,7.2693954,1.2211112,0.7485411,1.1392968,15.71307666,1.830143012,crawl
09/07/2020, 21:57:11,12.861422,-3.9673,7.1162543,1.2211112,0.7485411,1.1392968,15.22487142,1.830143012,crawl
09/07/2020, 21:57:11,12.861422,-3.9673,7.1162543,1.0562612,0.97811,1.23088,15.22487142,1.894057157,crawl
09/07/2020, 21:57:11,12.12204,-3.455236,6.541977,1.0562612,0.97811,1.23088,14.2014072,1.894057157,crawl
09/07/2020, 21:57:11,12.12204,-3.455236,6.541977,0.8315767,1.1502867,1.339559,14.2014072,1.951690922,crawl
09/07/2020, 21:57:11,11.2343025,-3.0317063,5.8265233,0.8315767,1.1502867,1.339559,13.01342269,1.951690922,crawl
09/07/2020, 21:57:11,11.2343025,-3.0317063,5.8265233,0.6007867,1.2699556,1.4934189,13.01342269,2.05037364,crawl
09/07/2020, 21:57:11,10.459028,-2.7684958,5.072784,0.6007867,1.2699556,1.4934189,11.9494342,2.05037364,crawl
09/07/2020, 21:57:11,10.459028,-2.7684958,5.072784,0.40663,1.3383378,1.6741434,11.9494342,2.181571042,crawl
09/07/2020, 21:57:12,9.370294,-3.2949169,6.168697,1.9684312,-1.4396901,-0.97078335,11.6923779,2.624852275,crawl
09/07/2020, 21:57:12,9.367901,-3.010171,6.128019,1.9684312,-1.4396901,-0.97078335,11.59186398,2.624852275,crawl
09/07/2020, 21:57:12,9.367901,-3.010171,6.128019,1.8157923,-1.3163579,-0.85722005,11.59186398,2.400984375,crawl
09/07/2020, 21:57:12,9.296116,-2.7397819,6.068198,1.8157923,-1.3163579,-0.85722005,11.43447438,2.400984375,crawl
09/07/2020, 21:57:12,9.296116,-2.7397819,6.068198,1.6375101,-1.1808145,-0.74121445,11.43447438,2.150618739,crawl
09/07/2020, 21:57:12,9.183653,-2.5148566,6.0370917,1.6375101,-1.1808145,-0.74121445,11.27432749,2.150618739,crawl
09/07/2020, 21:57:12,9.183653,-2.5148566,6.0370917,1.4543434,-1.053819,-0.6203245,11.27432749,1.900118858,crawl
09/07/2020, 21:57:12,9.0233345,-2.3162522,6.053841,1.4543434,-1.053819,-0.6203245,11.11011171,1.900118858,crawl
09/07/2020, 21:57:12,9.0233345,-2.3162522,6.053841,1.2809457,-0.93415004,-0.50554,11.11011171,1.664039898,crawl
09/07/2020, 21:57:12,8.846265,-2.158326,6.06102,1.2809457,-0.93415004,-0.50554,10.93849782,1.664039898,crawl
09/07/2020, 21:57:12,8.846265,-2.158326,6.06102,1.1136534,-0.80593336,-0.38709223,10.93849782,1.42814317,crawl
09/07/2020, 21:57:12,8.695518,-2.0219352,6.113662,1.1136534,-0.80593336,-0.38709223,10.82021754,1.42814317,crawl
09/07/2020, 21:57:12,8.695518,-2.0219352,6.113662,0.95857227,-0.68260115,-0.27108666,10.82021754,1.207598074,crawl
09/07/2020, 21:57:12,8.547162,-1.8999012,6.151947,0.95857227,-0.68260115,-0.27108666,10.70093714,1.207598074,crawl
09/07/2020, 21:57:12,8.547162,-1.8999012,6.151947,0.8083756,-0.54950005,-0.15630223,10.70093714,0.989874636,crawl
09/07/2020, 21:57:12,8.4347,-1.8113668,6.2931237,0.8083756,-0.54950005,-0.15630223,10.67841843,0.989874636,crawl
09/07/2020, 21:57:12,8.4347,-1.8113668,6.2931237,0.6667267,-0.41029334,-0.04151778,10.67841843,0.783957177,crawl
09/07/2020, 21:57:12,8.350951,-1.7874385,6.381658,0.6667267,-0.41029334,-0.04151778,10.66109198,0.783957177,crawl
09/07/2020, 21:57:12,8.350951,-1.7874385,6.381658,0.54950005,-0.2613178,0.070824444,10.66109198,0.612579294,crawl
09/07/2020, 21:57:12,8.279166,-1.8185452,6.4965134,0.54950005,-0.2613178,0.070824444,10.67971844,0.612579294,crawl
09/07/2020, 21:57:13,16.68276,-4.759324,5.946164,0.7815111,-0.94391894,-4.4863625,18.3390982,4.650719376,crawl
09/07/2020, 21:57:13,14.52204,-4.54397,5.797809,0.7815111,-0.94391894,-4.4863625,16.28348585,4.650719376,crawl
09/07/2020, 21:57:13,14.52204,-4.54397,5.797809,0.5678167,-0.98055226,-4.269005,16.28348585,4.416820199,crawl
09/07/2020, 21:57:13,12.358929,-4.304688,5.680561,0.5678167,-0.98055226,-4.269005,14.26682273,4.416820199,crawl
09/07/2020, 21:57:13,12.358929,-4.304688,5.680561,0.42128336,-0.9597934,-3.9331992,14.26682273,4.070471559,crawl
09/07/2020, 21:57:13,10.310673,-4.0869412,5.3982077,0.42128336,-0.9597934,-3.9331992,12.33506009,4.070471559,crawl
09/07/2020, 21:57:13,10.310673,-4.0869412,5.3982077,0.32237336,-0.98055226,-3.5119157,12.33506009,3.660458862,crawl
09/07/2020, 21:57:13,8.602198,-3.7280176,4.9770713,0.32237336,-0.98055226,-3.5119157,10.61447869,3.660458862,crawl
09/07/2020, 21:57:13,8.602198,-3.7280176,4.9770713,0.22590557,-1.1124322,-3.1138334,10.61447869,3.314286866,crawl
09/07/2020, 21:57:13,7.420143,-3.2015967,4.503292,0.22590557,-1.1124322,-3.1138334,9.251399099,3.314286866,crawl
09/07/2020, 21:57:13,7.420143,-3.2015967,4.503292,0.13920668,-1.2614079,-2.7743645,9.251399099,3.050840292,crawl
09/07/2020, 21:57:13,6.8745794,-2.7445676,4.2017965,0.13920668,-1.2614079,-2.7743645,8.511614883,3.050840292,crawl
09/07/2020, 21:57:13,6.8745794,-2.7445676,4.2017965,0.05617111,-1.339559,-2.4348958,8.511614883,2.779620609,crawl
09/07/2020, 21:57:13,6.8721867,-2.4191437,4.0271206,0.05617111,-1.339559,-2.4348958,8.324476312,2.779620609,crawl
09/07/2020, 21:57:13,6.8721867,-2.4191437,4.0271206,-0.012211111,-1.3700867,-2.0722256,8.324476312,2.484231352,crawl
09/07/2020, 21:57:13,7.34118,-2.1942184,3.940979,-0.012211111,-1.3700867,-2.0722256,8.61619588,2.484231352,crawl
09/07/2020, 21:57:13,7.34118,-2.1942184,3.940979,-0.07204556,-1.3920667,-1.7339778,8.61619588,2.224796463,crawl
09/07/2020, 21:57:13,8.10449,-1.9214365,3.8644085,-0.07204556,-1.3920667,-1.7339778,9.181956987,2.224796463,crawl
09/07/2020, 21:57:13,8.10449,-1.9214365,3.8644085,-0.16607112,-1.3969512,-1.4433534,9.181956987,2.015520118,crawl
09/07/2020, 21:57:13,9.030513,-1.564906,3.7567315,-0.16607112,-1.3969512,-1.4433534,9.905156437,2.015520118,crawl
09/07/2020, 21:57:14,8.463413,-1.3854443,2.1367905,-1.174709,0.54339445,-0.36999667,8.838251705,1.346148656,crawl
09/07/2020, 21:57:14,8.463413,-1.3854443,2.1367905,-1.2382067,0.5287411,-0.5287411,8.838251705,1.446475125,crawl
09/07/2020, 21:57:14,8.437093,-1.5218352,2.1415763,-1.2382067,0.5287411,-0.5287411,8.836677317,1.446475125,crawl
09/07/2020, 21:57:14,8.437093,-1.5218352,2.1415763,-1.27484,0.51775116,-0.68504333,8.836677317,1.537064621,crawl
09/07/2020, 21:57:14,8.451449,-1.6845472,2.1559331,-1.27484,0.51775116,-0.68504333,8.883284516,1.537064621,crawl
09/07/2020, 21:57:14,8.451449,-1.6845472,2.1559331,-1.2821667,0.5006556,-0.8425667,8.883284516,1.613854457,crawl
09/07/2020, 21:57:14,8.496913,-1.8640088,2.1774685,-1.2821667,0.5006556,-0.8425667,8.967353443,1.613854457,crawl
09/07/2020, 21:57:14,8.496913,-1.8640088,2.1774685,-1.2650712,0.48356003,-0.9964267,8.967353443,1.681398672,crawl
09/07/2020, 21:57:14,8.559127,-2.0458634,2.2205393,-1.2650712,0.48356003,-0.9964267,9.076067675,1.681398672,crawl
09/07/2020, 21:57:14,8.559127,-2.0458634,2.2205393,-1.2247745,0.46646446,-1.1454023,9.076067675,1.740576938,crawl
09/07/2020, 21:57:14,8.671589,-2.1870399,2.2660031,-1.2247745,0.46646446,-1.1454023,9.225744822,1.740576938,crawl
09/07/2020, 21:57:14,8.671589,-2.1870399,2.2660031,-1.1795933,0.45181113,-1.2992623,9.225744822,1.812086146,crawl
09/07/2020, 21:57:14,8.812766,-2.3449662,2.306681,-1.1795933,0.45181113,-1.2992623,9.40661943,1.812086146,crawl
09/07/2020, 21:57:14,8.812766,-2.3449662,2.306681,-1.1258645,0.44448447,-1.4445745,9.40661943,1.884657196,crawl
09/07/2020, 21:57:14,8.925228,-2.416751,2.2827528,-1.1258645,0.44448447,-1.4445745,9.52425021,1.884657196,crawl
09/07/2020, 21:57:14,8.925228,-2.416751,2.2827528,-1.0672512,0.44326335,-1.5935501,9.52425021,1.968478959,crawl
09/07/2020, 21:57:14,9.008977,-2.4741786,2.2612174,-1.0672512,0.44326335,-1.5935501,9.612300915,1.968478959,crawl
09/07/2020, 21:57:14,9.008977,-2.4741786,2.2612174,-1.0086378,0.44082114,-1.7315357,9.612300915,2.051801464,crawl
09/07/2020, 21:57:14,9.08794,-2.524428,2.254039,-1.0086378,0.44082114,-1.7315357,9.697632989,2.051801464,crawl
09/07/2020, 21:57:14,9.08794,-2.524428,2.254039,-0.95857227,0.43349445,-1.8634156,9.697632989,2.139882222,crawl
09/07/2020, 21:57:15,11.08834,-2.6679974,2.2205393,-0.8584412,0.68626446,2.1051955,11.61896228,2.374811222,crawl
09/07/2020, 21:57:15,10.892129,-2.7637103,2.2875385,-0.8584412,0.68626446,2.1051955,11.46775479,2.374811222,crawl
09/07/2020, 21:57:15,10.892129,-2.7637103,2.2875385,-0.82791334,0.6569578,2.0380344,11.46775479,2.295782751,crawl
09/07/2020, 21:57:15,10.703095,-2.8713872,2.3569303,-0.82791334,0.6569578,2.0380344,11.32944115,2.295782751,crawl
09/07/2020, 21:57:15,10.703095,-2.8713872,2.3569303,-0.7680789,0.6239878,1.9757578,11.32944115,2.209734154,crawl
09/07/2020, 21:57:15,10.437492,-2.9383862,2.3784657,-0.7680789,0.6239878,1.9757578,11.10101163,2.209734154,crawl
09/07/2020, 21:57:15,10.437492,-2.9383862,2.3784657,-0.6789378,0.58124894,1.9049335,11.10101163,2.104181151,crawl
09/07/2020, 21:57:15,10.157532,-2.9718857,2.3545375,-0.6789378,0.58124894,1.9049335,10.84211245,2.104181151,crawl
09/07/2020, 21:57:15,10.157532,-2.9718857,2.3545375,-0.56659555,0.5287411,1.8292245,10.84211245,1.986620207,crawl
09/07/2020, 21:57:15,9.882358,-2.993421,2.3258235,-0.56659555,0.5287411,1.8292245,10.58447054,1.986620207,crawl
09/07/2020, 21:57:15,9.882358,-2.993421,2.3258235,-0.4359367,0.4823389,1.7571789,10.58447054,1.873597959,crawl
09/07/2020, 21:57:15,9.619147,-2.9575288,2.2612174,-0.4359367,0.4823389,1.7571789,10.31445954,1.873597959,crawl
09/07/2020, 21:57:15,9.619147,-2.9575288,2.2612174,-0.31382558,0.43349445,1.680249,10.31445954,1.763417293,crawl
09/07/2020, 21:57:15,9.396614,-2.8953154,2.2325034,-0.31382558,0.43349445,1.680249,10.08282098,1.763417293,crawl
09/07/2020, 21:57:15,9.396614,-2.8953154,2.2325034,-0.21369445,0.3834289,1.5947711,10.08282098,1.654079216,crawl
09/07/2020, 21:57:15,9.21476,-2.7828526,2.2061825,-0.21369445,0.3834289,1.5947711,9.875389039,1.654079216,crawl
09/07/2020, 21:57:15,9.21476,-2.7828526,2.2061825,-0.15386,0.34313223,1.4983034,9.875389039,1.544773687,crawl
09/07/2020, 21:57:15,9.080762,-2.656033,2.1774685,-0.15386,0.34313223,1.4983034,9.708558987,1.544773687,crawl
09/07/2020, 21:57:15,9.080762,-2.656033,2.1774685,-0.10379445,0.30894113,1.4030567,9.708558987,1.44041179,crawl
09/07/2020, 21:57:15,8.9826565,-2.5339992,2.1655045,-0.10379445,0.30894113,1.4030567,9.581162713,1.44041179,crawl
09/07/2020, 21:57:16,9.174082,-2.2468605,3.6131623,0.9842156,0.036633335,0.8401245,10.11271975,1.294539122,crawl
09/07/2020, 21:57:16,9.174082,-2.2468605,3.6131623,0.9634567,0.08303556,0.8584412,10.11271975,1.293083504,crawl
09/07/2020, 21:57:16,9.226724,-2.2779672,3.5006995,0.9634567,0.08303556,0.8584412,10.12800382,1.293083504,crawl
09/07/2020, 21:57:16,9.226724,-2.2779672,3.5006995,0.9500245,0.11478445,0.88042116,10.12800382,1.30033204,crawl
09/07/2020, 21:57:16,9.212367,-2.347359,3.4025939,0.9500245,0.11478445,0.88042116,10.09729893,1.30033204,crawl
09/07/2020, 21:57:16,9.212367,-2.347359,3.4025939,0.94391894,0.14653334,0.90240115,10.09729893,1.314071089,crawl
09/07/2020, 21:57:16,9.193225,-2.4215364,3.2973096,0.94391894,0.14653334,0.90240115,10.06237913,1.314071089,crawl
09/07/2020, 21:57:16,9.193225,-2.4215364,3.2973096,0.9512456,0.16973445,0.9292656,10.06237913,1.340601572,crawl
09/07/2020, 21:57:16,9.176475,-2.507678,3.1800613,0.9512456,0.16973445,0.9292656,10.03040003,1.340601572,crawl
09/07/2020, 21:57:16,9.176475,-2.507678,3.1800613,0.95613,0.16607112,0.9597934,10.03040003,1.364905709,crawl
09/07/2020, 21:57:16,9.205189,-2.57707,3.050849,0.95613,0.16607112,0.9597934,10.03416509,1.364905709,crawl
09/07/2020, 21:57:16,9.205189,-2.57707,3.050849,0.9634567,0.14653334,1.00009,10.03416509,1.396388495,crawl
09/07/2020, 21:57:16,9.312865,-2.7206392,2.928815,0.9634567,0.14653334,1.00009,10.13455938,1.396388495,crawl
09/07/2020, 21:57:16,9.312865,-2.7206392,2.928815,0.9610145,0.15019667,1.0489345,10.13455938,1.430514393,crawl
09/07/2020, 21:57:16,9.468399,-2.806781,2.8259234,0.9610145,0.15019667,1.0489345,10.27202238,1.430514393,crawl
09/07/2020, 21:57:16,9.468399,-2.806781,2.8259234,0.94391894,0.16851334,1.0867889,10.27202238,1.449306667,crawl
09/07/2020, 21:57:16,9.609575,-2.8761728,2.7278178,0.94391894,0.16851334,1.0867889,10.39506116,1.449306667,crawl
09/07/2020, 21:57:16,9.609575,-2.8761728,2.7278178,0.9170545,0.20148334,1.130749,10.39506116,1.469754305,crawl
09/07/2020, 21:57:16,9.664611,-2.8905299,2.6608188,0.9170545,0.20148334,1.130749,10.43263259,1.469754305,crawl
09/07/2020, 21:57:16,9.664611,-2.8905299,2.6608188,0.8914111,0.23567446,1.1698245,10.43263259,1.489511853,crawl
09/07/2020, 21:57:17,10.145568,-3.4360933,3.5437703,-0.40663,0,-0.5287411,11.28262351,0.667019593,crawl
09/07/2020, 21:57:17,10.145568,-3.4360933,3.5437703,-0.38709223,0.036633335,-0.46402225,11.28262351,0.605391646,crawl
09/07/2020, 21:57:17,10.143175,-3.6610186,3.7304106,-0.38709223,0.036633335,-0.46402225,11.41065388,0.605391646,crawl
09/07/2020, 21:57:17,10.143175,-3.6610186,3.7304106,-0.36755446,0.058613338,-0.40052447,11.41065388,0.546764712,crawl
09/07/2020, 21:57:17,10.076176,-3.7998023,3.9074793,-0.36755446,0.058613338,-0.40052447,11.45583731,0.546764712,crawl
09/07/2020, 21:57:17,10.076176,-3.7998023,3.9074793,-0.35656446,0.07937223,-0.34435335,11.45583731,0.502013341,crawl
09/07/2020, 21:57:17,10.023534,-3.842873,4.046263,-0.35656446,0.07937223,-0.34435335,11.47219028,0.502013341,crawl
09/07/2020, 21:57:17,10.023534,-3.842873,4.046263,-0.3809867,0.12455334,-0.28818223,11.47219028,0.493673363,crawl
09/07/2020, 21:57:17,9.911072,-3.8500516,4.1898327,-0.3809867,0.12455334,-0.28818223,11.42833931,0.493673363,crawl
09/07/2020, 21:57:17,9.911072,-3.8500516,4.1898327,-0.44326335,0.19171445,-0.23079,11.42833931,0.535257747,crawl
09/07/2020, 21:57:17,9.755538,-3.871587,4.2927237,-0.44326335,0.19171445,-0.23079,11.33962892,0.535257747,crawl
09/07/2020, 21:57:17,9.755538,-3.871587,4.2927237,-0.5092034,0.25765446,-0.16118668,11.33962892,0.593005095,crawl
09/07/2020, 21:57:17,9.473185,-3.888337,4.290331,-0.5092034,0.25765446,-0.16118668,11.10258209,0.593005095,crawl
09/07/2020, 21:57:17,9.473185,-3.888337,4.290331,-0.56171113,0.30405667,-0.07937223,11.10258209,0.643637948,crawl
09/07/2020, 21:57:17,9.111869,-3.9314077,4.3118663,-0.56171113,0.30405667,-0.07937223,10.82008833,0.643637948,crawl
09/07/2020, 21:57:17,9.111869,-3.9314077,4.3118663,-0.5800278,0.3284789,0.009768889,10.82008833,0.666652902,crawl
09/07/2020, 21:57:17,8.705089,-3.9314077,4.2329035,-0.5800278,0.3284789,0.009768889,10.44758374,0.666652902,crawl
09/07/2020, 21:57:17,8.705089,-3.9314077,4.2329035,-0.5739222,0.3284789,0.11966889,10.44758374,0.672016179,crawl
09/07/2020, 21:57:17,8.322237,-3.9242291,4.1754756,-0.5739222,0.3284789,0.11966889,10.10414765,0.672016179,crawl
09/07/2020, 21:57:17,8.322237,-3.9242291,4.1754756,-0.53851,0.30894113,0.23933779,10.10414765,0.665372258,crawl
09/07/2020, 21:57:18,9.236296,-3.4025939,1.3686945,0.12089001,-0.59834445,-0.56293225,9.937813036,0.830375331,crawl
09/07/2020, 21:57:18,9.123833,-3.3619158,1.402194,0.12089001,-0.59834445,-0.56293225,9.824100432,0.830375331,crawl
09/07/2020, 21:57:18,9.123833,-3.3619158,1.402194,0.25887558,-0.6252089,-0.4908867,9.824100432,0.83598594,crawl
09/07/2020, 21:57:18,9.032906,-3.3116665,1.524228,0.25887558,-0.6252089,-0.4908867,9.740831025,0.83598594,crawl
09/07/2020, 21:57:18,9.032906,-3.3116665,1.524228,0.34069002,-0.64108336,-0.41395667,9.740831025,0.835713879,crawl
09/07/2020, 21:57:18,9.042477,-3.2039895,1.605584,0.34069002,-0.64108336,-0.41395667,9.7267586,0.835713879,crawl
09/07/2020, 21:57:18,9.042477,-3.2039895,1.605584,0.36267,-0.64963114,-0.34191114,9.7267586,0.818812176,crawl
09/07/2020, 21:57:18,9.284152,-2.9862428,1.579263,0.36267,-0.64963114,-0.34191114,9.879635436,0.818812176,crawl
09/07/2020, 21:57:18,9.284152,-2.9862428,1.579263,0.30649891,-0.6227667,-0.30161446,9.879635436,0.756803276,crawl
09/07/2020, 21:57:18,9.674182,-2.751746,1.5768701,0.30649891,-0.6227667,-0.30161446,10.18078686,0.756803276,crawl
09/07/2020, 21:57:18,9.674182,-2.751746,1.5768701,0.18194556,-0.5226356,-0.28818223,10.18078686,0.623940008,crawl
09/07/2020, 21:57:18,10.109675,-2.4646072,1.5146568,0.18194556,-0.5226356,-0.28818223,10.51541777,0.623940008,crawl
09/07/2020, 21:57:18,10.109675,-2.4646072,1.5146568,-0.004884445,-0.3724389,-0.30405667,10.51541777,0.480817074,crawl
09/07/2020, 21:57:18,10.377672,-2.2157538,1.5050855,-0.004884445,-0.3724389,-0.30405667,10.71778556,0.480817074,crawl
09/07/2020, 21:57:18,10.377672,-2.2157538,1.5050855,-0.23323223,-0.20636779,-0.33458444,10.71778556,0.45709046,crawl
09/07/2020, 21:57:18,10.537991,-2.0721843,1.5266209,-0.23323223,-0.20636779,-0.33458444,10.84775389,0.45709046,crawl
09/07/2020, 21:57:18,10.537991,-2.0721843,1.5266209,-0.48356003,-0.058613338,-0.3724389,10.84775389,0.613169277,crawl
09/07/2020, 21:57:18,10.549955,-2.0554347,1.579263,-0.48356003,-0.058613338,-0.3724389,10.86372135,0.613169277,crawl
09/07/2020, 21:57:18,10.549955,-2.0554347,1.579263,-0.7216767,0.07937223,-0.40174556,10.86372135,0.829769072,crawl
09/07/2020, 21:57:18,10.425529,-2.1391835,1.6175481,-0.7216767,0.07937223,-0.40174556,10.764953,0.829769072,crawl
09/07/2020, 21:57:19,6.2548385,-5.386244,2.2205393,-0.1965989,0.57636446,0.28574002,8.547831401,0.672677095,crawl
09/07/2020, 21:57:19,6.2380886,-5.3910294,2.2181466,-0.1965989,0.57636446,0.28574002,8.537981096,0.672677095,crawl
09/07/2020, 21:57:19,6.2380886,-5.3910294,2.2181466,-0.1856089,0.52752,0.2845189,8.537981096,0.627438456,crawl
09/07/2020, 21:57:19,6.2117677,-5.3742795,2.1966112,-0.1856089,0.52752,0.2845189,8.502590098,0.627438456,crawl
09/07/2020, 21:57:19,6.2117677,-5.3742795,2.1966112,-0.17584,0.47867557,0.29062447,8.502590098,0.586951953,crawl
09/07/2020, 21:57:19,6.2141604,-5.3886366,2.1966112,-0.17584,0.47867557,0.29062447,8.513418521,0.586951953,crawl
09/07/2020, 21:57:19,6.2141604,-5.3886366,2.1966112,-0.16851334,0.43349445,0.29795113,8.513418521,0.552348677,crawl
09/07/2020, 21:57:19,6.1639113,-5.4149575,2.2325034,-0.16851334,0.43349445,0.29795113,8.50291947,0.552348677,crawl
09/07/2020, 21:57:19,6.1639113,-5.4149575,2.2325034,-0.14287001,0.3834289,0.3162678,8.50291947,0.517160397,crawl
09/07/2020, 21:57:19,6.1447687,-5.4412785,2.2995026,-0.14287001,0.3834289,0.3162678,8.523696737,0.517160397,crawl
09/07/2020, 21:57:19,6.1447687,-5.4412785,2.2995026,-0.098910004,0.3394689,0.3309211,8.523696737,0.484284115,crawl
09/07/2020, 21:57:19,6.113662,-5.4987063,2.4430718,-0.098910004,0.3394689,0.3309211,8.577950317,0.484284115,crawl
09/07/2020, 21:57:19,6.113662,-5.4987063,2.4430718,-0.03297,0.30405667,0.34801668,8.577950317,0.463306692,crawl
09/07/2020, 21:57:19,6.1495543,-5.6303115,2.617748,-0.03297,0.30405667,0.34801668,8.738994775,0.463306692,crawl
09/07/2020, 21:57:19,6.1495543,-5.6303115,2.617748,0.054950003,0.25399113,0.37732336,8.738994775,0.458152718,crawl
09/07/2020, 21:57:19,6.235696,-5.855237,2.7828526,0.054950003,0.25399113,0.37732336,8.995108219,0.458152718,crawl
09/07/2020, 21:57:19,6.235696,-5.855237,2.7828526,0.15874445,0.19049335,0.40785113,8.995108219,0.477315473,crawl
09/07/2020, 21:57:19,6.4797635,-6.0897336,2.9479575,0.15874445,0.19049335,0.40785113,9.368171858,0.477315473,crawl
09/07/2020, 21:57:19,6.4797635,-6.0897336,2.9479575,0.25643334,0.1306589,0.43960002,9.368171858,0.525431234,crawl
09/07/2020, 21:57:19,6.867401,-6.283552,3.1345978,0.25643334,0.1306589,0.43960002,9.821910674,0.525431234,crawl
09/07/2020, 21:57:20,9.21476,-4.7018967,2.9910283,-0.24055889,0.070824444,-0.6972545,10.76874558,0.740978064,crawl
09/07/2020, 21:57:20,9.21476,-4.7018967,2.9910283,-0.16851334,0.11844778,-0.6386411,10.76874558,0.671035843,crawl
09/07/2020, 21:57:20,9.157332,-4.7114677,3.0580273,-0.16851334,0.11844778,-0.6386411,10.74272759,0.671035843,crawl
09/07/2020, 21:57:20,9.157332,-4.7114677,3.0580273,-0.10745778,0.17095557,-0.56659555,10.74272759,0.601501042,crawl
09/07/2020, 21:57:20,9.064013,-4.7042894,3.101098,-0.10745778,0.17095557,-0.56659555,10.67255693,0.601501042,crawl
09/07/2020, 21:57:20,9.064013,-4.7042894,3.101098,-0.05250778,0.2075889,-0.49699223,10.67255693,0.54115755,crawl
09/07/2020, 21:57:20,8.956335,-4.7042894,3.1202407,-0.05250778,0.2075889,-0.49699223,10.58688712,0.54115755,crawl
09/07/2020, 21:57:20,8.956335,-4.7042894,3.1202407,-0.001221111,0.24788557,-0.42006224,10.58688712,0.487750998,crawl
09/07/2020, 21:57:20,8.882157,-4.6875396,3.1130621,-0.001221111,0.24788557,-0.42006224,10.51460422,0.487750998,crawl
09/07/2020, 21:57:20,8.882157,-4.6875396,3.1130621,0.048844445,0.2820767,-0.33580557,10.51460422,0.441269095,crawl
09/07/2020, 21:57:20,8.913264,-4.6875396,3.1633115,0.048844445,0.2820767,-0.33580557,10.5558442,0.441269095,crawl
09/07/2020, 21:57:20,8.913264,-4.6875396,3.1633115,0.081814446,0.31260446,-0.24544334,10.5558442,0.405780218,crawl
09/07/2020, 21:57:20,9.01137,-4.6037908,3.199204,0.081814446,0.31260446,-0.24544334,10.61294395,0.405780218,crawl
09/07/2020, 21:57:20,9.01137,-4.6037908,3.199204,0.091583334,0.35168,-0.1526389,10.61294395,0.394163633,crawl
09/07/2020, 21:57:20,9.190832,-4.5559344,3.2470603,0.091583334,0.35168,-0.1526389,10.75970885,0.394163633,crawl
09/07/2020, 21:57:20,9.190832,-4.5559344,3.2470603,0.06349778,0.41762,-0.07204556,10.75970885,0.428519542,crawl
09/07/2020, 21:57:20,9.4229355,-4.395615,3.2614172,0.06349778,0.41762,-0.07204556,10.89724677,0.428519542,crawl
09/07/2020, 21:57:20,9.4229355,-4.395615,3.2614172,0.001221111,0.5030978,0.007326667,10.89724677,0.503152601,crawl
09/07/2020, 21:57:20,9.580862,-4.28076,3.306881,0.001221111,0.5030978,0.007326667,11.00242172,0.503152601,crawl
09/07/2020, 21:57:20,9.580862,-4.28076,3.306881,-0.08303556,0.5971234,0.09768889,11.00242172,0.610732642,crawl
09/07/2020, 21:57:21,7.645068,-1.7252251,3.802195,1.1466234,-0.49821335,0.3174889,8.710921667,1.289868563,crawl
09/07/2020, 21:57:21,7.678568,-1.6103697,3.5030923,1.1466234,-0.49821335,0.3174889,8.592167997,1.289868563,crawl
09/07/2020, 21:57:21,7.678568,-1.6103697,3.5030923,1.0965579,-0.46402225,0.33336335,8.592167997,1.236481663,crawl
09/07/2020, 21:57:21,7.786245,-1.4931214,3.3403804,1.0965579,-0.46402225,0.33336335,8.603090262,1.236481663,crawl
09/07/2020, 21:57:21,7.786245,-1.4931214,3.3403804,1.0355023,-0.42250445,0.33336335,8.603090262,1.167007362,crawl
09/07/2020, 21:57:21,7.9968133,-1.457229,3.2733815,1.0355023,-0.42250445,0.33336335,8.762851453,1.167007362,crawl
09/07/2020, 21:57:21,7.9968133,-1.457229,3.2733815,0.97688895,-0.37610224,0.31993112,8.762851453,1.094587066,crawl
09/07/2020, 21:57:21,8.281559,-1.5122639,3.318845,0.97688895,-0.37610224,0.31993112,9.049082481,1.094587066,crawl
09/07/2020, 21:57:21,8.281559,-1.5122639,3.318845,0.92316,-0.31871,0.29184556,9.049082481,1.019300893,crawl
09/07/2020, 21:57:21,8.705089,-1.6582261,3.4097722,0.92316,-0.31871,0.29184556,9.49498962,1.019300893,crawl
09/07/2020, 21:57:21,8.705089,-1.6582261,3.4097722,0.8816423,-0.25521225,0.24544334,9.49498962,0.950088859,crawl
09/07/2020, 21:57:21,9.178867,-1.8113668,3.5605202,0.8816423,-0.25521225,0.24544334,10.01049246,0.950088859,crawl
09/07/2020, 21:57:21,9.178867,-1.8113668,3.5605202,0.8401245,-0.18194556,0.18683001,10.01049246,0.879669709,crawl
09/07/2020, 21:57:21,9.724431,-1.9860427,3.6323047,0.8401245,-0.18194556,0.18683001,10.56894328,0.879669709,crawl
09/07/2020, 21:57:21,9.724431,-1.9860427,3.6323047,0.7851745,-0.10013112,0.12943779,10.56894328,0.802046981,crawl
09/07/2020, 21:57:21,10.205389,-2.1415763,3.67059,0.7851745,-0.10013112,0.12943779,11.05484258,0.802046981,crawl
09/07/2020, 21:57:21,10.205389,-2.1415763,3.67059,0.70458114,0.001221111,0.081814446,11.05484258,0.709316347,crawl
09/07/2020, 21:57:21,10.612168,-2.239682,3.6251264,0.70458114,0.001221111,0.081814446,11.43572616,0.709316347,crawl
09/07/2020, 21:57:21,10.612168,-2.239682,3.6251264,0.5922389,0.11600556,0.034191113,11.43572616,0.604461116,crawl
09/07/2020, 21:57:21,10.904093,-2.3282163,3.5437703,0.5922389,0.11600556,0.034191113,11.6994931,0.604461116,crawl
09/07/2020, 21:57:22,9.62154,-1.1389836,2.0147567,-0.2613178,0.106236674,-0.007326667,9.895987139,0.282182384,crawl
09/07/2020, 21:57:22,9.611969,-1.0887343,1.9597218,-0.2613178,0.106236674,-0.007326667,9.869944265,0.282182384,crawl
09/07/2020, 21:57:22,9.611969,-1.0887343,1.9597218,-0.2869611,0.11112112,0.004884445,9.869944265,0.307763608,crawl
09/07/2020, 21:57:22,9.6071825,-1.0624132,1.9501505,-0.2869611,0.11112112,0.004884445,9.860515423,0.307763608,crawl
09/07/2020, 21:57:22,9.6071825,-1.0624132,1.9501505,-0.30649891,0.11966889,0.009768889,9.860515423,0.329177247,crawl
09/07/2020, 21:57:22,9.609575,-1.0241281,1.9549361,-0.30649891,0.11966889,0.009768889,9.85974394,0.329177247,crawl
09/07/2020, 21:57:22,9.609575,-1.0241281,1.9549361,-0.32725778,0.11478445,0.015874445,9.85974394,0.347167285,crawl
09/07/2020, 21:57:22,9.597611,-1.0313065,1.9812572,-0.32725778,0.11478445,0.015874445,9.85409145,0.347167285,crawl
09/07/2020, 21:57:22,9.597611,-1.0313065,1.9812572,-0.34069002,0.106236674,0.018316668,9.85409145,0.357339361,crawl
09/07/2020, 21:57:22,9.65504,-1.0360922,2.009971,-0.34069002,0.106236674,0.018316668,9.916312989,0.357339361,crawl
09/07/2020, 21:57:22,9.65504,-1.0360922,2.009971,-0.35412225,0.10379445,0.017095556,9.916312989,0.36941591,crawl
09/07/2020, 21:57:22,9.667004,-1.0480564,2.0315065,-0.35412225,0.10379445,0.017095556,9.933599558,0.36941591,crawl
09/07/2020, 21:57:22,9.667004,-1.0480564,2.0315065,-0.35412225,0.10013112,0.014653334,9.933599558,0.368298153,crawl
09/07/2020, 21:57:22,9.693324,-1.0671989,2.0673988,-0.35412225,0.10013112,0.014653334,9.96862995,0.368298153,crawl
09/07/2020, 21:57:22,9.693324,-1.0671989,2.0673988,-0.3394689,0.09280445,0.013432222,9.96862995,0.352182086,crawl
09/07/2020, 21:57:22,9.676575,-1.0719845,2.1272194,-0.3394689,0.09280445,0.013432222,9.965455907,0.352182086,crawl
09/07/2020, 21:57:22,9.676575,-1.0719845,2.1272194,-0.31260446,0.09280445,0.01099,9.965455907,0.326274412,crawl
09/07/2020, 21:57:22,9.623933,-1.0959128,2.1559331,-0.31260446,0.09280445,0.01099,9.923162595,0.326274412,crawl
09/07/2020, 21:57:22,9.623933,-1.0959128,2.1559331,-0.28329778,0.081814446,0.008547778,9.923162595,0.294998811,crawl
09/07/2020, 21:57:22,9.58804,-1.1246266,2.199004,-0.28329778,0.081814446,0.008547778,9.901056568,0.294998811,crawl
09/07/2020, 21:57:23,9.726824,-2.7421749,3.7088752,-0.3370267,0.8584412,1.3041468,10.76505362,1.597281135,crawl
09/07/2020, 21:57:23,9.726824,-2.7421749,3.7088752,-0.44692668,0.90118,1.3627601,10.76505362,1.693807517,crawl
09/07/2020, 21:57:23,9.963714,-2.8091738,3.6610186,-0.44692668,0.90118,1.3627601,10.98044191,1.693807517,crawl
09/07/2020, 21:57:23,9.963714,-2.8091738,3.6610186,-0.54950005,0.9463611,1.4189311,10.98044191,1.791902682,crawl
09/07/2020, 21:57:23,10.241281,-2.8594232,3.5892339,-0.54950005,0.9463611,1.4189311,11.22242077,1.791902682,crawl
09/07/2020, 21:57:23,10.241281,-2.8594232,3.5892339,-0.6435256,1.0013112,1.4738811,11.22242077,1.89448538,crawl
09/07/2020, 21:57:23,10.516456,-2.8929226,3.546163,-0.6435256,1.0013112,1.4738811,11.46909384,1.89448538,crawl
09/07/2020, 21:57:23,10.516456,-2.8929226,3.546163,-0.7302245,1.0623667,1.5276101,11.46909384,1.998860518,crawl
09/07/2020, 21:57:23,10.748559,-2.9168508,3.4719856,-0.7302245,1.0623667,1.5276101,11.66594287,1.998860518,crawl
09/07/2020, 21:57:23,10.748559,-2.9168508,3.4719856,-0.81448114,1.12098,1.5776756,11.66594287,2.099770459,crawl
09/07/2020, 21:57:23,10.8969145,-2.87378,3.3882368,-0.81448114,1.12098,1.5776756,11.7678165,2.099770459,crawl
09/07/2020, 21:57:23,10.8969145,-2.87378,3.3882368,-0.89385337,1.1454023,1.6338468,11.7678165,2.186406991,crawl
09/07/2020, 21:57:23,11.021341,-2.861816,3.2733815,-0.89385337,1.1454023,1.6338468,11.84799482,2.186406991,crawl
09/07/2020, 21:57:23,11.021341,-2.861816,3.2733815,-0.96712005,1.1637189,1.6887968,11.84799482,2.267509086,crawl
09/07/2020, 21:57:23,11.129018,-2.8953154,3.1537402,-0.96712005,1.1637189,1.6887968,11.92409184,2.267509086,crawl
09/07/2020, 21:57:23,11.129018,-2.8953154,3.1537402,-1.0355023,1.174709,1.7449678,11.92409184,2.344593542,crawl
09/07/2020, 21:57:23,11.239088,-2.8713872,3.0149565,-1.0355023,1.174709,1.7449678,11.98548821,2.344593542,crawl
09/07/2020, 21:57:23,11.239088,-2.8713872,3.0149565,-1.1002212,1.1722667,1.8072445,11.98548821,2.418848628,crawl
09/07/2020, 21:57:23,11.330015,-2.8713872,2.9479575,-1.1002212,1.1722667,1.8072445,12.0542342,2.418848628,crawl
09/07/2020, 21:57:23,11.330015,-2.8713872,2.9479575,-1.1490656,1.1527289,1.8683001,12.0542342,2.477837954,crawl
09/07/2020, 21:57:24,9.367901,-4.0031924,1.8999012,0.17584,-0.36755446,-0.9048434,10.36304686,0.992349508,crawl
09/07/2020, 21:57:24,9.219545,-4.024728,1.9262222,0.17584,-0.36755446,-0.9048434,10.24249885,0.992349508,crawl
09/07/2020, 21:57:24,9.219545,-4.024728,1.9262222,0.2613178,-0.35656446,-0.8437878,10.24249885,0.95257705,crawl
09/07/2020, 21:57:24,9.052048,-4.0534415,1.9501505,0.2613178,-0.35656446,-0.8437878,10.10806822,0.95257705,crawl
09/07/2020, 21:57:24,9.052048,-4.0534415,1.9501505,0.33580557,-0.34191114,-0.7778478,10.10806822,0.913627848,crawl
09/07/2020, 21:57:24,8.896515,-4.0390844,1.9884356,0.33580557,-0.34191114,-0.7778478,9.970760078,0.913627848,crawl
09/07/2020, 21:57:24,8.896515,-4.0390844,1.9884356,0.39686114,-0.32237336,-0.70580226,9.970760078,0.871538971,crawl
09/07/2020, 21:57:24,8.817552,-4.034299,1.9621146,0.39686114,-0.32237336,-0.70580226,9.893163176,0.871538971,crawl
09/07/2020, 21:57:24,8.817552,-4.034299,1.9621146,0.45303226,-0.30894113,-0.62643003,9.893163176,0.832524733,crawl
09/07/2020, 21:57:24,8.776874,-4.034299,1.9645073,0.45303226,-0.30894113,-0.62643003,9.857401619,0.832524733,crawl
09/07/2020, 21:57:24,8.776874,-4.034299,1.9645073,0.5092034,-0.29306668,-0.54339445,9.857401619,0.8002835,crawl
09/07/2020, 21:57:24,8.815159,-4.0271206,1.942972,0.5092034,-0.29306668,-0.54339445,9.884324239,0.8002835,crawl
09/07/2020, 21:57:24,8.815159,-4.0271206,1.942972,0.56293225,-0.26620224,-0.45425335,9.884324239,0.770780421,crawl
09/07/2020, 21:57:24,8.8701935,-3.9984066,1.9453648,0.56293225,-0.26620224,-0.45425335,9.922299757,0.770780421,crawl
09/07/2020, 21:57:24,8.8701935,-3.9984066,1.9453648,0.60933447,-0.22468445,-0.36389112,9.922299757,0.744438276,crawl
09/07/2020, 21:57:24,8.863015,-3.9649072,2.0027926,0.60933447,-0.22468445,-0.36389112,9.913864284,0.744438276,crawl
09/07/2020, 21:57:24,8.863015,-3.9649072,2.0027926,0.6447467,-0.18683001,-0.26742333,9.913864284,0.722578042,crawl
09/07/2020, 21:57:24,8.843872,-3.926622,2.0195422,0.6447467,-0.18683001,-0.26742333,9.884886626,0.722578042,crawl
09/07/2020, 21:57:24,8.843872,-3.926622,2.0195422,0.66062117,-0.14897557,-0.16362889,9.884886626,0.696698255,crawl
09/07/2020, 21:57:24,8.815159,-3.8620157,2.0793629,0.66062117,-0.14897557,-0.16362889,9.846112981,0.696698255,crawl
09/07/2020, 21:57:25,9.822537,-3.5318062,3.2207394,2.122291,-0.38220778,-1.0086378,10.92378408,2.380662184,crawl
09/07/2020, 21:57:25,9.712467,-3.3643086,3.1872396,2.122291,-0.38220778,-1.0086378,10.76146309,2.380662184,crawl
09/07/2020, 21:57:25,9.712467,-3.3643086,3.1872396,2.0136123,-0.31016225,-0.9170545,10.76146309,2.234238999,crawl
09/07/2020, 21:57:25,9.542577,-3.266203,3.1226335,2.0136123,-0.31016225,-0.9170545,10.55839444,2.234238999,crawl
09/07/2020, 21:57:25,9.542577,-3.266203,3.1226335,1.8915012,-0.25765446,-0.8169234,10.55839444,2.076421531,crawl
09/07/2020, 21:57:25,9.35833,-3.1657043,3.0269206,1.8915012,-0.25765446,-0.8169234,10.33258281,2.076421531,crawl
09/07/2020, 21:57:25,9.35833,-3.1657043,3.0269206,1.7584001,-0.20881,-0.71557117,10.33258281,1.909872917,crawl
09/07/2020, 21:57:25,9.233903,-3.07717,2.885744,1.7584001,-0.20881,-0.71557117,10.15191888,1.909872917,crawl
09/07/2020, 21:57:25,9.233903,-3.07717,2.885744,1.6216357,-0.16607112,-0.61299783,10.15191888,1.741564877,crawl
09/07/2020, 21:57:25,9.171689,-2.9742785,2.7900312,1.6216357,-0.16607112,-0.61299783,10.03745416,1.741564877,crawl
09/07/2020, 21:57:25,9.171689,-2.9742785,2.7900312,1.4946401,-0.10501556,-0.5128667,10.03745416,1.58366965,crawl
09/07/2020, 21:57:25,9.159725,-2.900101,2.6823542,1.4946401,-0.10501556,-0.5128667,9.9752782,1.58366965,crawl
09/07/2020, 21:57:25,9.159725,-2.900101,2.6823542,1.3786345,-0.037854444,-0.41273558,9.9752782,1.439589029,crawl
09/07/2020, 21:57:25,9.128618,-2.8785655,2.6081767,1.3786345,-0.037854444,-0.41273558,9.920705436,1.439589029,crawl
09/07/2020, 21:57:25,9.128618,-2.8785655,2.6081767,1.3126945,0.026864445,-0.31993112,9.920705436,1.351386177,crawl
09/07/2020, 21:57:25,9.104691,-2.9503503,2.6105695,1.3126945,0.026864445,-0.31993112,9.920434962,1.351386177,crawl
09/07/2020, 21:57:25,9.104691,-2.9503503,2.6105695,1.3126945,0.07448778,-0.22346334,9.920434962,1.333660855,crawl
09/07/2020, 21:57:25,9.078369,-3.1106694,2.6656044,1.3126945,0.07448778,-0.22346334,9.959844215,1.333660855,crawl
09/07/2020, 21:57:25,9.078369,-3.1106694,2.6656044,1.3542123,0.098910004,-0.117226675,9.959844215,1.362870571,crawl
09/07/2020, 21:57:25,9.037691,-3.2350962,2.7326035,1.3542123,0.098910004,-0.117226675,9.980622746,1.362870571,crawl
09/07/2020, 21:57:26,9.91825,1.3686945,3.3954153,1.4018356,0.12943779,0.09280445,10.57231548,1.410854261,crawl
09/07/2020, 21:57:26,9.779466,1.5266209,3.2638102,1.4018356,0.12943779,0.09280445,10.42213879,1.410854261,crawl
09/07/2020, 21:57:26,9.779466,1.5266209,3.2638102,1.0245123,0.2503278,0.091583334,10.42213879,1.058620303,crawl
09/07/2020, 21:57:26,9.54497,1.5146568,3.0532417,1.0245123,0.2503278,0.091583334,10.13523133,1.058620303,crawl
09/07/2020, 21:57:26,9.54497,1.5146568,3.0532417,0.66062117,0.3492378,0.09524667,10.13523133,0.753298941,crawl
09/07/2020, 21:57:26,9.253045,1.4476577,2.8929226,0.66062117,0.3492378,0.09524667,9.802222071,0.753298941,crawl
09/07/2020, 21:57:26,9.253045,1.4476577,2.8929226,0.33214223,0.4383789,0.11234222,9.802222071,0.561351315,crawl
09/07/2020, 21:57:26,8.939586,1.3519448,2.7182465,0.33214223,0.4383789,0.11234222,9.441017467,0.561351315,crawl
09/07/2020, 21:57:26,8.939586,1.3519448,2.7182465,0.05250778,0.49699223,0.12821667,9.441017467,0.515943658,crawl
09/07/2020, 21:57:26,8.690732,1.174876,2.6368906,0.05250778,0.49699223,0.12821667,9.157638811,0.515943658,crawl
09/07/2020, 21:57:26,8.690732,1.174876,2.6368906,-0.16362889,0.54461557,0.14531223,9.157638811,0.586937965,crawl
09/07/2020, 21:57:26,8.556734,0.8662018,2.5746772,-0.16362889,0.54461557,0.14531223,8.977581335,0.586937965,crawl
09/07/2020, 21:57:26,8.556734,0.8662018,2.5746772,-0.34069002,0.6007867,0.18316667,8.977581335,0.714537863,crawl
09/07/2020, 21:57:26,8.41795,0.5168497,2.5028925,-0.34069002,0.6007867,0.18316667,8.797356489,0.714537863,crawl
09/07/2020, 21:57:26,8.41795,0.5168497,2.5028925,-0.48844448,0.6691689,0.23811668,8.797356489,0.862011928,crawl
09/07/2020, 21:57:26,8.322237,0.22013968,2.4430718,-0.48844448,0.6691689,0.23811668,8.676214061,0.862011928,crawl
09/07/2020, 21:57:26,8.322237,0.22013968,2.4430718,-0.59590226,0.7131289,0.27963445,8.676214061,0.970488431,crawl
09/07/2020, 21:57:26,8.243274,-0.08135597,2.400001,-0.59590226,0.7131289,0.27963445,8.585929519,0.970488431,crawl
09/07/2020, 21:57:26,8.243274,-0.08135597,2.400001,-0.66306335,0.73755115,0.31871,8.585929519,1.0417345,crawl
09/07/2020, 21:57:26,8.16431,-0.40917268,2.3258235,-0.66306335,0.73755115,0.31871,8.498990685,1.0417345,crawl
09/07/2020, 21:57:27,9.06162,-2.0602202,3.778267,-1.4592278,-0.40663,-0.82547116,10.03158816,1.725136626,crawl
09/07/2020, 21:57:27,9.06162,-2.0602202,3.778267,-1.4775445,-0.3944189,-0.7815111,10.03158816,1.717400301,crawl
09/07/2020, 21:57:27,8.810373,-2.1631117,3.7710886,-1.4775445,-0.3944189,-0.7815111,9.824603768,1.717400301,crawl
09/07/2020, 21:57:27,8.810373,-2.1631117,3.7710886,-1.4519012,-0.40052447,-0.7485411,9.824603768,1.681889039,crawl
09/07/2020, 21:57:27,8.60459,-2.2420747,3.711268,-1.4519012,-0.40052447,-0.7485411,9.635319668,1.681889039,crawl
09/07/2020, 21:57:27,8.60459,-2.2420747,3.711268,-1.4006145,-0.4163989,-0.71923447,9.635319668,1.628621273,crawl
09/07/2020, 21:57:27,8.451449,-2.2660031,3.641876,-1.4006145,-0.4163989,-0.71923447,9.477606646,1.628621273,crawl
09/07/2020, 21:57:27,8.451449,-2.2660031,3.641876,-1.3383378,-0.4273889,-0.6935911,9.477606646,1.566805006,crawl
09/07/2020, 21:57:27,8.389236,-2.2660031,3.641876,-1.3383378,-0.4273889,-0.6935911,9.422171675,1.566805006,crawl
09/07/2020, 21:57:27,8.389236,-2.2660031,3.641876,-1.2614079,-0.42983112,-0.6838223,9.422171675,1.497837595,crawl
09/07/2020, 21:57:27,8.386844,-2.2875385,3.6394832,-1.2614079,-0.42983112,-0.6838223,9.424320533,1.497837595,crawl
09/07/2020, 21:57:27,8.386844,-2.2875385,3.6394832,-1.1551712,-0.4163989,-0.68626446,9.424320533,1.406686659,crawl
09/07/2020, 21:57:27,8.346166,-2.3401806,3.7160535,-1.1551712,-0.4163989,-0.68626446,9.431011615,1.406686659,crawl
09/07/2020, 21:57:27,8.346166,-2.3401806,3.7160535,-1.0135223,-0.40174556,-0.70336,9.431011615,1.29743678,crawl
09/07/2020, 21:57:27,8.207381,-2.4430718,3.842873,-1.0135223,-0.40174556,-0.70336,9.386020489,1.29743678,crawl
09/07/2020, 21:57:27,8.207381,-2.4430718,3.842873,-0.8450089,-0.39930335,-0.71435004,9.386020489,1.17634145,crawl
09/07/2020, 21:57:27,8.111669,-2.6009982,4.022335,-0.8450089,-0.39930335,-0.71435004,9.420378866,1.17634145,crawl
09/07/2020, 21:57:27,8.111669,-2.6009982,4.022335,-0.6691689,-0.4151778,-0.71801335,9.420378866,1.065693562,crawl
09/07/2020, 21:57:27,8.032705,-2.7613173,4.206582,-0.6691689,-0.4151778,-0.71801335,9.478637045,1.065693562,crawl
09/07/2020, 21:57:27,8.032705,-2.7613173,4.206582,-0.48966557,-0.43349445,-0.72778225,9.478637045,0.978446119,crawl
09/07/2020, 21:57:28,7.958528,-2.251646,3.455236,0.23445335,-0.35778558,-0.7558678,8.963633974,0.868513095,crawl
09/07/2020, 21:57:28,8.078169,-2.1894326,3.5413775,0.23445335,-0.35778558,-0.7558678,9.088002112,0.868513095,crawl
09/07/2020, 21:57:28,8.078169,-2.1894326,3.5413775,0.21003112,-0.40174556,-0.8315767,9.088002112,0.947117934,crawl
09/07/2020, 21:57:28,8.276773,-2.0793629,3.4983068,0.21003112,-0.40174556,-0.8315767,9.223170759,0.947117934,crawl
09/07/2020, 21:57:28,8.276773,-2.0793629,3.4983068,0.14531223,-0.47257003,-0.92438114,9.223170759,1.048293168,crawl
09/07/2020, 21:57:28,8.678768,-1.9525433,3.3499517,0.14531223,-0.47257003,-0.92438114,9.505557248,1.048293168,crawl
09/07/2020, 21:57:28,8.678768,-1.9525433,3.3499517,0.046402223,-0.5775856,-1.0403867,9.505557248,1.190866367,crawl
09/07/2020, 21:57:28,9.233903,-1.8520447,3.0364919,0.046402223,-0.5775856,-1.0403867,9.895216814,1.190866367,crawl
09/07/2020, 21:57:28,9.233903,-1.8520447,3.0364919,-0.09280445,-0.72900337,-1.1808145,9.895216814,1.390820432,crawl
09/07/2020, 21:57:28,10.114461,-1.8257236,2.6392834,-0.09280445,-0.72900337,-1.1808145,10.61138087,1.390820432,crawl
09/07/2020, 21:57:28,10.114461,-1.8257236,2.6392834,-0.2185789,-0.92071784,-1.35177,10.61138087,1.650084943,crawl
09/07/2020, 21:57:28,11.456835,-1.942972,2.4047868,-0.2185789,-0.92071784,-1.35177,11.86664245,1.650084943,crawl
09/07/2020, 21:57:28,11.456835,-1.942972,2.4047868,-0.2845189,-1.1051056,-1.5410423,11.86664245,1.917555979,crawl
09/07/2020, 21:57:28,13.131811,-2.2061825,2.469393,-0.2845189,-1.1051056,-1.5410423,13.5428803,1.917555979,crawl
09/07/2020, 21:57:28,13.131811,-2.2061825,2.469393,-0.28574002,-1.1624979,-1.7535156,13.5428803,2.123173483,crawl
09/07/2020, 21:57:28,14.715859,-2.5339992,3.0867412,-0.28574002,-1.1624979,-1.7535156,15.24813567,2.123173483,crawl
09/07/2020, 21:57:28,14.715859,-2.5339992,3.0867412,-0.27841336,-0.9817734,-1.95622,15.24813567,2.206397464,crawl
09/07/2020, 21:57:28,15.488741,-2.804388,3.9625144,-0.27841336,-0.9817734,-1.95622,16.23167299,2.206397464,crawl
09/07/2020, 21:57:28,15.488741,-2.804388,3.9625144,-0.33458444,-0.6996967,-2.1003113,16.23167299,2.238934952,crawl
09/07/2020, 21:57:28,14.94557,-2.8977082,4.910072,-0.33458444,-0.6996967,-2.1003113,15.99611142,2.238934952,crawl
09/07/2020, 21:57:29,9.408579,-2.6871397,2.321038,1.0171856,0.106236674,-0.19415668,10.05630617,1.040984883,crawl
09/07/2020, 21:57:29,9.090333,-2.3976083,1.8903298,1.0171856,0.106236674,-0.19415668,9.589370477,1.040984883,crawl
09/07/2020, 21:57:29,9.090333,-2.3976083,1.8903298,0.7973856,0.1526389,-0.2283478,9.589370477,0.843365342,crawl
