DATE,TIME,ax,ay,az,gx,gy,gz,ma,mg,label
23/10/2020, 15:55:12,-0.18920656,3.4631984,9.369317,-0.09079031,0.1744729,-0.011446816,9.990677881,0.197014472,crawl
23/10/2020, 15:55:12,-0.31135255,3.4967287,9.649534,-0.09079031,0.1744729,-0.011446816,10.26827943,0.197014472,crawl
23/10/2020, 15:55:12,-0.31135255,3.4967287,9.649534,-0.07857301,0.15981214,-0.015112006,10.26827943,0.178723278,crawl
23/10/2020, 15:55:12,-0.33769777,3.4703834,9.800421,-0.07857301,0.15981214,-0.015112006,10.40220399,0.178723278,crawl
23/10/2020, 15:55:12,-0.33769777,3.4703834,9.800421,-0.054138403,0.14026447,-0.03221623,10.40220399,0.153762715,crawl
23/10/2020, 15:55:12,-0.3784131,3.4440382,10.047108,-0.054138403,0.14026447,-0.03221623,10.62774521,0.153762715,crawl
23/10/2020, 15:55:12,-0.3784131,3.4440382,10.047108,-0.06879917,0.110942945,-0.038324878,10.62774521,0.136053147,crawl
23/10/2020, 15:55:12,0.82388675,3.4703834,10.825489,-0.06879917,0.110942945,-0.038324878,11.39796313,0.136053147,crawl
23/10/2020, 15:55:12,0.82388675,3.4703834,10.825489,0.035047885,0.15126003,-0.024885846,11.39796313,0.157249029,crawl
23/10/2020, 15:55:12,-1.3675562,2.8428884,11.5751295,0.035047885,0.15126003,-0.024885846,11.99732668,0.157249029,crawl
23/10/2020, 15:55:12,-1.3675562,2.8428884,11.5751295,0.039934807,-0.06376445,0.047196224,11.99732668,0.088815414,crawl
23/10/2020, 15:55:12,2.7542725,4.0523734,9.472302,0.039934807,-0.06376445,0.047196224,10.66453283,0.088815414,crawl
23/10/2020, 15:55:12,2.7542725,4.0523734,9.472302,0.19753799,0.03641741,0.06430045,10.66453283,0.210907639,crawl
23/10/2020, 15:55:12,0.6682105,3.915857,4.7972245,0.19753799,0.03641741,0.06430045,6.22846731,0.210907639,crawl
23/10/2020, 15:55:12,0.6682105,3.915857,4.7972245,-0.11644664,0.20623788,0.049639687,6.22846731,0.241987565,crawl
23/10/2020, 15:55:12,2.5985963,4.0356083,4.9361353,-0.11644664,0.20623788,0.049639687,6.885075803,0.241987565,crawl
23/10/2020, 15:55:12,2.5985963,4.0356083,4.9361353,-0.027260344,-0.031999473,0.055748336,6.885075803,0.069820982,crawl
23/10/2020, 15:55:12,3.7482057,4.150569,10.468631,-0.027260344,-0.031999473,0.055748336,11.86880361,0.069820982,crawl
23/10/2020, 15:55:12,3.7482057,4.150569,10.468631,0.1694382,-0.20059821,0.055748336,11.86880361,0.268434018,crawl
23/10/2020, 15:55:12,1.0657837,3.7003052,17.478853,0.1694382,-0.20059821,0.055748336,17.89800167,0.268434018,crawl
23/10/2020, 15:55:12,1.0657837,3.7003052,17.478853,-0.14698988,0.15492523,0.011766055,17.89800167,0.213883827,crawl
23/10/2020, 15:55:12,-4.773274,2.6129665,11.115286,-0.14698988,0.15492523,0.011766055,12.37583607,0.213883827,crawl
23/10/2020, 15:55:12,-4.773274,2.6129665,11.115286,0.24029854,0.23678114,0.047196224,12.37583607,0.340640834,crawl
23/10/2020, 15:55:12,-1.1951149,3.3434474,1.4274317,0.24029854,0.23678114,0.047196224,3.826813505,0.340640834,crawl
23/10/2020, 15:55:12,-1.1951149,3.3434474,1.4274317,0.13522975,-0.08331213,0.088735044,3.826813505,0.181939289,crawl
23/10/2020, 15:55:12,4.378096,4.4475513,12.022999,0.13522975,-0.08331213,0.088735044,13.54625181,0.181939289,crawl
23/10/2020, 15:55:12,4.378096,4.4475513,12.022999,-0.08590339,-0.09186424,0.083848126,13.54625181,0.151158659,crawl
23/10/2020, 15:55:12,-2.804568,2.8859987,15.764019,-0.08590339,-0.09186424,0.083848126,16.26956933,0.151158659,crawl
23/10/2020, 15:55:12,-2.804568,2.8859987,15.764019,0.24885064,0.13049063,0.069187365,16.26956933,0.289380958,crawl
23/10/2020, 15:55:12,-3.432063,2.7806177,2.1555176,0.24885064,0.13049063,0.069187365,4.914992171,0.289380958,crawl
23/10/2020, 15:55:13,2.1603076,-12.075689,12.427757,-1.6717091,-2.0576277,2.003186,17.46248414,3.322829659,crawl
23/10/2020, 15:55:13,7.3000197,-10.176438,3.046465,-1.6717091,-2.0576277,2.003186,12.8891867,3.322829659,crawl
23/10/2020, 15:55:13,7.3000197,-10.176438,3.046465,-0.87391925,-2.3264084,1.4436337,12.8891867,2.874019663,crawl
23/10/2020, 15:55:13,14.429994,-8.214917,9.901011,-0.87391925,-2.3264084,1.4436337,19.33234617,2.874019663,crawl
23/10/2020, 15:55:13,14.429994,-8.214917,9.901011,-0.65156436,-2.2812042,0.72281295,19.33234617,2.480098261,crawl
23/10/2020, 15:55:13,11.361973,-9.307046,16.084951,-0.65156436,-2.2812042,0.72281295,21.781671,2.480098261,crawl
23/10/2020, 15:55:13,11.361973,-9.307046,16.084951,0.0643694,-1.962333,0.13516077,21.781671,1.968035192,crawl
23/10/2020, 15:55:13,7.2185893,-10.92608,8.284373,0.0643694,-1.962333,0.13516077,15.49574429,1.968035192,crawl
23/10/2020, 15:55:13,7.2185893,-10.92608,8.284373,0.4626534,-1.6556786,-0.47570422,15.49574429,1.783708048,crawl
23/10/2020, 15:55:13,10.748848,-11.215877,9.716595,0.4626534,-1.6556786,-0.47570422,18.32336848,1.783708048,crawl
23/10/2020, 15:55:13,10.748848,-11.215877,9.716595,0.70944285,-1.5359491,-1.1574296,18.32336848,2.049900499,crawl
23/10/2020, 15:55:13,13.850399,-9.630374,8.135881,0.70944285,-1.5359491,-1.1574296,18.72886067,2.049900499,crawl
23/10/2020, 15:55:13,13.850399,-9.630374,8.135881,0.9049197,-1.2891597,-1.8831372,18.72886067,2.454998587,crawl
23/10/2020, 15:55:13,12.231365,-7.9873905,8.701106,0.9049197,-1.2891597,-1.8831372,17.00335111,2.454998587,crawl
23/10/2020, 15:55:13,12.231365,-7.9873905,8.701106,0.7998509,-1.0264877,-2.4817848,17.00335111,2.80226593,crawl
23/10/2020, 15:55:13,10.087823,-5.9468336,6.468948,0.7998509,-1.0264877,-2.4817848,13.37820197,2.80226593,crawl
23/10/2020, 15:55:13,10.087823,-5.9468336,6.468948,0.2060901,-0.83101094,-2.8764038,13.37820197,3.001124985,crawl
23/10/2020, 15:55:13,8.725057,-3.537444,4.631968,0.2060901,-0.83101094,-2.8764038,10.49262847,3.001124985,crawl
23/10/2020, 15:55:13,8.725057,-3.537444,4.631968,-0.6454557,-0.65874696,-3.1989405,10.49262847,3.329231302,crawl
23/10/2020, 15:55:13,7.7359133,-1.1687696,4.998406,-0.6454557,-0.65874696,-3.1989405,9.284095997,3.329231302,crawl
23/10/2020, 15:55:13,7.7359133,-1.1687696,4.998406,-1.278312,-0.47426575,-3.3822,9.284095997,3.646681553,crawl
23/10/2020, 15:55:13,6.4138627,0.68737066,5.508545,-1.278312,-0.47426575,-3.3822,8.482580998,3.646681553,crawl
23/10/2020, 15:55:13,6.4138627,0.68737066,5.508545,-1.5715271,-0.29955837,-3.3760912,8.482580998,3.735963703,crawl
23/10/2020, 15:55:13,5.4582496,2.304009,5.7145166,-1.5715271,-0.29955837,-3.3760912,8.231442527,3.735963703,crawl
23/10/2020, 15:55:13,5.4582496,2.304009,5.7145166,-1.703474,-0.11996403,-3.2319272,8.231442527,3.655347909,crawl
23/10/2020, 15:55:13,4.8379397,3.7122805,5.7791824,-1.703474,-0.11996403,-3.2319272,8.401525881,3.655347909,crawl
23/10/2020, 15:55:13,4.8379397,3.7122805,5.7791824,-1.8024341,0.04741298,-3.0535545,8.401525881,3.546154526,crawl
23/10/2020, 15:55:13,4.145779,4.888235,5.4486694,-1.8024341,0.04741298,-3.0535545,8.412510061,3.546154526,crawl
23/10/2020, 15:55:13,4.145779,4.888235,5.4486694,-1.8586338,0.22945076,-2.8397517,8.412510061,3.401669726,crawl
23/10/2020, 15:55:13,3.391348,5.53489,5.592371,-1.8586338,0.22945076,-2.8397517,8.568013946,3.401669726,crawl
23/10/2020, 15:55:14,2.2201831,-1.5160475,9.917776,-0.30947998,-0.003899682,0.1400477,10.27569443,0.339715211,crawl
23/10/2020, 15:55:14,2.1100123,-1.6884888,9.924961,-0.30947998,-0.003899682,0.1400477,10.28630153,0.339715211,crawl
23/10/2020, 15:55:14,2.1100123,-1.6884888,9.924961,-0.28748885,-0.053990614,0.17792132,10.28630153,0.342375265,crawl
23/10/2020, 15:55:14,2.0237916,-1.8992506,10.106983,-0.28748885,-0.053990614,0.17792132,10.48112562,0.342375265,crawl
23/10/2020, 15:55:14,2.0237916,-1.8992506,10.106983,-0.23373272,-0.11019019,0.2219036,10.48112562,0.340608384,crawl
23/10/2020, 15:55:14,1.8633252,-1.8681153,9.929751,-0.23373272,-0.11019019,0.2219036,10.27432716,0.340608384,crawl
23/10/2020, 15:55:14,1.8633252,-1.8681153,9.929751,-0.21540676,-0.16394632,0.26099896,10.27432716,0.376030486,crawl
23/10/2020, 15:55:14,1.7459693,-1.5807129,9.577683,-0.21540676,-0.16394632,0.26099896,9.863015885,0.376030486,crawl
23/10/2020, 15:55:14,1.7459693,-1.5807129,9.577683,-0.28382364,-0.21037205,0.31475508,9.863015885,0.473162781,crawl
23/10/2020, 15:55:14,1.719624,-1.2549903,9.093889,-0.28382364,-0.21037205,0.31475508,9.339749945,0.473162781,crawl
23/10/2020, 15:55:14,1.719624,-1.2549903,9.093889,-0.42920953,-0.24458049,0.35751563,9.339749945,0.609801497,crawl
23/10/2020, 15:55:14,1.6597486,-1.1136842,8.677156,-0.42920953,-0.24458049,0.35751563,8.904386657,0.609801497,crawl
23/10/2020, 15:55:14,1.6597486,-1.1136842,8.677156,-0.6295732,-0.25924128,0.40760657,8.904386657,0.793543702,crawl
23/10/2020, 15:55:14,1.5088624,-1.3052857,8.229287,-0.6295732,-0.25924128,0.40760657,8.467679928,0.793543702,crawl
23/10/2020, 15:55:14,1.5088624,-1.3052857,8.229287,-0.78839815,-0.24824569,0.46747136,8.467679928,0.949593088,crawl
23/10/2020, 15:55:14,1.223855,-1.4897022,8.181387,-0.78839815,-0.24824569,0.46747136,8.405481914,0.949593088,crawl
23/10/2020, 15:55:14,1.223855,-1.4897022,8.181387,-0.829937,-0.2409153,0.550549,8.405481914,1.024665674,crawl
23/10/2020, 15:55:14,0.49337405,-1.8561403,8.432864,-0.829937,-0.2409153,0.550549,8.648807608,1.024665674,crawl
23/10/2020, 15:55:14,0.49337405,-1.8561403,8.432864,-0.77251565,-0.24580222,0.6605047,8.648807608,1.045689068,crawl
23/10/2020, 15:55:14,-0.15088624,-2.0046315,8.734636,-0.77251565,-0.24580222,0.6605047,8.962989769,1.045689068,crawl
23/10/2020, 15:55:14,-0.15088624,-2.0046315,8.734636,-0.6405688,-0.25924128,0.78756464,8.962989769,1.047755924,crawl
23/10/2020, 15:55:14,-0.85023195,-2.2704787,8.964559,-0.6405688,-0.25924128,0.78756464,9.286618272,1.047755924,crawl
23/10/2020, 15:55:14,-0.85023195,-2.2704787,8.964559,-0.44509202,-0.26412818,0.91951144,9.286618272,1.055164388,crawl
23/10/2020, 15:55:14,-1.219065,-2.0190015,8.756192,-0.44509202,-0.26412818,0.91951144,9.068262696,1.055164388,crawl
23/10/2020, 15:55:14,-1.219065,-2.0190015,8.756192,-0.24350655,-0.22991973,1.0245802,9.068262696,1.077925411,crawl
23/10/2020, 15:55:14,-1.4082716,-1.719624,8.157437,-0.24350655,-0.22991973,1.0245802,8.454828166,1.077925411,crawl
23/10/2020, 15:55:14,-1.4082716,-1.719624,8.157437,-0.10056415,-0.16028112,1.1320925,8.454828166,1.147796393,crawl
23/10/2020, 15:55:14,-1.4825171,-1.583108,7.5395217,-0.10056415,-0.16028112,1.1320925,7.845283626,1.147796393,crawl
23/10/2020, 15:55:14,-1.4825171,-1.583108,7.5395217,0.013056746,-0.060099263,1.288474,7.845283626,1.289940912,crawl
23/10/2020, 15:55:14,-1.2621753,-1.22625,7.2353544,0.013056746,-0.060099263,1.288474,7.446282923,1.289940912,crawl
23/10/2020, 15:55:15,-5.237908,-7.6449027,5.4510646,-0.2447283,-0.06865137,0.076517746,10.75147997,0.265442867,crawl
23/10/2020, 15:55:15,-5.6857767,-7.5970025,5.010381,-0.2447283,-0.06865137,0.076517746,10.73063017,0.265442867,crawl
23/10/2020, 15:55:15,-5.6857767,-7.5970025,5.010381,-0.13843778,-0.07476002,0.017874705,10.73063017,0.158346405,crawl
23/10/2020, 15:55:15,-5.863008,-7.209009,4.7253737,-0.13843778,-0.07476002,0.017874705,10.42467425,0.158346405,crawl
23/10/2020, 15:55:15,-5.863008,-7.209009,4.7253737,-0.056581866,-0.07476002,-0.013890276,10.42467425,0.094781369,crawl
23/10/2020, 15:55:15,-5.848638,-7.046148,4.617598,-0.056581866,-0.07476002,-0.013890276,10.25558278,0.094781369,crawl
23/10/2020, 15:55:15,-5.848638,-7.046148,4.617598,-0.013821316,-0.0698731,-0.039546605,10.25558278,0.081469093,crawl
23/10/2020, 15:55:15,-5.6666164,-6.8832865,4.536167,-0.013821316,-0.0698731,-0.039546605,10.00334879,0.081469093,crawl
23/10/2020, 15:55:15,-5.6666164,-6.8832865,4.536167,-0.007712665,-0.07476002,-0.054207366,10.00334879,0.092665982,crawl
23/10/2020, 15:55:15,-5.503755,-7.070098,4.4834766,-0.007712665,-0.07476002,-0.054207366,10.01894044,0.092665982,crawl
23/10/2020, 15:55:15,-5.503755,-7.070098,4.4834766,-0.008934394,-0.09308597,-0.07619851,10.01894044,0.120627666,crawl
23/10/2020, 15:55:15,-5.4271145,-7.3718705,4.7253737,-0.008934394,-0.09308597,-0.07619851,10.30180584,0.120627666,crawl
23/10/2020, 15:55:15,-5.4271145,-7.3718705,4.7253737,-0.016264774,-0.11141192,-0.10185484,10.30180584,0.151827426,crawl
23/10/2020, 15:55:15,-5.503755,-7.561077,4.7780643,-0.016264774,-0.11141192,-0.10185484,10.50195721,0.151827426,crawl
23/10/2020, 15:55:15,-5.503755,-7.561077,4.7780643,-0.004047475,-0.1309596,-0.10063311,10.50195721,0.165208417,crawl
23/10/2020, 15:55:15,-5.6929617,-7.4988065,4.991221,-0.004047475,-0.1309596,-0.10063311,10.65618121,0.165208417,crawl
23/10/2020, 15:55:15,-5.6929617,-7.4988065,4.991221,0.014278475,-0.18227226,-0.08963754,10.65618121,0.203622048,crawl
23/10/2020, 15:55:15,-5.702542,-7.3742657,5.0726514,0.014278475,-0.18227226,-0.08963754,10.61275504,0.203622048,crawl
23/10/2020, 15:55:15,-5.702542,-7.3742657,5.0726514,0.036269616,-0.260463,-0.083528884,10.61275504,0.275923057,crawl
23/10/2020, 15:55:15,-5.5061502,-7.3766603,5.0678616,0.036269616,-0.260463,-0.083528884,10.50790318,0.275923057,crawl
23/10/2020, 15:55:15,-5.5061502,-7.3766603,5.0678616,0.0558173,-0.34476238,-0.083528884,10.50790318,0.359101305,crawl
23/10/2020, 15:55:15,-5.345684,-7.589817,5.125342,0.0558173,-0.34476238,-0.083528884,10.6042817,0.359101305,crawl
23/10/2020, 15:55:15,-5.345684,-7.589817,5.125342,0.09857784,-0.42661828,-0.10307657,10.6042817,0.449828329,crawl
23/10/2020, 15:55:15,-5.3121533,-7.9538603,4.998406,0.09857784,-0.42661828,-0.10307657,10.79198445,0.449828329,crawl
23/10/2020, 15:55:15,-5.3121533,-7.9538603,4.998406,0.21097702,-0.50358725,-0.1531675,10.79198445,0.567072923,crawl
23/10/2020, 15:55:15,-5.4247193,-8.480764,4.993616,0.21097702,-0.50358725,-0.1531675,11.23775539,0.567072923,crawl
23/10/2020, 15:55:15,-5.4247193,-8.480764,4.993616,0.37224537,-0.5829997,-0.22402784,11.23775539,0.727078915,crawl
23/10/2020, 15:55:15,-5.47262,-8.847202,4.87147,0.37224537,-0.5829997,-0.22402784,11.48711356,0.727078915,crawl
23/10/2020, 15:55:15,-5.47262,-8.847202,4.87147,0.5274051,-0.6477514,-0.28389263,11.48711356,0.882231836,crawl
23/10/2020, 15:55:15,-5.398374,-8.952583,4.756509,0.5274051,-0.6477514,-0.28389263,11.48545023,0.882231836,crawl
23/10/2020, 15:55:16,-8.416099,-3.7218604,1.4154567,-0.62224287,0.06573893,0.86697704,9.310557341,1.069185192,crawl
23/10/2020, 15:55:16,-8.466394,-3.7577858,1.3483961,-0.62224287,0.06573893,0.86697704,9.360500018,1.069185192,crawl
23/10/2020, 15:55:16,-8.466394,-3.7577858,1.3483961,-0.7126509,0.07429104,0.6886045,9.360500018,0.993763845,crawl
23/10/2020, 15:55:16,-8.634046,-3.6500099,1.3196558,-0.7126509,0.07429104,0.6886045,9.466298477,0.993763845,crawl
23/10/2020, 15:55:16,-8.634046,-3.6500099,1.3196558,-0.75541145,0.08528661,0.5090102,9.466298477,0.914883401,crawl
23/10/2020, 15:55:16,-8.789722,-3.4967287,1.2549903,-0.75541145,0.08528661,0.5090102,9.542606179,0.914883401,crawl
23/10/2020, 15:55:16,-8.789722,-3.4967287,1.2549903,-0.77129394,0.09872565,0.3391897,9.542606179,0.848345891,crawl
23/10/2020, 15:55:16,-8.950189,-3.2069314,1.1711646,-0.77129394,0.09872565,0.3391897,9.579243808,0.848345891,crawl
23/10/2020, 15:55:16,-8.950189,-3.2069314,1.1711646,-0.7810678,0.117051594,0.18647344,9.579243808,0.811504967,crawl
23/10/2020, 15:55:16,-8.935819,-2.912344,1.1184741,-0.7810678,0.117051594,0.18647344,9.464754998,0.811504967,crawl
23/10/2020, 15:55:16,-8.935819,-2.912344,1.1184741,-0.80794585,0.13904274,0.045974497,9.464754998,0.821110851,crawl
23/10/2020, 15:55:16,-8.758587,-2.7327175,1.1112891,-0.80794585,0.13904274,0.045974497,9.242053493,0.821110851,crawl
23/10/2020, 15:55:16,-8.758587,-2.7327175,1.1112891,-0.8653671,0.1744729,-0.09330273,9.242053493,0.887697265,crawl
23/10/2020, 15:55:16,-8.49753,-2.6225464,1.1088941,-0.8653671,0.1744729,-0.09330273,8.961886619,0.887697265,crawl
23/10/2020, 15:55:16,-8.49753,-2.6225464,1.1088941,-0.93011886,0.2270073,-0.22891477,8.961886619,0.984406103,crawl
23/10/2020, 15:55:16,-8.408914,-2.6417067,1.1328443,-0.93011886,0.2270073,-0.22891477,8.886606705,0.984406103,crawl
23/10/2020, 15:55:16,-8.408914,-2.6417067,1.1328443,-0.983875,0.28809378,-0.3608616,8.886606705,1.086843635,crawl
23/10/2020, 15:55:16,-8.52627,-2.8285182,1.3867164,-0.983875,0.28809378,-0.3608616,9.089597122,1.086843635,crawl
23/10/2020, 15:55:16,-8.52627,-2.8285182,1.3867164,-1.0095314,0.3381847,-0.48792154,9.089597122,1.171148979,crawl
23/10/2020, 15:55:16,-8.818462,-3.0033545,1.81782,-1.0095314,0.3381847,-0.48792154,9.491569235,1.171148979,crawl
23/10/2020, 15:55:16,-8.818462,-3.0033545,1.81782,-1.033966,0.37361488,-0.59787726,9.491569235,1.251451507,crawl
23/10/2020, 15:55:16,-9.125025,-2.8836036,2.1195924,-1.033966,0.37361488,-0.59787726,9.801730416,1.251451507,crawl
23/10/2020, 15:55:16,-9.125025,-2.8836036,2.1195924,-1.07917,0.38461044,-0.6858418,9.801730416,1.33525729,crawl
23/10/2020, 15:55:16,-9.321417,-2.7183473,2.4141798,-1.07917,0.38461044,-0.6858418,10.005323,1.33525729,crawl
23/10/2020, 15:55:16,-9.321417,-2.7183473,2.4141798,-1.1585824,0.37483662,-0.74204135,10.005323,1.42598778,crawl
23/10/2020, 15:55:16,-9.481883,-2.5315359,2.7087672,-1.1585824,0.37483662,-0.74204135,10.18097243,1.42598778,crawl
23/10/2020, 15:55:16,-9.481883,-2.5315359,2.7087672,-1.2636511,0.3381847,-0.7676977,10.18097243,1.516754045,crawl
23/10/2020, 15:55:16,-9.527389,-2.3686745,3.0943654,-1.2636511,0.3381847,-0.7676977,10.29353433,1.516754045,crawl
23/10/2020, 15:55:16,-9.527389,-2.3686745,3.0943654,-1.3699417,0.2770982,-0.74937177,10.29353433,1.585900929,crawl
23/10/2020, 15:55:16,-9.398057,-2.3016138,3.6116896,-1.3699417,0.2770982,-0.74937177,10.32788472,1.585900929,crawl
23/10/2020, 15:55:17,-9.85311,-2.311194,2.3303542,-0.79206336,-0.07231656,1.2298309,10.38537197,1.464608477,crawl
23/10/2020, 15:55:17,-9.85311,-2.311194,2.3303542,-0.7627418,-0.11507711,1.2261657,10.38537197,1.448620036,crawl
23/10/2020, 15:55:17,-9.3381815,-2.1746778,2.311194,-0.7627418,-0.11507711,1.2261657,9.862680915,1.448620036,crawl
23/10/2020, 15:55:17,-9.3381815,-2.1746778,2.311194,-0.7468593,-0.17372015,1.1980659,9.862680915,1.422441341,crawl
23/10/2020, 15:55:17,-8.938213,-1.8944606,2.3495142,-0.7468593,-0.17372015,1.1980659,9.434026493,1.422441341,crawl
23/10/2020, 15:55:17,-8.938213,-1.8944606,2.3495142,-0.73952895,-0.2531326,1.1577488,9.434026493,1.396911421,crawl
23/10/2020, 15:55:17,-8.5502205,-1.7268091,2.3590944,-0.73952895,-0.2531326,1.1577488,9.036230771,1.396911421,crawl
23/10/2020, 15:55:17,-8.5502205,-1.7268091,2.3590944,-0.7651853,-0.31177565,1.121097,9.036230771,1.392684821,crawl
23/10/2020, 15:55:17,-8.064031,-1.5447876,1.81782,-0.7651853,-0.31177565,1.121097,8.409484439,1.392684821,crawl
23/10/2020, 15:55:17,-8.064031,-1.5447876,1.81782,-0.84093255,-0.34720582,1.0807798,8.409484439,1.41272941,crawl
23/10/2020, 15:55:17,-7.7359133,-1.223855,1.2502003,-0.84093255,-0.34720582,1.0807798,7.931278336,1.41272941,crawl
23/10/2020, 15:55:17,-7.7359133,-1.223855,1.2502003,-0.9533317,-0.3618666,1.025802,7.931278336,1.44639502,crawl
23/10/2020, 15:55:17,-7.680828,-0.8981324,0.7568262,-0.9533317,-0.3618666,1.025802,7.770106043,1.44639502,crawl
23/10/2020, 15:55:17,-7.680828,-0.8981324,0.7568262,-1.0987177,-0.34964928,0.9842631,7.770106043,1.515984523,crawl
23/10/2020, 15:55:17,-8.052056,-0.6849756,0.3161426,-1.0987177,-0.34964928,0.9842631,8.087320236,1.515984523,crawl
23/10/2020, 15:55:17,-8.052056,-0.6849756,0.3161426,-1.259986,-0.3178843,0.962272,8.087320236,1.61696711,crawl
23/10/2020, 15:55:17,-8.703502,-0.59156984,-0.07903565,-1.259986,-0.3178843,0.962272,8.723940817,1.61696711,crawl
23/10/2020, 15:55:17,-8.703502,-0.59156984,-0.07903565,-1.4554628,-0.27512375,0.95860684,8.723940817,1.764367351,crawl
23/10/2020, 15:55:17,-9.405242,-0.5388794,-0.3065625,-1.4554628,-0.27512375,0.95860684,9.425653718,1.764367351,crawl
23/10/2020, 15:55:17,-9.405242,-0.5388794,-0.3065625,-1.65827,-0.23602839,0.9610503,9.425653718,1.931110153,crawl
23/10/2020, 15:55:17,-10.044712,-0.6346802,-0.28261232,-1.65827,-0.23602839,0.9610503,10.0687104,1.931110153,crawl
23/10/2020, 15:55:17,-10.044712,-0.6346802,-0.28261232,-1.8488599,-0.21403724,0.96838063,10.0687104,2.098060041,crawl
23/10/2020, 15:55:17,-10.3393,-0.8382569,-0.098195806,-1.8488599,-0.21403724,0.96838063,10.37369003,2.098060041,crawl
23/10/2020, 15:55:17,-10.3393,-0.8382569,-0.098195806,-1.9979109,-0.1920461,0.95982856,10.37369003,2.224814679,crawl
23/10/2020, 15:55:17,-10.413546,-1.094524,0.05508545,-1.9979109,-0.1920461,0.95982856,10.47105293,2.224814679,crawl
23/10/2020, 15:55:17,-10.413546,-1.094524,0.05508545,-2.08221,-0.16883323,0.9341722,10.47105293,2.288401436,crawl
23/10/2020, 15:55:17,-10.260264,-1.3220508,0.34967285,-2.08221,-0.16883323,0.9341722,10.35099584,2.288401436,crawl
23/10/2020, 15:55:17,-10.260264,-1.3220508,0.34967285,-2.1029797,-0.13584653,0.9024072,10.35099584,2.292447717,crawl
23/10/2020, 15:55:17,-9.924961,-1.4585669,0.68976563,-2.1029797,-0.13584653,0.9024072,10.05524971,2.292447717,crawl
23/10/2020, 15:55:17,-9.924961,-1.4585669,0.68976563,-2.051667,-0.10041635,0.8657553,10.05524971,2.229114868,crawl
23/10/2020, 15:55:18,-8.308323,-2.7351124,0.91010743,0.1169038,-0.28978452,-0.6137597,8.794166536,0.688725294,crawl
23/10/2020, 15:55:18,-8.248447,-2.6896071,0.9412427,0.1169038,-0.28978452,-0.6137597,8.726786878,0.688725294,crawl
23/10/2020, 15:55:18,-8.248447,-2.6896071,0.9412427,0.16210781,-0.24946742,-0.5600036,8.726786878,0.634126914,crawl
23/10/2020, 15:55:18,-8.066426,-2.6177564,0.98914313,0.16210781,-0.24946742,-0.5600036,8.538049275,0.634126914,crawl
23/10/2020, 15:55:18,-8.066426,-2.6177564,0.98914313,0.17921203,-0.20915033,-0.5160213,8.538049275,0.584926326,crawl
23/10/2020, 15:55:18,-7.8844047,-2.5075855,1.0083033,0.17921203,-0.20915033,-0.5160213,8.334776392,0.584926326,crawl
23/10/2020, 15:55:18,-7.8844047,-2.5075855,1.0083033,0.17676857,-0.1676115,-0.47570422,8.334776392,0.534448546,crawl
23/10/2020, 15:55:18,-7.7694435,-2.3902297,1.0609937,0.17676857,-0.1676115,-0.47570422,8.197753234,0.534448546,crawl
23/10/2020, 15:55:18,-7.7694435,-2.3902297,1.0609937,0.15233397,-0.12729442,-0.44516098,8.197753234,0.487419544,crawl
23/10/2020, 15:55:18,-7.711963,-2.2680836,1.1735597,0.15233397,-0.12729442,-0.44516098,8.123781227,0.487419544,crawl
23/10/2020, 15:55:18,-7.711963,-2.2680836,1.1735597,0.09002573,-0.09064251,-0.41461772,8.123781227,0.433853142,crawl
23/10/2020, 15:55:18,-7.8029737,-2.1076174,1.1352394,0.09002573,-0.09064251,-0.41461772,8.161937192,0.433853142,crawl
23/10/2020, 15:55:18,-7.8029737,-2.1076174,1.1352394,0.008169825,-0.052768882,-0.38529623,8.161937192,0.388978769,crawl
23/10/2020, 15:55:18,-8.020921,-2.0429518,1.1687696,0.008169825,-0.052768882,-0.38529623,8.359117433,0.388978769,crawl
23/10/2020, 15:55:18,-8.020921,-2.0429518,1.1687696,-0.06757744,-0.012451792,-0.3400922,8.359117433,0.346964652,crawl
23/10/2020, 15:55:18,-8.301138,-1.9782863,1.3148658,-0.06757744,-0.012451792,-0.3400922,8.634314074,0.346964652,crawl
23/10/2020, 15:55:18,-8.301138,-1.9782863,1.3148658,-0.12133356,0.019313188,-0.26923186,8.634314074,0.295940238,crawl
23/10/2020, 15:55:18,-8.557405,-1.8345851,1.4897022,-0.12133356,0.019313188,-0.26923186,8.877730763,0.295940238,crawl
23/10/2020, 15:55:18,-8.557405,-1.8345851,1.4897022,-0.14943334,0.03886087,-0.17393692,8.877730763,0.232582336,crawl
23/10/2020, 15:55:18,-8.653206,-1.7794995,1.5926881,-0.14943334,0.03886087,-0.17393692,8.97670573,0.232582336,crawl
23/10/2020, 15:55:18,-8.653206,-1.7794995,1.5926881,-0.15920718,0.06085201,-0.05298564,8.97670573,0.178486333,crawl
23/10/2020, 15:55:18,-8.56938,-1.698069,1.6908839,-0.15920718,0.06085201,-0.05298564,8.898134456,0.178486333,crawl
23/10/2020, 15:55:18,-8.56938,-1.698069,1.6908839,-0.14821161,0.103612565,0.07896121,8.898134456,0.197324905,crawl
23/10/2020, 15:55:18,-8.5119,-1.6908839,1.7675245,-0.14821161,0.103612565,0.07896121,8.856391579,0.197324905,crawl
23/10/2020, 15:55:18,-8.5119,-1.6908839,1.7675245,-0.13110739,0.15614696,0.22679053,8.856391579,0.304967156,crawl
23/10/2020, 15:55:18,-8.784932,-1.7220191,1.8226099,-0.13110739,0.15614696,0.22679053,9.135769765,0.304967156,crawl
23/10/2020, 15:55:18,-8.784932,-1.7220191,1.8226099,-0.1188901,0.21234654,0.38683715,9.135769765,0.457021764,crawl
23/10/2020, 15:55:18,-9.158555,-1.5926881,1.8920655,-0.1188901,0.21234654,0.38683715,9.486606218,0.457021764,crawl
23/10/2020, 15:55:18,-9.158555,-1.5926881,1.8920655,-0.11522491,0.259994,0.5627663,9.486606218,0.630539122,crawl
23/10/2020, 15:55:18,-9.580078,-1.4322218,1.9088306,-0.11522491,0.259994,0.5627663,9.872830926,0.630539122,crawl
23/10/2020, 15:55:19,-8.729847,-3.2596216,0.9364527,2.311131,-0.57933456,-2.0676184,9.365484749,3.154679184,crawl
23/10/2020, 15:55:19,-9.505833,-3.3865578,0.6945557,2.311131,-0.57933456,-2.0676184,10.11494124,3.154679184,crawl
23/10/2020, 15:55:19,-9.505833,-3.3865578,0.6945557,2.4430778,-0.5573434,-2.0285232,10.11494124,3.223998642,crawl
23/10/2020, 15:55:19,-10.202784,-3.415298,0.50534916,2.4430778,-0.5573434,-2.0285232,10.77109238,3.223998642,crawl
23/10/2020, 15:55:19,-10.202784,-3.415298,0.50534916,2.5676942,-0.54023916,-1.9588845,10.77109238,3.274467923,crawl
23/10/2020, 15:55:19,-10.830278,-3.4057178,0.42870852,2.5676942,-0.54023916,-1.9588845,11.36123388,3.274467923,crawl
23/10/2020, 15:55:19,-10.830278,-3.4057178,0.42870852,2.6666543,-0.5487913,-1.8489288,11.36123388,3.291011248,crawl
23/10/2020, 15:55:19,-11.270963,-3.3602126,0.45505372,2.6666543,-0.5487913,-1.8489288,11.76999163,3.291011248,crawl
23/10/2020, 15:55:19,-11.270963,-3.3602126,0.45505372,2.7289627,-0.57933456,-1.6839952,11.76999163,3.258635561,crawl
23/10/2020, 15:55:19,-11.304493,-3.163821,0.49097902,2.7289627,-0.57933456,-1.6839952,11.74914399,3.258635561,crawl
23/10/2020, 15:55:19,-11.304493,-3.163821,0.49097902,2.74118,-0.64164275,-1.5166183,11.74914399,3.197796713,crawl
23/10/2020, 15:55:19,-10.873389,-3.0033545,0.60354495,2.74118,-0.64164275,-1.5166183,11.29668087,3.197796713,crawl
23/10/2020, 15:55:19,-10.873389,-3.0033545,0.60354495,2.6825368,-0.7198335,-1.3626802,11.29668087,3.093713218,crawl
23/10/2020, 15:55:19,-10.873389,-3.0033545,0.60354495,2.5481467,-0.7894721,-1.2258464,11.29668087,2.935816301,crawl
23/10/2020, 15:55:19,-10.087823,-2.8812087,0.63707525,2.5481467,-0.7894721,-1.2258464,10.51053754,2.935816301,crawl
23/10/2020, 15:55:19,-9.220825,-2.7183473,0.6227051,2.5481467,-0.7894721,-1.2258464,9.63331672,2.935816301,crawl
23/10/2020, 15:55:19,-9.220825,-2.7183473,0.6227051,2.338009,-0.8407848,-1.1244429,9.63331672,2.727192258,crawl
23/10/2020, 15:55:19,-8.571775,-2.6369166,0.44307864,2.338009,-0.8407848,-1.1244429,8.979141505,2.727192258,crawl
23/10/2020, 15:55:19,-8.571775,-2.6369166,0.44307864,2.0875545,-0.86888456,-1.0572478,8.979141505,2.496120351,crawl
23/10/2020, 15:55:19,-8.159832,-2.6608667,0.25387207,2.0875545,-0.86888456,-1.0572478,8.586473147,2.496120351,crawl
23/10/2020, 15:55:19,-8.159832,-2.6608667,0.25387207,1.8334345,-0.8749932,-1.0157089,8.586473147,2.271290306,crawl
23/10/2020, 15:55:19,-8.066426,-2.7063723,0.17723145,1.8334345,-0.8749932,-1.0157089,8.510175949,2.271290306,crawl
23/10/2020, 15:55:19,-8.066426,-2.7063723,0.17723145,1.5951971,-0.8542238,-0.98272216,8.510175949,2.059149062,crawl
23/10/2020, 15:55:19,-8.416099,-2.794988,-0.026345216,1.5951971,-0.8542238,-0.98272216,8.868109555,2.059149062,crawl
23/10/2020, 15:55:19,-8.416099,-2.794988,-0.026345216,1.374064,-0.807798,-0.9387399,8.868109555,1.849816757,crawl
23/10/2020, 15:55:19,-9.065149,-2.8692336,-0.21794678,1.374064,-0.807798,-0.9387399,9.510885041,1.849816757,crawl
23/10/2020, 15:55:19,-9.065149,-2.8692336,-0.21794678,1.1920261,-0.7564854,-0.8764317,9.510885041,1.661724709,crawl
23/10/2020, 15:55:19,-9.814791,-2.8596535,-0.244292,1.1920261,-0.7564854,-0.8764317,10.22582092,1.661724709,crawl
23/10/2020, 15:55:19,-9.814791,-2.8596535,-0.244292,1.0441968,-0.71372485,-0.7872454,10.22582092,1.489800497,crawl
23/10/2020, 15:55:19,-10.32014,-2.8596535,-0.33769777,1.0441968,-0.71372485,-0.7872454,10.71433362,1.489800497,crawl
23/10/2020, 15:55:20,-8.423284,-1.1280543,2.4261549,1.2494475,0.24166806,-0.019998927,8.838011088,1.272761712,crawl
23/10/2020, 15:55:20,-8.583751,-1.1735597,2.4189699,1.2494475,0.24166806,-0.019998927,8.99496715,1.272761712,crawl
23/10/2020, 15:55:20,-8.583751,-1.1735597,2.4189699,1.2873211,0.23189421,-0.06886813,8.99496715,1.309852409,crawl
23/10/2020, 15:55:20,-8.657996,-1.22625,2.5411158,1.2873211,0.23189421,-0.06886813,9.106143877,1.309852409,crawl
23/10/2020, 15:55:20,-8.657996,-1.22625,2.5411158,1.3141992,0.21967691,-0.120180786,9.106143877,1.337841892,crawl
23/10/2020, 15:55:20,-8.653206,-1.2885206,2.6417067,1.3141992,0.21967691,-0.120180786,9.138756559,1.337841892,crawl
23/10/2020, 15:55:20,-8.653206,-1.2885206,2.6417067,1.3288599,0.20135097,-0.17638038,9.138756559,1.3555519,crawl
23/10/2020, 15:55:20,-8.5502205,-1.3579761,2.6967921,1.3288599,0.20135097,-0.17638038,9.067693048,1.3555519,crawl
23/10/2020, 15:55:20,-8.5502205,-1.3579761,2.6967921,1.3313034,0.18424675,-0.2338017,9.067693048,1.364176941,crawl
23/10/2020, 15:55:20,-8.471185,-1.3939015,2.8357031,1.3313034,0.18424675,-0.2338017,9.041302136,1.364176941,crawl
23/10/2020, 15:55:20,-8.471185,-1.3939015,2.8357031,1.3349686,0.16958599,-0.29855338,9.041302136,1.378417426,crawl
23/10/2020, 15:55:20,-8.547825,-1.6286134,2.9650342,1.3349686,0.16958599,-0.29855338,9.19288417,1.378417426,crawl
23/10/2020, 15:55:20,-8.547825,-1.6286134,2.9650342,1.3386338,0.14759484,-0.3767441,9.19288417,1.398449403,crawl
23/10/2020, 15:55:20,-8.653206,-1.8633252,3.0656252,1.3386338,0.14759484,-0.3767441,9.367390811,1.398449403,crawl
23/10/2020, 15:55:20,-8.653206,-1.8633252,3.0656252,1.350851,0.12071678,-0.45982173,9.367390811,1.432063947,crawl
23/10/2020, 15:55:20,-8.919053,-2.1052222,3.180586,1.350851,0.12071678,-0.45982173,9.700391557,1.432063947,crawl
23/10/2020, 15:55:20,-8.919053,-2.1052222,3.180586,1.3777292,0.090173535,-0.5477863,9.700391557,1.485374962,crawl
23/10/2020, 15:55:20,-9.254355,-2.2824538,3.2428565,1.3777292,0.090173535,-0.5477863,10.06820778,1.485374962,crawl
23/10/2020, 15:55:20,-9.254355,-2.2824538,3.2428565,1.4290417,0.05107817,-0.6406378,10.06820778,1.566903345,crawl
23/10/2020, 15:55:20,-9.570498,-2.4956105,3.3147073,1.4290417,0.05107817,-0.6406378,10.43119345,1.566903345,crawl
23/10/2020, 15:55:20,-9.570498,-2.4956105,3.3147073,1.4876848,0.013204537,-0.7383762,10.43119345,1.66089734,crawl
23/10/2020, 15:55:20,-9.651929,-2.5459058,3.2260914,1.4876848,0.013204537,-0.7383762,10.49042581,1.66089734,crawl
23/10/2020, 15:55:20,-9.651929,-2.5459058,3.2260914,1.5402192,-0.021003902,-0.84344494,10.49042581,1.75616505,crawl
23/10/2020, 15:55:20,-9.656719,-2.5195606,3.0776002,1.5402192,-0.021003902,-0.84344494,10.44375577,1.75616505,crawl
23/10/2020, 15:55:20,-9.656719,-2.5195606,3.0776002,1.5756494,-0.045438502,-0.9582876,10.44375577,1.844735956,crawl
23/10/2020, 15:55:20,-9.486672,-2.5123756,2.938689,1.5756494,-0.045438502,-0.9582876,10.2442607,1.844735956,crawl
23/10/2020, 15:55:20,-9.486672,-2.5123756,2.938689,1.5976405,-0.057655804,-1.0804605,10.2442607,1.929552902,crawl
23/10/2020, 15:55:20,-9.400452,-2.560276,2.7231374,1.5976405,-0.057655804,-1.0804605,10.11627313,1.929552902,crawl
23/10/2020, 15:55:20,-9.400452,-2.560276,2.7231374,1.6220751,-0.053990614,-1.2038553,10.11627313,2.020720188,crawl
23/10/2020, 15:55:20,-9.266331,-2.550696,2.6177564,1.6220751,-0.053990614,-1.2038553,9.9611035,2.020720188,crawl
23/10/2020, 15:55:21,-7.767049,0.086220704,2.9770093,1.2909863,0.08162142,0.6030834,8.318477383,1.427241127,crawl
23/10/2020, 15:55:21,-8.353828,0.7711963,2.7063723,1.2909863,0.08162142,0.6030834,8.815080487,1.427241127,crawl
23/10/2020, 15:55:21,-8.353828,0.7711963,2.7063723,1.0209839,0.03153049,0.4857973,8.815080487,1.131106259,crawl
23/10/2020, 15:55:21,-8.866363,1.1591895,2.43813,1.0209839,0.03153049,0.4857973,9.268256734,1.131106259,crawl
23/10/2020, 15:55:21,-8.866363,1.1591895,2.43813,0.7522034,-0.010008331,0.3758416,9.268256734,0.840932238,crawl
23/10/2020, 15:55:21,-9.201666,1.0777588,2.0932472,0.7522034,-0.010008331,0.3758416,9.498099951,0.840932238,crawl
23/10/2020, 15:55:21,-9.201666,1.0777588,2.0932472,0.5200747,-0.027112553,0.30864644,9.498099951,0.605372146,crawl
23/10/2020, 15:55:21,-9.290281,0.7209009,2.0046315,0.5200747,-0.027112553,0.30864644,9.531399277,0.605372146,crawl
23/10/2020, 15:55:21,-9.290281,0.7209009,2.0046315,0.39179307,-0.024669092,0.27321628,9.531399277,0.478286013,crawl
23/10/2020, 15:55:21,-9.220825,0.26105714,1.9998415,0.39179307,-0.024669092,0.27321628,9.438809986,0.478286013,crawl
23/10/2020, 15:55:21,-9.220825,0.26105714,1.9998415,0.39179307,-0.010008331,0.2500034,9.438809986,0.464869527,crawl
23/10/2020, 15:55:21,-9.074729,0.18441652,1.9375709,0.39179307,-0.010008331,0.2500034,9.281104264,0.464869527,crawl
23/10/2020, 15:55:21,-9.074729,0.18441652,1.9375709,0.46754032,0.010761078,0.23900783,9.281104264,0.525199484,crawl
23/10/2020, 15:55:21,-8.8879175,0.19878663,1.8776954,0.46754032,0.010761078,0.23900783,9.086271739,0.525199484,crawl
23/10/2020, 15:55:21,-8.8879175,0.19878663,1.8776954,0.53840065,0.03641741,0.22801226,9.086271739,0.585825128,crawl
23/10/2020, 15:55:21,-8.725057,0.29698244,1.6070582,0.53840065,0.03641741,0.22801226,8.876792666,0.585825128,crawl
23/10/2020, 15:55:21,-8.725057,0.29698244,1.6070582,0.52496165,0.05963028,0.20968631,8.876792666,0.568426647,crawl
23/10/2020, 15:55:21,-8.610096,0.4742139,1.575923,0.52496165,0.05963028,0.20968631,8.765966277,0.568426647,crawl
23/10/2020, 15:55:21,-8.610096,0.4742139,1.575923,0.43944052,0.0645172,0.21212977,8.765966277,0.492208775,crawl
23/10/2020, 15:55:21,-8.631651,0.45744875,1.1879297,0.43944052,0.0645172,0.21212977,8.725011985,0.492208775,crawl
23/10/2020, 15:55:21,-8.631651,0.45744875,1.1879297,0.29894158,0.05596509,0.24022956,8.725011985,0.387567289,crawl
23/10/2020, 15:55:21,-8.293953,0.32572266,1.7723145,0.29894158,0.05596509,0.24022956,8.487452475,0.387567289,crawl
23/10/2020, 15:55:21,-8.293953,0.32572266,1.7723145,0.12423418,0.05474336,0.27199453,8.487452475,0.303993407,crawl
23/10/2020, 15:55:21,-8.01613,0.19639161,1.9998415,0.12423418,0.05474336,0.27199453,8.264156512,0.303993407,crawl
23/10/2020, 15:55:21,-8.01613,0.19639161,1.9998415,-0.05902533,0.011982808,0.2781032,8.264156512,0.284550467,crawl
23/10/2020, 15:55:21,-7.90117,-0.023950197,2.1722827,-0.05902533,0.011982808,0.2781032,8.194380365,0.284550467,crawl
23/10/2020, 15:55:21,-7.90117,-0.023950197,2.1722827,-0.2862671,-0.003899682,0.28054667,8.194380365,0.400837239,crawl
23/10/2020, 15:55:21,-7.913145,-0.18920656,2.1291726,-0.2862671,-0.003899682,0.28054667,8.19677008,0.400837239,crawl
23/10/2020, 15:55:21,-7.913145,-0.18920656,2.1291726,-0.58803445,-0.039329853,0.2500034,8.19677008,0.640182046,crawl
23/10/2020, 15:55:21,-7.9227247,-0.19639161,2.4189699,-0.58803445,-0.039329853,0.2500034,8.286105958,0.640182046,crawl
23/10/2020, 15:55:22,-7.1611085,-1.3100758,2.699187,-0.12622048,0.2270073,0.18769518,7.764237505,0.320458113,crawl
23/10/2020, 15:55:22,-7.3718705,-1.2885206,2.8500733,-0.12622048,0.2270073,0.18769518,8.007975913,0.320458113,crawl
23/10/2020, 15:55:22,-7.3718705,-1.2885206,2.8500733,-0.09934242,0.25877225,0.46258444,8.007975913,0.539273916,crawl
23/10/2020, 15:55:22,-7.31439,-1.2717555,2.8836036,-0.09934242,0.25877225,0.46258444,7.964473319,0.539273916,crawl
23/10/2020, 15:55:22,-7.31439,-1.2717555,2.8836036,-0.11766837,0.3088632,0.7118173,7.964473319,0.784809671,crawl
23/10/2020, 15:55:22,-7.4676714,-1.4250367,2.7494826,-0.11766837,0.3088632,0.7118173,8.084336726,0.784809671,crawl
23/10/2020, 15:55:22,-7.4676714,-1.4250367,2.7494826,-0.17386794,0.3662845,0.9415026,8.084336726,1.025095839,crawl
23/10/2020, 15:55:22,-7.6209526,-1.5352076,2.6584718,-0.17386794,0.3662845,0.9415026,8.216036363,1.025095839,crawl
23/10/2020, 15:55:22,-7.6209526,-1.5352076,2.6584718,-0.24228483,0.4224841,1.147975,8.216036363,1.247012944,crawl
23/10/2020, 15:55:22,-7.805369,-1.7435743,2.680027,-0.24228483,0.4224841,1.147975,8.434831334,1.247012944,crawl
23/10/2020, 15:55:22,-7.805369,-1.7435743,2.680027,-0.2984844,0.472575,1.3385649,8.434831334,1.450577817,crawl
23/10/2020, 15:55:22,-8.076006,-1.9591261,2.8476784,-0.2984844,0.472575,1.3385649,8.784606958,1.450577817,crawl
23/10/2020, 15:55:22,-8.076006,-1.9591261,2.8476784,-0.3107017,0.5055617,1.5206026,8.784606958,1.632286864,crawl
23/10/2020, 15:55:22,-8.353828,-2.179468,3.2356715,-0.3107017,0.5055617,1.5206026,9.219875272,1.632286864,crawl
23/10/2020, 15:55:22,-8.353828,-2.179468,3.2356715,-0.2532804,0.5092269,1.6940883,9.219875272,1.787008203,crawl
23/10/2020, 15:55:22,-8.660391,-2.3495142,3.6092947,-0.2532804,0.5092269,1.6940883,9.67210395,1.787008203,crawl
23/10/2020, 15:55:22,-8.660391,-2.3495142,3.6092947,-0.15309854,0.48601404,1.8700174,9.67210395,1.938198627,crawl
23/10/2020, 15:55:22,-8.799302,-2.4333398,3.8511915,-0.15309854,0.48601404,1.8700174,9.908609203,1.938198627,crawl
23/10/2020, 15:55:22,-8.799302,-2.4333398,3.8511915,-0.049251486,0.45791426,2.0447247,9.908609203,2.095950928,crawl
23/10/2020, 15:55:22,-8.923843,-2.311194,3.9541774,-0.049251486,0.45791426,2.0447247,10.03055915,2.095950928,crawl
23/10/2020, 15:55:22,-8.923843,-2.311194,3.9541774,0.038713075,0.41759717,2.1998844,10.03055915,2.23950386,crawl
23/10/2020, 15:55:22,-9.09868,-2.203418,4.0356083,0.038713075,0.41759717,2.1998844,10.19446686,2.23950386,crawl
23/10/2020, 15:55:22,-9.09868,-2.203418,4.0356083,0.0643694,0.36872795,2.3440487,10.19446686,2.373745608,crawl
23/10/2020, 15:55:22,-9.496253,-2.1004322,3.9517825,0.0643694,0.36872795,2.3440487,10.49796272,2.373745608,crawl
23/10/2020, 15:55:22,-9.496253,-2.1004322,3.9517825,0.010613285,0.32718915,2.4979866,10.49796272,2.519345592,crawl
23/10/2020, 15:55:22,-10.037527,-1.8609302,3.7386258,0.010613285,0.32718915,2.4979866,10.87162977,2.519345592,crawl
23/10/2020, 15:55:22,-10.037527,-1.8609302,3.7386258,-0.11766837,0.30275455,2.6580334,10.87162977,2.677806484,crawl
23/10/2020, 15:55:22,-10.705738,-1.5615528,3.2428565,-0.11766837,0.30275455,2.6580334,11.2945736,2.677806484,crawl
23/10/2020, 15:55:22,-10.705738,-1.5615528,3.2428565,-0.3192538,0.32230222,2.8278537,11.2945736,2.86401085,crawl
23/10/2020, 15:55:22,-11.625425,-1.4130616,2.6967921,-0.3192538,0.32230222,2.8278537,12.01748498,2.86401085,crawl
23/10/2020, 15:55:23,-11.4625635,-2.7063723,0.9508228,1.2555561,-0.9385232,-1.1244429,11.81604321,1.92914976,crawl
23/10/2020, 15:55:23,-10.736873,-2.6345215,0.97237796,1.2555561,-0.9385232,-1.1244429,11.09804745,1.92914976,crawl
23/10/2020, 15:55:23,-10.736873,-2.6345215,0.97237796,1.0087667,-1.0020531,-1.069465,11.09804745,1.779178498,crawl
23/10/2020, 15:55:23,-10.188414,-2.684817,0.92208254,1.0087667,-1.0020531,-1.069465,10.57649522,1.779178498,crawl
23/10/2020, 15:55:23,-10.188414,-2.684817,0.92208254,0.7228819,-1.0484788,-1.0486956,10.57649522,1.649735897,crawl
23/10/2020, 15:55:23,-9.704619,-2.668052,0.7544312,0.7228819,-1.0484788,-1.0486956,10.09293344,1.649735897,crawl
23/10/2020, 15:55:23,-9.704619,-2.668052,0.7544312,0.41256246,-1.0668048,-1.060913,10.09293344,1.560069395,crawl
23/10/2020, 15:55:23,-9.477093,-2.6512868,0.59156984,0.41256246,-1.0668048,-1.060913,9.858730326,1.560069395,crawl
23/10/2020, 15:55:23,-9.477093,-2.6512868,0.59156984,0.12667763,-1.0631397,-1.0767955,9.858730326,1.518486633,crawl
23/10/2020, 15:55:23,-9.383687,-2.548301,0.5628296,0.12667763,-1.0631397,-1.0767955,9.739825314,1.518486633,crawl
23/10/2020, 15:55:23,-9.383687,-2.548301,0.5628296,-0.12622048,-1.0448136,-1.1000082,9.739825314,1.522361746,crawl
23/10/2020, 15:55:23,-9.285491,-2.4668703,0.5676197,-0.12622048,-1.0448136,-1.1000082,9.624343309,1.522361746,crawl
23/10/2020, 15:55:23,-9.285491,-2.4668703,0.5676197,-0.32536247,-1.0142704,-1.1146691,9.624343309,1.541782216,crawl
23/10/2020, 15:55:23,-9.17053,-2.3734643,0.55803955,-0.32536247,-1.0142704,-1.1146691,9.489118372,1.541782216,crawl
23/10/2020, 15:55:23,-9.17053,-2.3734643,0.55803955,-0.4658614,-0.9727316,-1.1268864,9.489118372,1.559841814,crawl
23/10/2020, 15:55:23,-8.921448,-2.435735,0.62749517,-0.4658614,-0.9727316,-1.1268864,9.26923865,1.559841814,crawl
23/10/2020, 15:55:23,-8.921448,-2.435735,0.62749517,-0.55260426,-0.92141896,-1.1415471,9.26923865,1.567646044,crawl
23/10/2020, 15:55:23,-8.57896,-2.5123756,0.6730005,-0.55260426,-0.92141896,-1.1415471,8.964570412,1.567646044,crawl
23/10/2020, 15:55:23,-8.57896,-2.5123756,0.6730005,-0.58070403,-0.8627759,-1.1623166,8.964570412,1.559672803,crawl
23/10/2020, 15:55:23,-8.322693,-2.567461,0.73527104,-0.58070403,-0.8627759,-1.1623166,8.740691974,1.559672803,crawl
23/10/2020, 15:55:23,-8.322693,-2.567461,0.73527104,-0.55626947,-0.794359,-1.1867511,8.740691974,1.532586123,crawl
23/10/2020, 15:55:23,-8.102351,-2.7015822,0.61073,-0.55626947,-0.794359,-1.1867511,8.562688378,1.532586123,crawl
23/10/2020, 15:55:23,-8.102351,-2.7015822,0.61073,-0.48663083,-0.71372485,-1.2160727,8.562688378,1.491658636,crawl
23/10/2020, 15:55:23,-8.0305,-2.8596535,0.5508545,-0.48663083,-0.71372485,-1.2160727,8.542247686,1.491658636,crawl
23/10/2020, 15:55:23,-8.0305,-2.8596535,0.5508545,-0.3791186,-0.62698203,-1.2502811,8.542247686,1.449151543,crawl
23/10/2020, 15:55:23,-8.059241,-2.9937747,0.5125342,-0.3791186,-0.62698203,-1.2502811,8.612592422,1.449151543,crawl
23/10/2020, 15:55:23,-8.059241,-2.9937747,0.5125342,-0.23739791,-0.54023916,-1.2783809,8.612592422,1.408003467,crawl
23/10/2020, 15:55:23,-8.250843,-3.1614258,0.51971924,-0.23739791,-0.54023916,-1.2783809,8.851052614,1.408003467,crawl
23/10/2020, 15:55:23,-8.250843,-3.1614258,0.51971924,-0.07490782,-0.4644919,-1.2893764,8.851052614,1.372536103,crawl
23/10/2020, 15:55:23,-8.435259,-3.2213013,0.48379397,-0.07490782,-0.4644919,-1.2893764,9.042368656,1.372536103,crawl
23/10/2020, 15:55:24,-10.133328,3.1901662,1.2597803,-0.33757976,0.014426269,-0.05298564,10.69806301,0.342017086,crawl
23/10/2020, 15:55:24,-9.68067,3.1350808,1.7962648,-0.33757976,0.014426269,-0.05298564,10.33298922,0.342017086,crawl
23/10/2020, 15:55:24,-9.68067,3.1350808,1.7962648,-0.15554199,0.0645172,0.042309307,10.33298922,0.17362562,crawl
23/10/2020, 15:55:24,-9.362132,3.163821,2.2441335,-0.15554199,0.0645172,0.042309307,10.13387464,0.17362562,crawl
23/10/2020, 15:55:24,-9.362132,3.163821,2.2441335,0.10468649,0.11582986,0.1314956,10.13387464,0.204124741,crawl
23/10/2020, 15:55:24,-9.244776,3.175796,2.4261549,0.10468649,0.11582986,0.1314956,10.07163278,0.204124741,crawl
23/10/2020, 15:55:24,-9.244776,3.175796,2.4261549,0.3771323,0.15859042,0.20968631,10.07163278,0.459726048,crawl
23/10/2020, 15:55:24,-9.223221,3.2069314,2.4261549,0.3771323,0.15859042,0.20968631,10.06173138,0.459726048,crawl
23/10/2020, 15:55:24,-9.223221,3.2069314,2.4261549,0.595822,0.18424675,0.29154223,10.06173138,0.688438498,crawl
23/10/2020, 15:55:24,-9.280701,3.046465,2.44292,0.595822,0.18424675,0.29154223,10.06877409,0.688438498,crawl
23/10/2020, 15:55:24,-9.280701,3.046465,2.44292,0.7534251,0.19035539,0.3758416,10.06877409,0.863215782,crawl
23/10/2020, 15:55:24,-9.467513,2.6776319,2.4189699,0.7534251,0.19035539,0.3758416,10.131877,0.863215782,crawl
23/10/2020, 15:55:24,-9.467513,2.6776319,2.4189699,0.8694895,0.17935982,0.4699148,10.131877,1.004490834,crawl
23/10/2020, 15:55:24,-9.604029,2.323169,2.4141798,0.8694895,0.17935982,0.4699148,10.17166386,1.004490834,crawl
23/10/2020, 15:55:24,-9.604029,2.323169,2.4141798,0.93668467,0.15736869,0.5554359,10.17166386,1.100296372,crawl
23/10/2020, 15:55:24,-9.613608,1.8824854,2.3303542,0.93668467,0.15736869,0.5554359,10.06954655,1.100296372,crawl
23/10/2020, 15:55:24,-9.613608,1.8824854,2.3303542,0.9415716,0.13415581,0.6250745,10.06954655,1.138100604,crawl
23/10/2020, 15:55:24,-9.486672,1.3891114,2.2537134,0.9415716,0.13415581,0.6250745,9.849152638,1.138100604,crawl
23/10/2020, 15:55:24,-9.486672,1.3891114,2.2537134,0.9208022,0.110942945,0.68249583,9.849152638,1.151514457,crawl
23/10/2020, 15:55:24,-9.273516,0.96758795,2.1818628,0.9208022,0.110942945,0.68249583,9.575742546,1.151514457,crawl
23/10/2020, 15:55:24,-9.273516,0.96758795,2.1818628,0.90858483,0.096282184,0.7411389,9.575742546,1.176470778,crawl
23/10/2020, 15:55:24,-8.959768,0.488584,2.2441335,0.90858483,0.096282184,0.7411389,9.249448485,1.176470778,crawl
23/10/2020, 15:55:24,-8.959768,0.488584,2.2441335,0.8878155,0.097503915,0.78512114,9.249448485,1.189175572,crawl
23/10/2020, 15:55:24,-8.57896,-0.098195806,2.1267774,0.8878155,0.097503915,0.78512114,8.839196029,1.189175572,crawl
23/10/2020, 15:55:24,-8.57896,-0.098195806,2.1267774,0.8584939,0.112164676,0.8071123,8.839196029,1.183648157,crawl
23/10/2020, 15:55:24,-8.53585,-0.68018556,2.0046315,0.8584939,0.112164676,0.8071123,8.794425952,1.183648157,crawl
23/10/2020, 15:55:24,-8.53585,-0.68018556,2.0046315,0.821842,0.15736869,0.80222535,8.794425952,1.159204346,crawl
23/10/2020, 15:55:24,-8.691526,-0.92926764,1.8250049,0.821842,0.15736869,0.80222535,8.929547175,1.159204346,crawl
23/10/2020, 15:55:24,-8.691526,-0.92926764,1.8250049,0.8035161,0.21967691,0.77656907,8.929547175,1.138839572,crawl
23/10/2020, 15:55:24,-9.182506,-1.5495777,2.1219873,0.8035161,0.21967691,0.77656907,9.55104343,1.138839572,crawl
23/10/2020, 15:55:25,-9.357342,-2.1171973,5.108577,0.91469353,1.0394578,2.0276206,10.86921919,2.455276336,crawl
23/10/2020, 15:55:25,-9.80521,-2.2632935,5.3552637,0.91469353,1.0394578,2.0276206,11.39927595,2.455276336,crawl
23/10/2020, 15:55:25,-9.80521,-2.2632935,5.3552637,1.1529309,1.0309056,1.9506516,11.39927595,2.489389035,crawl
23/10/2020, 15:55:25,-10.111773,-2.818938,5.6282964,1.1529309,1.0309056,1.9506516,11.91100648,2.489389035,crawl
23/10/2020, 15:55:25,-10.111773,-2.818938,5.6282964,1.342299,1.0211318,1.8663522,11.91100648,2.515501373,crawl
23/10/2020, 15:55:25,-10.447076,-2.8500733,5.831873,1.342299,1.0211318,1.8663522,12.29939241,2.515501373,crawl
23/10/2020, 15:55:25,-10.447076,-2.8500733,5.831873,1.3545163,0.97592777,1.7954919,12.29939241,2.45172197,crawl
23/10/2020, 15:55:25,-10.837463,-2.308799,5.7001467,1.3545163,0.97592777,1.7954919,12.4608522,2.45172197,crawl
23/10/2020, 15:55:25,-10.837463,-2.308799,5.7001467,1.1578177,0.88551974,1.708749,12.4608522,2.245998759,crawl
23/10/2020, 15:55:25,-11.076965,-2.071692,6.0617948,1.1578177,0.88551974,1.708749,12.79595344,2.245998759,crawl
23/10/2020, 15:55:25,-11.076965,-2.071692,6.0617948,0.9550106,0.8109942,1.5902412,12.79595344,2.024505839,crawl
23/10/2020, 15:55:25,-11.1248665,-2.4980054,6.1384354,0.9550106,0.8109942,1.5902412,12.94924994,2.024505839,crawl
23/10/2020, 15:55:25,-11.1248665,-2.4980054,6.1384354,0.75831205,0.7315818,1.4729551,12.94924994,1.811034469,crawl
23/10/2020, 15:55:25,-10.720108,-2.5914114,6.1863356,0.75831205,0.7315818,1.4729551,12.64542908,1.811034469,crawl
23/10/2020, 15:55:25,-10.720108,-2.5914114,6.1863356,0.5652787,0.6411738,1.3678864,12.64542908,1.612996312,crawl
23/10/2020, 15:55:25,-10.193204,-2.7686427,6.3228517,0.5652787,0.6411738,1.3678864,12.3103713,1.612996312,crawl
23/10/2020, 15:55:25,-10.193204,-2.7686427,6.3228517,0.45287955,0.55076575,1.2396047,12.3103713,1.430056866,crawl
23/10/2020, 15:55:25,-9.479487,-2.943479,6.330037,0.45287955,0.55076575,1.2396047,11.77260042,1.430056866,crawl
23/10/2020, 15:55:25,-9.479487,-2.943479,6.330037,0.44066226,0.47746193,1.0771146,11.77260042,1.257906576,crawl
23/10/2020, 15:55:25,-8.976534,-3.3697927,6.2941117,0.44066226,0.47746193,1.0771146,11.4695033,1.257906576,crawl
23/10/2020, 15:55:25,-8.976534,-3.3697927,6.2941117,0.50541395,0.4151537,0.87308574,11.4695033,1.09090539,crawl
23/10/2020, 15:55:25,-8.56938,-3.6955154,6.231841,0.50541395,0.4151537,0.87308574,11.22171768,1.09090539,crawl
23/10/2020, 15:55:25,-8.56938,-3.6955154,6.231841,0.6666823,0.3711714,0.6776089,11.22171768,1.020483877,crawl
23/10/2020, 15:55:25,-8.298743,-3.8296363,6.0665846,0.6666823,0.3711714,0.6776089,10.96989984,1.020483877,crawl
23/10/2020, 15:55:25,-8.298743,-3.8296363,6.0665846,0.89514583,0.32841086,0.48701903,10.96989984,1.070666753,crawl
23/10/2020, 15:55:25,-8.200547,-4.006868,5.8821683,0.89514583,0.32841086,0.48701903,10.85835479,1.070666753,crawl
23/10/2020, 15:55:25,-8.200547,-4.006868,5.8821683,1.1895827,0.28931552,0.30009434,10.85835479,1.260502715,crawl
23/10/2020, 15:55:25,-8.2125225,-4.071533,5.4414845,1.1895827,0.28931552,0.30009434,10.65986217,1.260502715,crawl
23/10/2020, 15:55:25,-8.2125225,-4.071533,5.4414845,1.4999021,0.25510707,0.13027386,10.65986217,1.527009265,crawl
23/10/2020, 15:55:25,-8.2125225,-3.9254372,5.010381,1.4999021,0.25510707,0.13027386,10.39030814,1.527009265,crawl
23/10/2020, 15:55:26,-8.583751,-2.8716285,0.4406836,1.0686314,-0.15661593,-2.0590663,9.062076413,2.32513562,crawl
23/10/2020, 15:55:26,-8.485555,-2.8812087,0.36883304,1.0686314,-0.15661593,-2.0590663,8.968948635,2.32513562,crawl
23/10/2020, 15:55:26,-8.485555,-2.8812087,0.36883304,1.2347867,-0.07842521,-2.092053,8.968948635,2.43054198,crawl
23/10/2020, 15:55:26,-8.468789,-2.8380983,0.29698244,1.2347867,-0.07842521,-2.092053,8.936631876,2.43054198,crawl
23/10/2020, 15:55:26,-8.468789,-2.8380983,0.29698244,1.382616,-0.011230063,-2.1030486,8.936631876,2.516856471,crawl
23/10/2020, 15:55:26,-8.4304695,-2.7375073,0.2083667,1.382616,-0.011230063,-2.1030486,8.866238173,2.516856471,crawl
23/10/2020, 15:55:26,-8.4304695,-2.7375073,0.2083667,1.4925717,0.04619125,-2.0932748,8.866238173,2.571323291,crawl
23/10/2020, 15:55:26,-8.48316,-2.6512868,0.19639161,1.4925717,0.04619125,-2.0932748,8.889988497,2.571323291,crawl
23/10/2020, 15:55:26,-8.48316,-2.6512868,0.19639161,1.5670973,0.09994737,-2.0602882,8.889988497,2.590476959,crawl
23/10/2020, 15:55:26,-8.464,-2.4812403,0.18920656,1.5670973,0.09994737,-2.0602882,8.822224444,2.590476959,crawl
23/10/2020, 15:55:26,-8.464,-2.4812403,0.18920656,1.6049709,0.14637311,-2.0004232,8.822224444,2.568861563,crawl
23/10/2020, 15:55:26,-8.344249,-2.308799,0.10777588,1.6049709,0.14637311,-2.0004232,8.658444211,2.568861563,crawl
23/10/2020, 15:55:26,-8.344249,-2.308799,0.10777588,1.5927536,0.18669021,-1.9258977,8.658444211,2.506152318,crawl
23/10/2020, 15:55:26,-8.262817,-2.2225783,0.19160157,1.5927536,0.18669021,-1.9258977,8.558663243,2.506152318,crawl
23/10/2020, 15:55:26,-8.262817,-2.2225783,0.19160157,1.5341105,0.22822903,-1.834268,8.558663243,2.402107961,crawl
23/10/2020, 15:55:26,-8.011341,-2.059717,0.1580713,1.5341105,0.22822903,-1.834268,8.273391478,2.402107961,crawl
23/10/2020, 15:55:26,-8.011341,-2.059717,0.1580713,1.4302635,0.2685461,-1.7255341,8.273391478,2.257263523,crawl
23/10/2020, 15:55:26,-7.812554,-2.0118165,0.1460962,1.4302635,0.2685461,-1.7255341,8.068751322,2.257263523,crawl
23/10/2020, 15:55:26,-7.812554,-2.0118165,0.1460962,1.2909863,0.3088632,-1.6058046,8.068751322,2.083422758,crawl
23/10/2020, 15:55:26,-7.568262,-1.961521,0.21794678,1.2909863,0.3088632,-1.6058046,7.82135901,2.083422758,crawl
23/10/2020, 15:55:26,-7.568262,-1.961521,0.21794678,1.1309397,0.35040203,-1.481188,7.82135901,1.896239516,crawl
23/10/2020, 15:55:26,-7.3886356,-1.9830762,0.2682422,1.1309397,0.35040203,-1.481188,7.654833879,1.896239516,crawl
23/10/2020, 15:55:26,-7.3886356,-1.9830762,0.2682422,0.96234095,0.4029364,-1.3492413,7.654833879,1.705552643,crawl
23/10/2020, 15:55:26,-7.230564,-2.0237916,0.31853762,0.96234095,0.4029364,-1.3492413,7.515201655,1.705552643,crawl
23/10/2020, 15:55:26,-7.230564,-2.0237916,0.31853762,0.8010726,0.45791426,-1.2160727,7.515201655,1.526510903,crawl
23/10/2020, 15:55:26,-7.194639,-2.0812721,0.37601808,0.8010726,0.45791426,-1.2160727,7.499061045,1.526510903,crawl
23/10/2020, 15:55:26,-7.194639,-2.0812721,0.37601808,0.65690845,0.51900077,-1.0755737,7.499061045,1.362992759,crawl
23/10/2020, 15:55:26,-7.213799,-2.1459377,0.46463382,0.65690845,0.51900077,-1.0755737,7.540545679,1.362992759,crawl
23/10/2020, 15:55:26,-7.213799,-2.1459377,0.46463382,0.53473544,0.58130896,-0.9277443,7.540545679,1.21842999,crawl
23/10/2020, 15:55:26,-7.28565,-2.215393,0.5556446,0.53473544,0.58130896,-0.9277443,7.635273407,1.21842999,crawl
23/10/2020, 15:55:27,-10.176438,-1.695674,3.539839,1.143157,0.090173535,0.45891923,10.90713838,1.235129978,crawl
23/10/2020, 15:55:27,-10.176438,-1.695674,3.539839,1.1517091,0.05963028,0.40638486,10.90713838,1.222758449,crawl
23/10/2020, 15:55:27,-10.130933,-1.9950514,3.527864,1.1517091,0.05963028,0.40638486,10.91154681,1.222758449,crawl
23/10/2020, 15:55:27,-10.130933,-1.9950514,3.527864,1.1651481,0.019313188,0.34163314,10.91154681,1.214354309,crawl
23/10/2020, 15:55:27,-9.924961,-2.184258,3.6092947,1.1651481,0.019313188,0.34163314,10.78437961,1.214354309,crawl
23/10/2020, 15:55:27,-9.924961,-2.184258,3.6092947,1.2030218,-0.007564872,0.26344243,10.78437961,1.231552072,crawl
23/10/2020, 15:55:27,-9.817185,-2.459685,3.776946,1.2030218,-0.007564872,0.26344243,10.80243035,1.231552072,crawl
23/10/2020, 15:55:27,-9.817185,-2.459685,3.776946,1.2641082,-0.018560443,0.1766996,10.80243035,1.27653309,crawl
23/10/2020, 15:55:27,-9.802815,-2.5530908,3.786526,1.2641082,-0.018560443,0.1766996,10.81439976,1.27653309,crawl
23/10/2020, 15:55:27,-9.802815,-2.5530908,3.786526,1.3300817,-0.014895253,0.07896121,10.81439976,1.332506688,crawl
23/10/2020, 15:55:27,-10.123748,-2.6249416,3.8008962,1.3300817,-0.014895253,0.07896121,11.12777606,1.332506688,crawl
23/10/2020, 15:55:27,-10.123748,-2.6249416,3.8008962,1.4107158,-0.021003902,-0.004116436,11.12777606,1.410878177,crawl
23/10/2020, 15:55:27,-10.538086,-2.7327175,3.9398074,1.4107158,-0.021003902,-0.004116436,11.57761127,1.410878177,crawl
23/10/2020, 15:55:27,-10.538086,-2.7327175,3.9398074,1.4864631,-0.03810812,-0.06886813,11.57761127,1.488545433,crawl
23/10/2020, 15:55:27,-10.720108,-2.806963,3.9517825,1.4864631,-0.03810812,-0.06886813,11.76504747,1.488545433,crawl
23/10/2020, 15:55:27,-10.720108,-2.806963,3.9517825,1.5561017,-0.055212345,-0.10796349,11.76504747,1.560819322,crawl
23/10/2020, 15:55:27,-10.679393,-2.8812087,3.9685476,1.5561017,-0.055212345,-0.10796349,11.75160262,1.560819322,crawl
23/10/2020, 15:55:27,-10.679393,-2.8812087,3.9685476,1.6086361,-0.06742964,-0.1360633,11.75160262,1.615787798,crawl
23/10/2020, 15:55:27,-10.6817875,-2.9865894,3.9278321,1.6086361,-0.06742964,-0.1360633,11.76639986,1.615787798,crawl
23/10/2020, 15:55:27,-10.6817875,-2.9865894,3.9278321,1.6330707,-0.08819905,-0.17271519,11.76639986,1.644545391,crawl
23/10/2020, 15:55:27,-11.1176815,-3.2284865,3.9541774,1.6330707,-0.08819905,-0.17271519,12.23362114,1.644545391,crawl
23/10/2020, 15:55:27,-11.1176815,-3.2284865,3.9541774,1.6636139,-0.11629884,-0.19959325,12.23362114,1.679575584,crawl
23/10/2020, 15:55:27,-11.757152,-3.5877395,4.026028,1.6636139,-0.11629884,-0.19959325,12.93489045,1.679575584,crawl
23/10/2020, 15:55:27,-11.757152,-3.5877395,4.026028,1.7247005,-0.16028112,-0.24357553,12.93489045,1.749174297,crawl
23/10/2020, 15:55:27,-11.946358,-3.7362306,4.0811133,1.7247005,-0.16028112,-0.24357553,13.16549916,1.749174297,crawl
23/10/2020, 15:55:27,-11.946358,-3.7362306,4.0811133,1.754022,-0.228698,-0.30954894,13.16549916,1.795749567,crawl
23/10/2020, 15:55:27,-11.520044,-3.532654,4.014053,1.754022,-0.228698,-0.30954894,12.70053882,1.795749567,crawl
23/10/2020, 15:55:27,-11.520044,-3.532654,4.014053,1.7320309,-0.32643643,-0.39140487,12.70053882,1.805461006,crawl
23/10/2020, 15:55:27,-10.660233,-3.2476466,3.8751419,1.7320309,-0.32643643,-0.39140487,11.79849527,1.805461006,crawl
23/10/2020, 15:55:27,-10.660233,-3.2476466,3.8751419,1.6611705,-0.4388356,-0.4830346,11.79849527,1.784765106,crawl
23/10/2020, 15:55:28,-7.5035963,-2.083667,2.4644752,-0.5745954,0.32230222,0.16326056,8.168186068,0.678743397,crawl
23/10/2020, 15:55:28,-7.2593045,-2.0118165,2.315984,-0.5745954,0.32230222,0.16326056,7.880906657,0.678743397,crawl
23/10/2020, 15:55:28,-7.2593045,-2.0118165,2.315984,-0.63812536,0.31497183,0.089956775,7.880906657,0.717288961,crawl
23/10/2020, 15:55:28,-7.1275783,-1.961521,2.3327491,-0.63812536,0.31497183,0.089956775,7.751880744,0.717288961,crawl
23/10/2020, 15:55:28,-7.1275783,-1.961521,2.3327491,-0.6821076,0.31497183,0.042309307,7.751880744,0.752507906,crawl
23/10/2020, 15:55:28,-7.1563187,-1.947151,2.3255641,-0.6821076,0.31497183,0.042309307,7.772550562,0.752507906,crawl
23/10/2020, 15:55:28,-7.1563187,-1.947151,2.3255641,-0.68821627,0.32230222,0.016652975,7.772550562,0.76013004,crawl
23/10/2020, 15:55:28,-7.237749,-1.8968556,2.2824538,-0.68821627,0.32230222,0.016652975,7.822574283,0.76013004,crawl
23/10/2020, 15:55:28,-7.237749,-1.8968556,2.2824538,-0.6845511,0.33207607,0.020318165,7.822574283,0.761116011,crawl
23/10/2020, 15:55:28,-7.194639,-1.6908839,2.2345533,-0.6845511,0.33207607,0.020318165,7.721084781,0.761116011,crawl
23/10/2020, 15:55:28,-7.194639,-1.6908839,2.2345533,-0.7175378,0.36384106,0.038644116,7.721084781,0.80544038,crawl
23/10/2020, 15:55:28,-7.055728,-1.3915064,2.186653,-0.7175378,0.36384106,0.038644116,7.516717241,0.80544038,crawl
23/10/2020, 15:55:28,-7.055728,-1.3915064,2.186653,-0.7737374,0.3943843,0.075296015,7.516717241,0.871709803,crawl
23/10/2020, 15:55:28,-7.082073,-1.4178516,2.1698878,-0.7737374,0.3943843,0.075296015,7.541516892,0.871709803,crawl
23/10/2020, 15:55:28,-7.082073,-1.4178516,2.1698878,-0.8103893,0.40782332,0.11561311,7.541516892,0.914558386,crawl
23/10/2020, 15:55:28,-7.1227884,-1.4920973,2.3878345,-0.8103893,0.40782332,0.11561311,7.659126782,0.914558386,crawl
23/10/2020, 15:55:28,-7.1227884,-1.4920973,2.3878345,-0.8128328,0.41393197,0.15959539,7.659126782,0.926016995,crawl
23/10/2020, 15:55:28,-7.2976246,-1.6669337,2.5530908,-0.8128328,0.41393197,0.15959539,7.908998997,0.926016995,crawl
23/10/2020, 15:55:28,-7.2976246,-1.6669337,2.5530908,-0.7908416,0.42126235,0.20846458,7.908998997,0.919972747,crawl
23/10/2020, 15:55:28,-7.4844365,-1.7962648,2.7375073,-0.7908416,0.42126235,0.20846458,8.169290267,0.919972747,crawl
23/10/2020, 15:55:28,-7.4844365,-1.7962648,2.7375073,-0.7627418,0.42614928,0.25611204,8.169290267,0.910478799,crawl
23/10/2020, 15:55:28,-7.6161623,-1.9112257,2.8141482,-0.7627418,0.42614928,0.25611204,8.341351317,0.910478799,crawl
23/10/2020, 15:55:28,-7.6161623,-1.9112257,2.8141482,-0.74319416,0.427371,0.29276395,8.341351317,0.905921774,crawl
23/10/2020, 15:55:28,-7.656878,-2.0237916,2.943479,-0.74319416,0.427371,0.29276395,8.449117223,0.905921774,crawl
23/10/2020, 15:55:28,-7.656878,-2.0237916,2.943479,-0.7260899,0.43225792,0.32208547,8.449117223,0.904318802,crawl
23/10/2020, 15:55:28,-7.719148,-2.1243825,3.1039455,-0.7260899,0.43225792,0.32208547,8.586776282,0.904318802,crawl
23/10/2020, 15:55:28,-7.719148,-2.1243825,3.1039455,-0.7102074,0.4395883,0.33430278,8.586776282,0.899661484,crawl
23/10/2020, 15:55:28,-7.7646537,-2.2273684,3.278782,-0.7102074,0.4395883,0.33430278,8.717879747,0.899661484,crawl
23/10/2020, 15:55:28,-7.7646537,-2.2273684,3.278782,-0.67111206,0.44936216,0.34041142,8.717879747,0.876468873,crawl
23/10/2020, 15:55:28,-7.8269243,-2.2944288,3.4991236,-0.67111206,0.44936216,0.34041142,8.875190916,0.876468873,crawl
23/10/2020, 15:55:29,-12.4541025,-3.5805542,4.1721244,-0.18119833,0.762125,3.5181313,13.61365712,3.60429118,crawl
23/10/2020, 15:55:29,-12.715159,-3.7146754,3.9829175,-0.18119833,0.762125,3.5181313,13.83248802,3.60429118,crawl
23/10/2020, 15:55:29,-12.715159,-3.7146754,3.9829175,-0.08834685,0.7425774,3.55967,13.83248802,3.637372215,crawl
23/10/2020, 15:55:29,-13.160633,-3.8440065,3.8440065,-0.08834685,0.7425774,3.55967,14.2392077,3.637372215,crawl
23/10/2020, 15:55:29,-13.160633,-3.8440065,3.8440065,0.027717505,0.7230297,3.569444,14.2392077,3.642042039,crawl
23/10/2020, 15:55:29,-13.665982,-3.894302,3.6236646,0.027717505,0.7230297,3.569444,14.66477423,3.642042039,crawl
23/10/2020, 15:55:29,-13.665982,-3.894302,3.6236646,0.14256014,0.7083689,3.5572267,14.66477423,3.629872089,crawl
23/10/2020, 15:55:29,-14.250367,-3.8368216,3.4799635,0.14256014,0.7083689,3.5572267,15.16259576,3.629872089,crawl
23/10/2020, 15:55:29,-14.250367,-3.8368216,3.4799635,0.22930296,0.690043,3.5315702,15.16259576,3.605652119,crawl
23/10/2020, 15:55:29,-14.813196,-3.8056862,3.3266823,0.22930296,0.690043,3.5315702,15.65186392,3.605652119,crawl
23/10/2020, 15:55:29,-14.813196,-3.8056862,3.3266823,0.30260676,0.658278,3.4888096,15.65186392,3.563241935,crawl
23/10/2020, 15:55:29,-15.371236,-3.8320315,3.151846,0.30260676,0.658278,3.4888096,16.15219767,3.563241935,crawl
23/10/2020, 15:55:29,-15.371236,-3.8320315,3.151846,0.36735845,0.61551744,3.4216146,16.15219767,3.49589198,crawl
23/10/2020, 15:55:29,-15.86461,-3.9972878,3.1614258,0.36735845,0.61551744,3.4216146,16.66309588,3.49589198,crawl
23/10/2020, 15:55:29,-15.86461,-3.9972878,3.1614258,0.44066226,0.5605396,3.3336499,16.66309588,3.40904816,crawl
23/10/2020, 15:55:29,-16.096928,-4.0691385,3.3147073,0.44066226,0.5605396,3.3336499,16.93092591,3.40904816,crawl
23/10/2020, 15:55:29,-16.096928,-4.0691385,3.3147073,0.5237399,0.48479232,3.2139204,16.93092591,3.292204596,crawl
23/10/2020, 15:55:29,-15.677798,-3.9972878,3.558999,0.5237399,0.48479232,3.2139204,16.56617464,3.292204596,crawl
23/10/2020, 15:55:29,-15.677798,-3.9972878,3.558999,0.5836047,0.3858322,3.0636477,16.56617464,3.142514667,crawl
23/10/2020, 15:55:29,-14.635965,-4.0667434,3.535049,0.5836047,0.3858322,3.0636477,15.5963603,3.142514667,crawl
23/10/2020, 15:55:29,-14.635965,-4.0667434,3.535049,0.62636524,0.27221128,2.8974924,15.5963603,2.976893458,crawl
23/10/2020, 15:55:29,-13.014537,-3.887117,3.2572267,0.62636524,0.27221128,2.8974924,13.96772613,2.976893458,crawl
23/10/2020, 15:55:29,-13.014537,-3.887117,3.2572267,0.63613904,0.14881657,2.6543682,13.96772613,2.733585481,crawl
23/10/2020, 15:55:29,-11.479329,-3.6212697,3.0177248,0.63613904,0.14881657,2.6543682,12.40948241,2.733585481,crawl
23/10/2020, 15:55:29,-11.479329,-3.6212697,3.0177248,0.62025654,0.04985644,2.378257,12.40948241,2.458314539,crawl
23/10/2020, 15:55:29,-9.915381,-3.2859669,2.6584718,0.62025654,0.04985644,2.378257,10.77867523,2.458314539,crawl
23/10/2020, 15:55:29,-9.915381,-3.2859669,2.6584718,0.5762743,-0.016116982,2.0764897,10.77867523,2.155031605,crawl
23/10/2020, 15:55:29,-8.48316,-3.1398706,2.2848487,0.5762743,-0.016116982,2.0764897,9.329701233,2.155031605,crawl
23/10/2020, 15:55:29,-8.48316,-3.1398706,2.2848487,0.48464453,-0.07109483,1.7295184,9.329701233,1.797545199,crawl
23/10/2020, 15:55:29,-7.2569094,-2.8572583,1.7483643,0.48464453,-0.07109483,1.7295184,7.992711464,1.797545199,crawl
23/10/2020, 15:55:30,-8.509504,-2.1722827,1.7124391,-1.621618,-1.3123726,-1.5068444,8.947788743,2.573430948,crawl
23/10/2020, 15:55:30,-8.289163,-2.1579127,1.6573536,-1.621618,-1.3123726,-1.5068444,8.724312331,2.573430948,crawl
23/10/2020, 15:55:30,-8.289163,-2.1579127,1.6573536,-1.5202144,-1.2683903,-1.4970706,8.724312331,2.482153525,crawl
23/10/2020, 15:55:30,-8.0305,-2.0621119,1.707649,-1.5202144,-1.2683903,-1.4970706,8.465063925,2.482153525,crawl
23/10/2020, 15:55:30,-8.0305,-2.0621119,1.707649,-1.4200326,-1.2366253,-1.4787446,8.465063925,2.394247372,crawl
23/10/2020, 15:55:30,-7.783814,-1.9423609,1.710044,-1.4200326,-1.2366253,-1.4787446,8.20272979,2.394247372,crawl
23/10/2020, 15:55:30,-7.783814,-1.9423609,1.710044,-1.3357333,-1.2073038,-1.4396492,8.20272979,2.305288637,crawl
23/10/2020, 15:55:30,-7.5299416,-1.7531544,1.7387843,-1.3357333,-1.2073038,-1.4396492,7.924452101,2.305288637,crawl
23/10/2020, 15:55:30,-7.5299416,-1.7531544,1.7387843,-1.2269993,-1.1816474,-1.3687888,7.924452101,2.185269034,crawl
23/10/2020, 15:55:30,-7.4125857,-1.6860938,1.6908839,-1.2269993,-1.1816474,-1.3687888,7.787710054,2.185269034,crawl
23/10/2020, 15:55:30,-7.4125857,-1.6860938,1.6908839,-1.1365913,-1.147439,-1.255168,7.787710054,2.045459042,crawl
23/10/2020, 15:55:30,-7.199429,-1.4489869,1.6190332,-1.1365913,-1.147439,-1.255168,7.52014694,2.045459042,crawl
23/10/2020, 15:55:30,-7.199429,-1.4489869,1.6190332,-1.0620657,-1.1120088,-1.1061169,7.52014694,1.894212703,crawl
23/10/2020, 15:55:30,-7.194639,-1.2837305,1.7028589,-1.0620657,-1.1120088,-1.1061169,7.504033971,1.894212703,crawl
23/10/2020, 15:55:30,-7.194639,-1.2837305,1.7028589,-0.9850967,-1.0826873,-0.92896605,7.504033971,1.733668108,crawl
23/10/2020, 15:55:30,-7.062913,-1.0801538,1.6717237,-0.9850967,-1.0826873,-0.92896605,7.337992348,1.733668108,crawl
23/10/2020, 15:55:30,-7.062913,-1.0801538,1.6717237,-0.9288971,-1.0497006,-0.74081963,7.337992348,1.585413166,crawl
23/10/2020, 15:55:30,-6.9096317,-0.9963282,1.5639478,-0.9288971,-1.0497006,-0.74081963,7.154132594,1.585413166,crawl
23/10/2020, 15:55:30,-6.9096317,-0.9963282,1.5639478,-0.9325623,-1.0044966,-0.5526732,7.154132594,1.477881418,crawl
23/10/2020, 15:55:30,-6.6605496,-0.8047266,1.3723463,-0.9325623,-1.0044966,-0.5526732,6.847907763,1.477881418,crawl
23/10/2020, 15:55:30,-6.6605496,-0.8047266,1.3723463,-0.9936488,-0.94707525,-0.34864432,6.847907763,1.416277648,crawl
23/10/2020, 15:55:30,-6.5216384,-0.7089258,1.21188,-0.9936488,-0.94707525,-0.34864432,6.6710566,1.416277648,crawl
23/10/2020, 15:55:30,-6.5216384,-0.7089258,1.21188,-1.1133784,-0.88476706,-0.14339367,6.6710566,1.429330599,crawl
23/10/2020, 15:55:30,-6.3803325,-0.61552006,1.1543995,-1.1133784,-0.88476706,-0.14339367,6.513074973,1.429330599,crawl
23/10/2020, 15:55:30,-6.3803325,-0.61552006,1.1543995,-1.2331079,-0.8041329,0.069187365,6.513074973,1.473761084,crawl
23/10/2020, 15:55:30,-6.351592,-0.69216067,1.2454102,-1.2331079,-0.8041329,0.069187365,6.509443502,1.473761084,crawl
23/10/2020, 15:55:30,-6.351592,-0.69216067,1.2454102,-1.323516,-0.71128136,0.30131605,6.509443502,1.532451359,crawl
23/10/2020, 15:55:30,-6.334827,-0.76880133,1.3268409,-1.323516,-0.71128136,0.30131605,6.517790626,1.532451359,crawl
23/10/2020, 15:55:30,-6.334827,-0.76880133,1.3268409,-1.3772721,-0.60987777,0.53588825,6.517790626,1.598751271,crawl
23/10/2020, 15:55:30,-6.4354177,-0.8933423,1.5495777,-1.3772721,-0.60987777,0.53588825,6.679360144,1.598751271,crawl
23/10/2020, 15:55:31,-11.179952,-1.4705421,5.0271463,0.5652787,-0.33132333,-0.033437956,12.34609305,0.656074128,crawl
23/10/2020, 15:55:31,-11.201507,-1.223855,5.046306,0.5652787,-0.33132333,-0.033437956,12.34652895,0.656074128,crawl
23/10/2020, 15:55:31,-11.201507,-1.223855,5.046306,0.3930148,-0.4034054,-0.11407214,12.34652895,0.57463814,crawl
23/10/2020, 15:55:31,-11.074571,-1.0059083,4.8331494,0.3930148,-0.4034054,-0.11407214,12.12506907,0.57463814,crawl
23/10/2020, 15:55:31,-11.074571,-1.0059083,4.8331494,0.1779903,-0.47060058,-0.18371075,12.12506907,0.535625886,crawl
23/10/2020, 15:55:31,-10.854229,-0.8095166,4.7157936,0.1779903,-0.47060058,-0.18371075,11.86205349,0.535625886,crawl
23/10/2020, 15:55:31,-10.854229,-0.8095166,4.7157936,-0.040699374,-0.5377957,-0.2509059,11.86205349,0.594839852,crawl
23/10/2020, 15:55:31,-10.538086,-0.728086,4.488267,-0.040699374,-0.5377957,-0.2509059,11.47719062,0.594839852,crawl
23/10/2020, 15:55:31,-10.538086,-0.728086,4.488267,-0.24595001,-0.59277356,-0.3107707,11.47719062,0.713057025,crawl
23/10/2020, 15:55:31,-10.293795,-0.8334668,4.3086405,-0.24595001,-0.59277356,-0.3107707,11.19023046,0.713057025,crawl
23/10/2020, 15:55:31,-10.293795,-0.8334668,4.3086405,-0.4035532,-0.6355341,-0.3559747,11.19023046,0.832752525,crawl
23/10/2020, 15:55:31,-10.317744,-1.101709,4.150569,-0.4035532,-0.6355341,-0.3559747,11.17572512,0.832752525,crawl
23/10/2020, 15:55:31,-10.317744,-1.101709,4.150569,-0.5110654,-0.6672991,-0.39995697,11.17572512,0.930828407,crawl
23/10/2020, 15:55:31,-10.746453,-1.463357,4.0116577,-0.5110654,-0.6672991,-0.39995697,11.56378266,0.930828407,crawl
23/10/2020, 15:55:31,-10.746453,-1.463357,4.0116577,-0.56848675,-0.6892902,-0.4414958,11.56378266,0.996602602,crawl
23/10/2020, 15:55:31,-11.2374325,-1.8226099,4.028423,-0.56848675,-0.6892902,-0.4414958,12.0760087,0.996602602,crawl
23/10/2020, 15:55:31,-11.2374325,-1.8226099,4.028423,-0.58803445,-0.7186118,-0.48547807,12.0760087,1.047795954,crawl
23/10/2020, 15:55:31,-11.697276,-2.2058132,4.1625443,-0.58803445,-0.7186118,-0.48547807,12.61025991,1.047795954,crawl
23/10/2020, 15:55:31,-11.697276,-2.2058132,4.1625443,-0.5709302,-0.7711462,-0.5319038,12.61025991,1.097063972,crawl
23/10/2020, 15:55:31,-11.946358,-2.555486,4.375701,-0.5709302,-0.7711462,-0.5319038,12.97662245,1.097063972,crawl
23/10/2020, 15:55:31,-11.946358,-2.555486,4.375701,-0.5293914,-0.8468934,-0.580773,12.97662245,1.155327234,crawl
23/10/2020, 15:55:31,-11.984678,-2.7255323,4.4691067,-0.5293914,-0.8468934,-0.580773,13.07799503,1.155327234,crawl
23/10/2020, 15:55:31,-11.984678,-2.7255323,4.4691067,-0.47441354,-0.9409666,-0.64308125,13.07799503,1.234520091,crawl
23/10/2020, 15:55:31,-11.764337,-2.8836036,4.495452,-0.47441354,-0.9409666,-0.64308125,12.9199022,1.234520091,crawl
23/10/2020, 15:55:31,-11.764337,-2.8836036,4.495452,-0.40721837,-1.0484788,-0.721272,12.9199022,1.336176622,crawl
23/10/2020, 15:55:31,-11.448194,-3.0057497,4.382886,-0.40721837,-1.0484788,-0.721272,12.62162256,1.336176622,crawl
23/10/2020, 15:55:31,-11.448194,-3.0057497,4.382886,-0.32047555,-1.1535476,-0.8238973,12.62162256,1.453335305,crawl
23/10/2020, 15:55:31,-11.187137,-3.1278956,4.0882983,-0.32047555,-1.1535476,-0.8238973,12.31462303,1.453335305,crawl
23/10/2020, 15:55:31,-11.187137,-3.1278956,4.0882983,-0.22151542,-1.2476208,-0.94851375,12.31462303,1.582815567,crawl
23/10/2020, 15:55:31,-10.873389,-3.0153298,3.7074904,-0.22151542,-1.2476208,-0.94851375,11.8772174,1.582815567,crawl
23/10/2020, 15:55:32,-7.3551054,-2.4141798,0.58677983,-2.6002238,-0.057655804,0.5554359,7.763385224,2.659510656,crawl
23/10/2020, 15:55:32,-7.4197707,-2.6776319,0.51013917,-2.6002238,-0.057655804,0.5554359,7.904615856,2.659510656,crawl
23/10/2020, 15:55:32,-7.4197707,-2.6776319,0.51013917,-2.6833014,-0.029556014,0.49679285,7.904615856,2.729062726,crawl
23/10/2020, 15:55:32,-7.479646,-2.8812087,0.46463382,-2.6833014,-0.029556014,0.49679285,8.028845203,2.729062726,crawl
23/10/2020, 15:55:32,-7.479646,-2.8812087,0.46463382,-2.7040708,0.018091459,0.44303674,8.028845203,2.740183895,crawl
23/10/2020, 15:55:32,-7.4988065,-3.0081446,0.39517823,-2.7040708,0.018091459,0.44303674,8.089326205,2.740183895,crawl
23/10/2020, 15:55:32,-7.4988065,-3.0081446,0.39517823,-2.6686406,0.097503915,0.40271965,8.089326205,2.700617124,crawl
23/10/2020, 15:55:32,-7.4676714,-3.06323,0.49337405,-2.6686406,0.097503915,0.40271965,8.08658842,2.700617124,crawl
23/10/2020, 15:55:32,-7.4676714,-3.06323,0.49337405,-2.5880065,0.19402058,0.3721764,8.08658842,2.621819386,crawl
23/10/2020, 15:55:32,-7.434141,-3.1255007,0.6825806,-2.5880065,0.19402058,0.3721764,8.093276563,2.621819386,crawl
23/10/2020, 15:55:32,-7.434141,-3.1255007,0.6825806,-2.4841595,0.29786763,0.3599591,8.093276563,2.527715163,crawl
23/10/2020, 15:55:32,-7.359895,-3.1087356,0.98914313,-2.4841595,0.29786763,0.3599591,8.050509221,2.527715163,crawl
23/10/2020, 15:55:32,-7.359895,-3.1087356,0.98914313,-2.368095,0.40171468,0.36240256,8.050509221,2.429111742,crawl
23/10/2020, 15:55:32,-7.4006104,-3.159031,1.4226416,-2.368095,0.40171468,0.36240256,8.171439318,2.429111742,crawl
23/10/2020, 15:55:32,-7.4006104,-3.159031,1.4226416,-2.2398133,0.49090096,0.36484602,8.171439318,2.321822585,crawl
23/10/2020, 15:55:32,-7.4820414,-3.182981,1.9327809,-2.2398133,0.49090096,0.36484602,8.357508773,2.321822585,crawl
23/10/2020, 15:55:32,-7.4820414,-3.182981,1.9327809,-2.105423,0.56298304,0.3599591,8.357508773,2.208919724,crawl
23/10/2020, 15:55:32,-7.719148,-3.288362,2.2848487,-2.105423,0.56298304,0.3599591,8.695924715,2.208919724,crawl
23/10/2020, 15:55:32,-7.719148,-3.288362,2.2848487,-1.9490417,0.61551744,0.35262874,8.695924715,2.074119665,crawl
23/10/2020, 15:55:32,-7.941885,-3.2428565,2.7854078,-1.9490417,0.61551744,0.35262874,9.019321043,2.074119665,crawl
23/10/2020, 15:55:32,-7.941885,-3.2428565,2.7854078,-1.767004,0.65216935,0.35751563,9.019321043,1.917145135,crawl
23/10/2020, 15:55:32,-8.111932,-3.027305,3.1853762,-1.767004,0.65216935,0.35751563,9.225759251,1.917145135,crawl
23/10/2020, 15:55:32,-8.111932,-3.027305,3.1853762,-1.5874096,0.6766039,0.38195026,9.225759251,1.767356258,crawl
23/10/2020, 15:55:32,-8.133487,-2.8285182,3.432063,-1.5874096,0.6766039,0.38195026,9.270015035,1.767356258,crawl
23/10/2020, 15:55:32,-8.133487,-2.8285182,3.432063,-1.413924,0.6937081,0.41493696,9.270015035,1.628675737,crawl
23/10/2020, 15:55:32,-8.131092,-2.5985963,3.7098854,-1.413924,0.6937081,0.41493696,9.307556638,1.628675737,crawl
23/10/2020, 15:55:32,-8.131092,-2.5985963,3.7098854,-1.2685381,0.7132558,0.44792366,9.307556638,1.522681329,crawl
23/10/2020, 15:55:32,-8.080796,-2.3638844,3.647615,-1.2685381,0.7132558,0.44792366,9.175636896,1.522681329,crawl
23/10/2020, 15:55:32,-8.080796,-2.3638844,3.647615,-1.1500303,0.73402524,0.47113654,9.175636896,1.443375308,crawl
23/10/2020, 15:55:32,-8.171807,-2.1818628,3.63564,-1.1500303,0.73402524,0.47113654,9.206347664,1.443375308,crawl
23/10/2020, 15:55:33,-9.491463,-2.0980372,3.0823903,-0.35712746,0.6790474,2.6348205,10.19758572,2.744252952,crawl
23/10/2020, 15:55:33,-9.7142,-2.1004322,2.9889846,-0.35712746,0.6790474,2.6348205,10.37841636,2.744252952,crawl
23/10/2020, 15:55:33,-9.7142,-2.1004322,2.9889846,-0.49518293,0.70226026,2.7667673,10.37841636,2.897132495,crawl
23/10/2020, 15:55:33,-10.332115,-2.1411476,2.7686427,-0.49518293,0.70226026,2.7667673,10.90882667,2.897132495,crawl
23/10/2020, 15:55:33,-10.332115,-2.1411476,2.7686427,-0.6454557,0.7132558,2.8913836,10.90882667,3.047203038,crawl
23/10/2020, 15:55:33,-11.218272,-2.2968237,2.5914114,-0.6454557,0.7132558,2.8913836,11.74054698,3.047203038,crawl
23/10/2020, 15:55:33,-11.218272,-2.2968237,2.5914114,-0.766407,0.7328035,3.017222,11.74054698,3.198125838,crawl
23/10/2020, 15:55:33,-12.281661,-2.4620802,2.4189699,-0.766407,0.7328035,3.017222,12.75744693,3.198125838,crawl
23/10/2020, 15:55:33,-12.281661,-2.4620802,2.4189699,-0.8665889,0.76701194,3.1491687,12.75744693,3.35507784,crawl
23/10/2020, 15:55:33,-13.457615,-2.6225464,2.2585034,-0.8665889,0.76701194,3.1491687,13.89553836,3.35507784,crawl
23/10/2020, 15:55:33,-13.457615,-2.6225464,2.2585034,-0.9460013,0.80366385,3.2786722,13.89553836,3.505778878,crawl
23/10/2020, 15:55:33,-13.457615,-2.6225464,2.2585034,-1.0437398,0.8293202,3.400845,13.89553836,3.652795067,crawl
23/10/2020, 15:55:33,-14.516214,-2.7279274,2.2273684,-1.0437398,0.8293202,3.400845,14.93731025,3.652795067,crawl
23/10/2020, 15:55:33,-15.32573,-2.8692336,2.2345533,-1.0437398,0.8293202,3.400845,15.75130915,3.652795067,crawl
23/10/2020, 15:55:33,-15.32573,-2.8692336,2.2345533,-1.1720214,0.8317636,3.504692,15.75130915,3.787919142,crawl
23/10/2020, 15:55:33,-15.78797,-3.0105398,2.3638844,-1.1720214,0.8317636,3.504692,16.24534651,3.787919142,crawl
23/10/2020, 15:55:33,-15.78797,-3.0105398,2.3638844,-1.3259594,0.80610734,3.577996,16.24534651,3.900004228,crawl
23/10/2020, 15:55:33,-15.677798,-3.166216,2.6441016,-1.3259594,0.80610734,3.577996,16.21140201,3.900004228,crawl
23/10/2020, 15:55:33,-15.677798,-3.166216,2.6441016,-1.477454,0.7633468,3.6170914,16.21140201,3.981070058,crawl
23/10/2020, 15:55:33,-15.146104,-3.412903,3.0704153,-1.477454,0.7633468,3.6170914,15.82655425,3.981070058,crawl
23/10/2020, 15:55:33,-15.146104,-3.412903,3.0704153,-1.589853,0.7108124,3.6024306,15.82655425,4.001298923,crawl
23/10/2020, 15:55:33,-14.408438,-3.6236646,3.4919386,-1.589853,0.7108124,3.6024306,15.2619677,4.001298923,crawl
23/10/2020, 15:55:33,-14.408438,-3.6236646,3.4919386,-1.653383,0.64850414,3.5181313,15.2619677,3.940999943,crawl
23/10/2020, 15:55:33,-13.673167,-3.8128712,3.8320315,-1.653383,0.64850414,3.5181313,14.70299134,3.940999943,crawl
23/10/2020, 15:55:33,-13.673167,-3.8128712,3.8320315,-1.6387223,0.5752003,3.3751888,14.70299134,3.795808979,crawl
23/10/2020, 15:55:33,-13.069622,-3.9469924,4.2152348,-1.6387223,0.5752003,3.3751888,14.28852593,3.795808979,crawl
23/10/2020, 15:55:33,-13.069622,-3.9469924,4.2152348,-1.5446491,0.50189656,3.1992598,14.28852593,3.587910823,crawl
23/10/2020, 15:55:33,-12.248131,-4.0667434,4.24158,-1.5446491,0.50189656,3.1992598,13.58477496,3.587910823,crawl
23/10/2020, 15:55:33,-12.248131,-4.0667434,4.24158,-1.4102588,0.42614928,2.9964526,13.58477496,3.33903594,crawl
23/10/2020, 15:55:33,-11.187137,-3.8559816,4.0044727,-1.4102588,0.42614928,2.9964526,12.49225449,3.33903594,crawl
23/10/2020, 15:55:34,-9.848321,-1.8824854,1.2789404,-1.5055537,-1.7436433,-1.648565,10.10786158,2.832799084,crawl
23/10/2020, 15:55:34,-9.601634,-1.8729054,1.2525953,-1.5055537,-1.7436433,-1.648565,9.862461432,2.832799084,crawl
23/10/2020, 15:55:34,-9.601634,-1.8729054,1.2525953,-1.6472744,-1.6959958,-1.7182037,9.862461432,2.922693702,crawl
23/10/2020, 15:55:34,-9.436378,-1.8824854,1.2286451,-1.6472744,-1.6959958,-1.7182037,9.700440237,2.922693702,crawl
23/10/2020, 15:55:34,-9.436378,-1.8824854,1.2286451,-1.7462345,-1.6312441,-1.7780684,9.700440237,2.978559982,crawl
23/10/2020, 15:55:34,-9.137,-1.9687061,1.1304493,-1.7462345,-1.6312441,-1.7780684,9.414801643,2.978559982,crawl
23/10/2020, 15:55:34,-9.137,-1.9687061,1.1304493,-1.8134297,-1.5518316,-1.8428202,9.414801643,3.015409561,crawl
23/10/2020, 15:55:34,-8.873548,-1.9902613,1.0825489,-1.8134297,-1.5518316,-1.8428202,9.1582148,3.015409561,crawl
23/10/2020, 15:55:34,-8.873548,-1.9902613,1.0825489,-1.8427513,-1.4724191,-1.9124588,9.1582148,3.03665094,crawl
23/10/2020, 15:55:34,-8.58854,-2.0573218,1.0250684,-1.8427513,-1.4724191,-1.9124588,8.890801922,3.03665094,crawl
23/10/2020, 15:55:34,-8.58854,-2.0573218,1.0250684,-1.8451947,-1.3759025,-1.9759887,8.890801922,3.033542941,crawl
23/10/2020, 15:55:34,-8.49274,-2.186653,0.9508228,-1.8451947,-1.3759025,-1.9759887,8.821119094,3.033542941,crawl
23/10/2020, 15:55:34,-8.49274,-2.186653,0.9508228,-1.8097645,-1.2647251,-2.03341,8.821119094,3.001588519,crawl
23/10/2020, 15:55:34,-8.435259,-2.3064039,0.9532178,-1.8097645,-1.2647251,-2.03341,8.796687737,3.001588519,crawl
23/10/2020, 15:55:34,-8.435259,-2.3064039,0.9532178,-1.730352,-1.147439,-2.0737271,8.796687737,2.93446395,crawl
23/10/2020, 15:55:34,-8.368198,-2.5147705,0.92926764,-1.730352,-1.147439,-2.0737271,8.78716982,2.93446395,crawl
23/10/2020, 15:55:34,-8.368198,-2.5147705,0.92926764,-1.6045139,-1.0374833,-2.09694,8.78716982,2.83689866,crawl
23/10/2020, 15:55:34,-8.140672,-2.5698562,0.9915381,-1.6045139,-1.0374833,-2.09694,8.594058689,2.83689866,crawl
23/10/2020, 15:55:34,-8.140672,-2.5698562,0.9915381,-1.4236978,-0.92141896,-2.105492,8.594058689,2.703520938,crawl
23/10/2020, 15:55:34,-8.064031,-2.6704469,1.1328443,-1.4236978,-0.92141896,-2.105492,8.569901578,2.703520938,crawl
23/10/2020, 15:55:34,-8.064031,-2.6704469,1.1328443,-1.2123386,-0.81268495,-2.0932748,8.569901578,2.55186621,crawl
23/10/2020, 15:55:34,-7.9466753,-2.7111623,1.3603711,-1.2123386,-0.81268495,-2.0932748,8.505919061,2.55186621,crawl
23/10/2020, 15:55:34,-7.9466753,-2.7111623,1.3603711,-0.9850967,-0.7210552,-2.0480707,8.505919061,2.384309035,crawl
23/10/2020, 15:55:34,-7.8341093,-2.7279274,1.6190332,-0.9850967,-0.7210552,-2.0480707,8.451989431,2.384309035,crawl
23/10/2020, 15:55:34,-7.8341093,-2.7279274,1.6190332,-0.7407507,-0.66241217,-1.9698801,8.451989431,2.206338383,crawl
23/10/2020, 15:55:34,-7.7071733,-2.6393116,1.9758912,-0.7407507,-0.66241217,-1.9698801,8.382758057,2.206338383,crawl
23/10/2020, 15:55:34,-7.7071733,-2.6393116,1.9758912,-0.522061,-0.62453854,-1.8733634,8.382758057,2.04256858,crawl
23/10/2020, 15:55:34,-7.592212,-2.4932153,1.9854712,-0.522061,-0.62453854,-1.8733634,8.23406976,2.04256858,crawl
23/10/2020, 15:55:34,-7.592212,-2.4932153,1.9854712,-0.36690128,-0.6013257,-1.7487469,8.23406976,1.88529169,crawl
23/10/2020, 15:55:34,-7.551497,-2.3495142,2.0405567,-0.36690128,-0.6013257,-1.7487469,8.167569736,1.88529169,crawl
23/10/2020, 15:55:35,-10.071057,0,3.9182522,-0.29970613,0.1744729,0.4332629,10.80642846,0.554960639,crawl
23/10/2020, 15:55:35,-9.764495,-0.20357667,3.8823268,-0.29970613,0.1744729,0.4332629,10.50996031,0.554960639,crawl
23/10/2020, 15:55:35,-9.764495,-0.20357667,3.8823268,-0.19463736,0.15126003,0.44670194,10.50996031,0.510201848,crawl
23/10/2020, 15:55:35,-9.577683,-0.32572266,3.9182522,-0.19463736,0.15126003,0.44670194,10.35329977,0.510201848,crawl
23/10/2020, 15:55:35,-9.577683,-0.32572266,3.9182522,-0.08834685,0.13537754,0.4528106,10.35329977,0.480801071,crawl
23/10/2020, 15:55:35,-9.484278,-0.5245093,3.9493873,-0.08834685,0.13537754,0.4528106,10.28709357,0.480801071,crawl
23/10/2020, 15:55:35,-9.484278,-0.5245093,3.9493873,-0.006490936,0.12316024,0.45036712,10.28709357,0.466948737,crawl
23/10/2020, 15:55:35,-9.541759,-0.66342044,3.9350173,-0.006490936,0.12316024,0.45036712,10.34261303,0.466948737,crawl
23/10/2020, 15:55:35,-9.541759,-0.66342044,3.9350173,-3.82E-04,0.10972121,0.4540323,10.34261303,0.46710194,crawl
23/10/2020, 15:55:35,-9.438772,-0.6011499,4.033213,-3.82E-04,0.10972121,0.4540323,10.28195556,0.46710194,crawl
23/10/2020, 15:55:35,-9.438772,-0.6011499,4.033213,-0.061468784,0.09383872,0.46869308,10.28195556,0.481930823,crawl
23/10/2020, 15:55:35,-9.311836,-0.6586304,4.164939,-0.061468784,0.09383872,0.46869308,10.22207437,0.481930823,crawl
23/10/2020, 15:55:35,-9.311836,-0.6586304,4.164939,-0.18486351,0.076734506,0.48824075,10.22207437,0.527675781,crawl
23/10/2020, 15:55:35,-9.275911,-0.9316626,4.3349857,-0.18486351,0.076734506,0.48824075,10.28117832,0.527675781,crawl
23/10/2020, 15:55:35,-9.275911,-0.9316626,4.3349857,-0.2862671,0.027865298,0.5090102,10.28117832,0.584650928,crawl
23/10/2020, 15:55:35,-9.24717,-1.4226416,4.380491,-0.2862671,0.027865298,0.5090102,10.33067132,0.584650928,crawl
23/10/2020, 15:55:35,-9.24717,-1.4226416,4.380491,-0.3388015,-0.023447363,0.5224492,10.33067132,0.623128718,crawl
23/10/2020, 15:55:35,-9.410032,-1.9639161,4.409231,-0.3388015,-0.023447363,0.5224492,10.57577389,0.623128718,crawl
23/10/2020, 15:55:35,-9.410032,-1.9639161,4.409231,-0.354684,-0.061320994,0.5248926,10.57577389,0.636453668,crawl
23/10/2020, 15:55:35,-9.829161,-2.4932153,4.4475513,-0.354684,-0.061320994,0.5248926,11.07290543,0.636453668,crawl
23/10/2020, 15:55:35,-9.829161,-2.4932153,4.4475513,-0.3265842,-0.09552943,0.52000576,11.07290543,0.621441146,crawl
23/10/2020, 15:55:35,-10.545272,-2.9770093,4.3637257,-0.3265842,-0.09552943,0.52000576,11.79438192,0.621441146,crawl
23/10/2020, 15:55:35,-10.545272,-2.9770093,4.3637257,-0.27404982,-0.1346248,0.5016798,11.79438192,0.587290165,crawl
23/10/2020, 15:55:35,-11.211087,-3.3721876,4.368516,-0.27404982,-0.1346248,0.5016798,12.4957616,0.587290165,crawl
23/10/2020, 15:55:35,-11.211087,-3.3721876,4.368516,-0.19463736,-0.17738535,0.47358,12.4957616,0.541873861,crawl
23/10/2020, 15:55:35,-11.718831,-3.786526,4.3469605,-0.19463736,-0.17738535,0.47358,13.06004772,0.541873861,crawl
23/10/2020, 15:55:35,-11.718831,-3.786526,4.3469605,-0.060247052,-0.21525897,0.4332629,13.06004772,0.487527317,crawl
23/10/2020, 15:55:35,-12.145144,-4.2152348,4.4475513,-0.060247052,-0.21525897,0.4332629,13.60343524,0.487527317,crawl
23/10/2020, 15:55:35,-12.145144,-4.2152348,4.4475513,0.14744705,-0.25679782,0.37339813,13.60343524,0.476562601,crawl
23/10/2020, 15:55:35,-12.638518,-4.528982,4.648733,0.14744705,-0.25679782,0.37339813,14.20755239,0.476562601,crawl
23/10/2020, 15:55:36,-9.062755,-2.2537134,1.5352076,-1.8757379,0.19157712,0.7509127,9.464122142,2.029523197,crawl
23/10/2020, 15:55:36,-9.062755,-2.2537134,1.5352076,-1.9820285,0.18180329,0.7057087,9.464122142,2.111756163,crawl
23/10/2020, 15:55:36,-8.8879175,-2.440525,1.5399976,-1.9820285,0.18180329,0.7057087,9.344668689,2.111756163,crawl
23/10/2020, 15:55:36,-8.8879175,-2.440525,1.5399976,-2.0272324,0.17935982,0.659283,9.344668689,2.139274465,crawl
23/10/2020, 15:55:36,-8.523875,-2.5099807,1.590293,-2.0272324,0.17935982,0.659283,9.026931042,2.139274465,crawl
23/10/2020, 15:55:36,-8.523875,-2.5099807,1.590293,-2.0577755,0.18913366,0.61407894,9.026931042,2.155760766,crawl
23/10/2020, 15:55:36,-8.260423,-2.43813,1.5711329,-2.0577755,0.18913366,0.61407894,8.754856897,2.155760766,crawl
23/10/2020, 15:55:36,-8.260423,-2.43813,1.5711329,-2.0663278,0.19157712,0.5798705,8.754856897,2.15468379,crawl
23/10/2020, 15:55:36,-8.164622,-2.4572902,1.7771046,-2.0663278,0.19157712,0.5798705,8.709617283,2.15468379,crawl
23/10/2020, 15:55:36,-8.164622,-2.4572902,1.7771046,-2.0492234,0.18180329,0.54566205,8.709617283,2.128406949,crawl
23/10/2020, 15:55:36,-8.064031,-2.3686745,1.8274,-2.0492234,0.18180329,0.54566205,8.601081321,2.128406949,crawl
23/10/2020, 15:55:36,-8.064031,-2.3686745,1.8274,-2.04678,0.17202945,0.5065667,8.601081321,2.115540776,crawl
23/10/2020, 15:55:36,-7.9826,-2.2776637,1.8513502,-2.04678,0.17202945,0.5065667,8.505125257,2.115540776,crawl
23/10/2020, 15:55:36,-7.9826,-2.2776637,1.8513502,-2.0565538,0.18180329,0.47724518,8.505125257,2.119016068,crawl
23/10/2020, 15:55:36,-7.790999,-2.1722827,1.8705103,-2.0565538,0.18180329,0.47724518,8.30164354,2.119016068,crawl
23/10/2020, 15:55:36,-7.790999,-2.1722827,1.8705103,-2.0528886,0.19890751,0.44792366,8.30164354,2.110580853,crawl
23/10/2020, 15:55:36,-7.606582,-2.1674929,1.7435743,-2.0528886,0.19890751,0.44792366,8.099269644,2.110580853,crawl
23/10/2020, 15:55:36,-7.606582,-2.1674929,1.7435743,-2.043115,0.22456384,0.42715424,8.099269644,2.099335171,crawl
23/10/2020, 15:55:36,-7.462881,-2.1698878,1.7244141,-2.043115,0.22456384,0.42715424,7.960942855,2.099335171,crawl
23/10/2020, 15:55:36,-7.462881,-2.1698878,1.7244141,-2.0125716,0.25755054,0.42348906,7.960942855,2.072708278,crawl
23/10/2020, 15:55:36,-7.4676714,-2.1507277,1.81782,-2.0125716,0.25755054,0.42348906,7.980990871,2.072708278,crawl
23/10/2020, 15:55:36,-7.4676714,-2.1507277,1.81782,-1.9637024,0.29053724,0.4295977,7.980990871,2.031032582,crawl
23/10/2020, 15:55:36,-7.4940166,-2.179468,2.0190015,-1.9637024,0.29053724,0.4295977,8.061434916,2.031032582,crawl
23/10/2020, 15:55:36,-7.4940166,-2.179468,2.0190015,-1.8989508,0.31863704,0.44670194,8.061434916,1.976635118,crawl
23/10/2020, 15:55:36,-7.680828,-2.1698878,2.2920337,-1.8989508,0.31863704,0.44670194,8.304032247,1.976635118,crawl
23/10/2020, 15:55:36,-7.680828,-2.1698878,2.2920337,-1.8207601,0.3332978,0.4699148,8.304032247,1.9097316,crawl
23/10/2020, 15:55:36,-7.8341093,-2.1770728,2.5147705,-1.8207601,0.3332978,0.4699148,8.510992019,1.9097316,crawl
23/10/2020, 15:55:36,-7.8341093,-2.1770728,2.5147705,-1.7340173,0.34307164,0.4906842,8.510992019,1.834471308,crawl
23/10/2020, 15:55:36,-7.9802055,-2.1818628,2.672842,-1.7340173,0.34307164,0.4906842,8.69415265,1.834471308,crawl
23/10/2020, 15:55:36,-7.9802055,-2.1818628,2.672842,-1.6558266,0.34673682,0.51511884,8.69415265,1.768427398,crawl
23/10/2020, 15:55:37,-9.867481,-3.4248781,4.5601172,-1.0681744,0.41271025,2.9732397,11.39700159,3.186138775,crawl
23/10/2020, 15:55:37,-10.676997,-3.5901344,4.8834453,-1.0681744,0.41271025,2.9732397,12.27743342,3.186138775,crawl
23/10/2020, 15:55:37,-10.676997,-3.5901344,4.8834453,-0.82260656,0.4151537,3.161386,12.27743342,3.292931169,crawl
23/10/2020, 15:55:37,-11.512859,-3.7242556,4.9864306,-0.82260656,0.4151537,3.161386,13.08741764,3.292931169,crawl
23/10/2020, 15:55:37,-11.512859,-3.7242556,4.9864306,-0.5868127,0.40782332,3.320211,13.08741764,3.396243458,crawl
23/10/2020, 15:55:37,-11.989469,-3.8775368,5.0822315,-0.5868127,0.40782332,3.320211,13.58718975,3.396243458,crawl
23/10/2020, 15:55:37,-11.989469,-3.8775368,5.0822315,-0.35957092,0.39682776,3.4289448,13.58718975,3.470508052,crawl
23/10/2020, 15:55:37,-12.17628,-4.026028,5.0343313,-0.35957092,0.39682776,3.4289448,13.77734335,3.470508052,crawl
23/10/2020, 15:55:37,-12.17628,-4.026028,5.0343313,-0.17142448,0.38461044,3.4985836,13.77734335,3.523832919,crawl
23/10/2020, 15:55:37,-12.240946,-4.0116577,4.9073954,-0.17142448,0.38461044,3.4985836,13.78465383,3.523832919,crawl
23/10/2020, 15:55:37,-12.240946,-4.0116577,4.9073954,-0.010156126,0.3662845,3.5303485,13.78465383,3.549313776,crawl
23/10/2020, 15:55:37,-12.250525,-4.006868,4.727769,-0.010156126,0.3662845,3.5303485,13.72888063,3.549313776,crawl
23/10/2020, 15:55:37,-12.250525,-4.006868,4.727769,0.13889495,0.35162374,3.5315702,13.72888063,3.55174874,crawl
23/10/2020, 15:55:37,-12.379856,-3.9781277,4.495452,0.13889495,0.35162374,3.5315702,13.75846741,3.55174874,crawl
23/10/2020, 15:55:37,-12.379856,-3.9781277,4.495452,0.29405466,0.34307164,3.5083573,13.75846741,3.537334751,crawl
23/10/2020, 15:55:37,-12.561878,-3.9972878,4.29427,0.29405466,0.34307164,3.5083573,13.86433729,3.537334751,crawl
23/10/2020, 15:55:37,-12.561878,-3.9972878,4.29427,0.47609243,0.33940643,3.4607098,13.86433729,3.509753997,crawl
23/10/2020, 15:55:37,-12.693604,-3.9014869,4.0882983,0.47609243,0.33940643,3.4607098,13.89472481,3.509753997,crawl
23/10/2020, 15:55:37,-12.693604,-3.9014869,4.0882983,0.6495781,0.33085433,3.3800757,13.89472481,3.457792356,crawl
23/10/2020, 15:55:37,-12.854071,-3.8104763,3.9278321,0.6495781,0.33085433,3.3800757,13.97049489,3.457792356,crawl
23/10/2020, 15:55:37,-12.854071,-3.8104763,3.9278321,0.80962473,0.32474568,3.2823374,13.97049489,3.396276042,crawl
23/10/2020, 15:55:37,-12.84449,-3.6068995,3.7985013,0.80962473,0.32474568,3.2823374,13.87152697,3.396276042,crawl
23/10/2020, 15:55:37,-12.84449,-3.6068995,3.7985013,0.9427933,0.31985876,3.1662729,13.87152697,3.319104215,crawl
23/10/2020, 15:55:37,-12.827725,-3.4967287,3.7386258,0.9427933,0.31985876,3.1662729,13.81140736,3.319104215,crawl
23/10/2020, 15:55:37,-12.827725,-3.4967287,3.7386258,1.0454186,0.3088632,3.0196655,13.81140736,3.210401248,crawl
23/10/2020, 15:55:37,-13.012141,-3.412903,3.5949244,1.0454186,0.3088632,3.0196655,13.92433871,3.210401248,crawl
23/10/2020, 15:55:37,-13.012141,-3.412903,3.5949244,1.1468221,0.2929807,2.8559535,13.92433871,3.091522076,crawl
23/10/2020, 15:55:37,-13.323494,-3.4248781,3.5015187,1.1468221,0.2929807,2.8559535,14.1952779,3.091522076,crawl
23/10/2020, 15:55:37,-13.323494,-3.4248781,3.5015187,1.2286781,0.28809378,2.7007937,14.1952779,2.981096234,crawl
23/10/2020, 15:55:37,-13.438456,-3.4057178,3.3434474,1.2286781,0.28809378,2.7007937,14.26077289,2.981096234,crawl
23/10/2020, 15:55:38,-11.54639,-1.5184424,1.4897022,0.44310573,-1.3306985,-1.8183855,11.74069812,2.296437876,crawl
23/10/2020, 15:55:38,-11.764337,-1.3986914,1.468147,0.44310573,-1.3306985,-1.8183855,11.93781424,2.296437876,crawl
23/10/2020, 15:55:38,-11.764337,-1.3986914,1.468147,0.2146422,-1.3526896,-1.7719598,11.93781424,2.239571825,crawl
23/10/2020, 15:55:38,-11.678116,-1.5974782,1.9950514,0.2146422,-1.3526896,-1.7719598,11.95452032,2.239571825,crawl
23/10/2020, 15:55:38,-11.678116,-1.5974782,1.9950514,0.053373836,-1.3807894,-1.7768468,11.95452032,2.250913717,crawl
23/10/2020, 15:55:38,-11.484119,-1.5926881,1.6405884,0.053373836,-1.3807894,-1.7768468,11.70953391,2.250913717,crawl
23/10/2020, 15:55:38,-11.484119,-1.5926881,1.6405884,-0.18975043,-1.4027805,-1.7414166,11.70953391,2.244176939,crawl
23/10/2020, 15:55:38,-10.837463,-1.3939015,1.7531544,-0.18975043,-1.4027805,-1.7414166,11.06648653,2.244176939,crawl
23/10/2020, 15:55:38,-10.837463,-1.3939015,1.7531544,-0.45364413,-1.4333239,-1.7401948,11.06648653,2.299671328,crawl
23/10/2020, 15:55:38,-10.360855,-1.4274317,1.710044,-0.45364413,-1.4333239,-1.7401948,10.59760021,2.299671328,crawl
23/10/2020, 15:55:38,-10.360855,-1.4274317,1.710044,-0.73830724,-1.4528716,-1.7499686,10.59760021,2.391301658,crawl
23/10/2020, 15:55:38,-9.82437,-1.5543678,1.6573536,-0.73830724,-1.4528716,-1.7499686,10.08370635,2.391301658,crawl
23/10/2020, 15:55:38,-9.82437,-1.5543678,1.6573536,-1.0180835,-1.4602019,-1.7719598,10.08370635,2.511677697,crawl
23/10/2020, 15:55:38,-9.364527,-1.6693287,1.6190332,-1.0180835,-1.4602019,-1.7719598,9.648952692,2.511677697,crawl
23/10/2020, 15:55:38,-9.364527,-1.6693287,1.6190332,-1.2502122,-1.4565367,-1.8061682,9.648952692,2.635673178,crawl
23/10/2020, 15:55:38,-9.017249,-1.7651294,1.7148341,-1.2502122,-1.4565367,-1.8061682,9.347038001,2.635673178,crawl
23/10/2020, 15:55:38,-9.017249,-1.7651294,1.7148341,-1.4395803,-1.4443194,-1.8550375,9.347038001,2.756739719,crawl
23/10/2020, 15:55:38,-8.868757,-1.8609302,1.8130299,-1.4395803,-1.4443194,-1.8550375,9.241482225,2.756739719,crawl
23/10/2020, 15:55:38,-8.868757,-1.8609302,1.8130299,-1.5922966,-1.4296587,-1.897798,9.241482225,2.860239387,crawl
23/10/2020, 15:55:38,-8.701106,-1.8681153,1.9351759,-1.5922966,-1.4296587,-1.897798,9.107360068,2.860239387,crawl
23/10/2020, 15:55:38,-8.701106,-1.8681153,1.9351759,-1.6912566,-1.4198848,-1.9295629,9.107360068,2.932513421,crawl
23/10/2020, 15:55:38,-8.552615,-1.8250049,2.090852,-1.6912566,-1.4198848,-1.9295629,8.991636746,2.932513421,crawl
23/10/2020, 15:55:38,-8.552615,-1.8250049,2.090852,-1.7608953,-1.4064457,-1.9442238,8.991636746,2.976381654,crawl
23/10/2020, 15:55:38,-8.327483,-1.7914747,2.1124072,-1.7608953,-1.4064457,-1.9442238,8.776025403,2.976381654,crawl
23/10/2020, 15:55:38,-8.327483,-1.7914747,2.1124072,-1.8109863,-1.3881198,-1.9381151,8.776025403,2.993799952,crawl
23/10/2020, 15:55:38,-8.217313,-1.7579445,2.074087,-1.8109863,-1.3881198,-1.9381151,8.655428071,2.993799952,crawl
23/10/2020, 15:55:38,-8.217313,-1.7579445,2.074087,-1.8060993,-1.3697939,-1.9185674,8.655428071,2.969718996,crawl
23/10/2020, 15:55:38,-8.061636,-1.9064356,2.2297633,-1.8060993,-1.3697939,-1.9185674,8.578829495,2.969718996,crawl
23/10/2020, 15:55:38,-8.061636,-1.9064356,2.2297633,-1.7389041,-1.3404723,-1.8733634,8.578829495,2.886198879,crawl
23/10/2020, 15:55:38,-7.9227247,-1.9806812,2.2225783,-1.7389041,-1.3404723,-1.8733634,8.463599662,2.886198879,crawl
23/10/2020, 15:56:00,-7.414981,-2.320774,2.2848487,-1.1084914,-1.0594745,-1.3492413,8.09867072,2.042471872,crawl
23/10/2020, 15:56:00,-7.414981,-2.320774,2.2848487,-0.9130146,-0.97884023,-1.1989684,8.09867072,1.797011155,crawl
23/10/2020, 15:56:00,-7.2976246,-2.1411476,2.1818628,-0.9130146,-0.97884023,-1.1989684,7.912039127,1.797011155,crawl
23/10/2020, 15:56:00,-7.2976246,-2.1411476,2.1818628,-0.75907665,-0.9067582,-1.0401435,7.912039127,1.57489881,crawl
23/10/2020, 15:56:00,-7.0293827,-1.8010547,2.078877,-0.75907665,-0.9067582,-1.0401435,7.548360668,1.57489881,crawl
23/10/2020, 15:56:00,-7.0293827,-1.8010547,2.078877,-0.6686686,-0.82978916,-0.86421436,7.548360668,1.372054754,crawl
23/10/2020, 15:56:00,-6.8186207,-1.5807129,2.088457,-0.6686686,-0.82978916,-0.86421436,7.304375018,1.372054754,crawl
23/10/2020, 15:56:00,-6.8186207,-1.5807129,2.088457,-0.6234646,-0.7418246,-0.6699593,7.304375018,1.178073571,crawl
23/10/2020, 15:56:00,-6.6365995,-1.3651612,2.2225783,-0.6234646,-0.7418246,-0.6699593,7.130776448,1.178073571,crawl
23/10/2020, 15:56:00,-6.6365995,-1.3651612,2.2225783,-0.62102115,-0.65752524,-0.47081733,7.130776448,1.019644874,crawl
23/10/2020, 15:56:00,-6.662945,-1.1328443,2.4189699,-0.62102115,-0.65752524,-0.47081733,7.178411024,1.019644874,crawl
23/10/2020, 15:56:00,-6.662945,-1.1328443,2.4189699,-0.63812536,-0.5829997,-0.24357553,7.178411024,0.898009839,crawl
23/10/2020, 15:56:00,-6.706055,-0.92208254,2.5938063,-0.63812536,-0.5829997,-0.24357553,7.249085669,0.898009839,crawl
23/10/2020, 15:56:00,-6.706055,-0.92208254,2.5938063,-0.6601165,-0.50603074,-0.005338166,7.249085669,0.831774843,crawl
23/10/2020, 15:56:00,-6.6461797,-0.8334668,2.7015822,-0.6601165,-0.50603074,-0.005338166,7.222528476,0.831774843,crawl
23/10/2020, 15:56:00,-6.6461797,-0.8334668,2.7015822,-0.70287704,-0.41684443,0.22312534,7.222528476,0.847101135,crawl
23/10/2020, 15:56:00,-6.6198344,-0.82388675,2.8404932,-0.70287704,-0.41684443,0.22312534,7.250475764,0.847101135,crawl
23/10/2020, 15:56:00,-6.6198344,-0.82388675,2.8404932,-0.7505245,-0.31544086,0.43081945,7.250475764,0.921083815,crawl
23/10/2020, 15:56:00,-6.6916847,-0.9508228,3.051255,-0.7505245,-0.31544086,0.43081945,7.415717455,0.921083815,crawl
23/10/2020, 15:56:00,-6.6916847,-0.9508228,3.051255,-0.7945068,-0.21892416,0.6226311,7.415717455,1.032878637,crawl
23/10/2020, 15:56:00,-6.962322,-1.1424243,3.3099172,-0.7945068,-0.21892416,0.6226311,7.793241703,1.032878637,crawl
23/10/2020, 15:56:00,-6.962322,-1.1424243,3.3099172,-0.8274935,-0.121185765,0.8107775,7.793241703,1.164813974,crawl
23/10/2020, 15:56:00,-6.962322,-1.1424243,3.3099172,-0.11033799,0.6998168,1.1027709,7.793241703,1.310733295,crawl
23/10/2020, 15:56:00,-6.962322,-1.1424243,3.3099172,-0.048029754,0.6790474,1.161414,7.793241703,1.346214983,crawl
23/10/2020, 15:56:00,-6.962322,-1.1424243,3.3099172,0.032604426,0.68149084,1.2115049,7.793241703,1.390408941,crawl
23/10/2020, 15:56:00,-6.962322,-1.1424243,3.3099172,0.14011668,0.6998168,1.2347178,7.793241703,1.426150212,crawl
23/10/2020, 15:56:00,-6.962322,-1.1424243,3.3099172,0.2671766,0.71447754,1.2371613,7.793241703,1.453419939,crawl
23/10/2020, 15:56:00,-6.962322,-1.1424243,3.3099172,0.42722324,0.70470375,1.2225004,7.793241703,1.474325066,crawl
23/10/2020, 15:56:00,-6.962322,-1.1424243,3.3099172,0.6165914,0.70470375,1.220057,7.793241703,1.537963403,crawl
23/10/2020, 15:56:00,-6.962322,-1.1424243,3.3099172,0.821842,0.71447754,1.220057,7.793241703,1.635371994,crawl
23/10/2020, 15:56:01,-8.612491,-0.004790039,4.167334,-0.13477258,0.2477767,-0.08841581,9.567742238,0.295591439,crawl
23/10/2020, 15:56:01,-8.612491,-0.004790039,4.167334,-0.3143669,0.22822903,-0.077420235,9.567742238,0.396117325,crawl
23/10/2020, 15:56:01,-8.612491,-0.004790039,4.167334,-0.5379435,0.19890751,-0.0676464,9.567742238,0.577514868,crawl
23/10/2020, 15:56:01,-8.612491,-0.004790039,4.167334,-0.7297551,0.16103387,-0.06031602,9.567742238,0.749741582,crawl
23/10/2020, 15:56:01,-8.612491,-0.004790039,4.167334,-0.8812496,0.12193851,-0.040768337,9.567742238,0.890579546,crawl
23/10/2020, 15:56:01,-8.612491,-0.004790039,4.167334,-0.9948705,0.08162142,-0.013890276,9.567742238,0.99830971,crawl
23/10/2020, 15:56:01,-8.612491,-0.004790039,4.167334,-1.0669527,0.041304328,0.017874705,9.567742238,1.067901507,crawl
23/10/2020, 15:56:01,-8.612491,-0.004790039,4.167334,-1.106048,0.011982808,0.047196224,9.567742238,1.107119335,crawl
23/10/2020, 15:56:01,-8.612491,-0.004790039,4.167334,-1.106048,-0.013673522,0.06552218,9.567742238,1.10807142,crawl
23/10/2020, 15:56:01,-8.612491,-0.004790039,4.167334,-1.0901655,-0.03444293,0.07285256,9.567742238,1.093139799,crawl
23/10/2020, 15:56:01,-8.612491,-0.004790039,4.167334,-1.0657309,-0.050325423,0.07163083,9.567742238,1.069320362,crawl
23/10/2020, 15:56:01,-8.612491,-0.004790039,4.167334,-1.0388528,-0.06254272,0.058191795,9.567742238,1.042359362,crawl
23/10/2020, 15:56:01,-8.612491,-0.004790039,4.167334,-0.99731404,-0.07231656,0.039865844,9.567742238,1.000726864,crawl
23/10/2020, 15:56:01,-8.612491,-0.004790039,4.167334,-0.9533317,-0.07109483,0.011766055,9.567742238,0.956051391,crawl
23/10/2020, 15:56:01,-8.612491,-0.004790039,4.167334,-0.90324074,-0.06376445,-0.017555466,9.567742238,0.90565884,crawl
23/10/2020, 15:56:01,-8.612491,-0.004790039,4.167334,-0.85437155,-0.053990614,-0.046876986,9.567742238,0.857358256,crawl
23/10/2020, 15:56:01,-8.612491,-0.004790039,4.167334,-0.7957285,-0.042995043,-0.0798637,9.567742238,0.800881163,crawl
23/10/2020, 15:56:01,-8.612491,-0.004790039,4.167334,-0.7273117,-0.025890823,-0.120180786,9.567742238,0.737628648,crawl
23/10/2020, 15:56:01,-8.612491,-0.004790039,4.167334,-0.65278614,9.87E-04,-0.16782826,9.567742238,0.674015607,crawl
23/10/2020, 15:56:01,-8.612491,-0.004790039,4.167334,-0.5709302,0.026643569,-0.20814535,9.567742238,0.608272669,crawl
23/10/2020, 15:56:01,-8.612491,-0.004790039,4.167334,-0.4817439,0.0400826,-0.23991033,9.567742238,0.539667278,crawl
23/10/2020, 15:56:01,-8.612491,-0.004790039,4.167334,-0.39011416,0.04252606,-0.26923186,9.567742238,0.475902631,crawl
23/10/2020, 15:56:01,-8.612491,-0.004790039,4.167334,-0.29237574,0.041304328,-0.29855338,9.567742238,0.419909207,crawl
23/10/2020, 15:56:01,-8.612491,-0.004790039,4.167334,-0.20196773,0.03519568,-0.32420972,9.567742238,0.383590462,crawl
23/10/2020, 15:56:01,-8.612491,-0.004790039,4.167334,-0.124998756,0.024200108,-0.34620085,9.567742238,0.368870391,crawl
23/10/2020, 15:56:01,-8.859178,-0.2778223,4.054768,-0.124998756,0.024200108,-0.34620085,9.746966554,0.368870391,crawl
23/10/2020, 15:56:01,-9.057964,-0.49097902,3.9134622,-0.124998756,0.024200108,-0.34620085,9.879421248,0.368870391,crawl
23/10/2020, 15:56:01,-9.287886,-0.7496411,3.8464015,-0.124998756,0.024200108,-0.34620085,10.08075325,0.368870391,crawl
23/10/2020, 15:56:01,-9.474698,-0.9436377,3.6955154,-0.124998756,0.024200108,-0.34620085,10.21357869,0.368870391,crawl
23/10/2020, 15:56:01,-9.635164,-1.1735597,3.6763551,-0.124998756,0.024200108,-0.34620085,10.37926874,0.368870391,crawl
23/10/2020, 15:56:02,-8.396939,-1.9232007,3.8080812,-0.9350057,0.45669252,2.2964013,9.418533448,2.521162929,crawl
23/10/2020, 15:56:02,-8.899893,-2.2441335,3.9661524,-0.9350057,0.45669252,2.2964013,9.998729525,2.521162929,crawl
23/10/2020, 15:56:02,-9.465117,-2.5051906,3.9948928,-0.9350057,0.45669252,2.2964013,10.57466771,2.521162929,crawl
23/10/2020, 15:56:02,-9.960887,-2.7087672,4.023633,-0.9350057,0.45669252,2.2964013,11.07909342,2.521162929,crawl
23/10/2020, 15:56:02,-10.365645,-2.8979738,3.9613624,-0.9350057,0.45669252,2.2964013,11.46896894,2.521162929,crawl
23/10/2020, 15:56:02,-10.739268,-3.0368848,3.8224514,-0.9350057,0.45669252,2.2964013,11.79685073,2.521162929,crawl
23/10/2020, 15:56:02,-11.05541,-3.1614258,3.779341,-0.9350057,0.45669252,2.2964013,12.10372382,2.521162929,crawl
23/10/2020, 15:56:02,-11.417059,-3.276387,3.7290456,-0.9350057,0.45669252,2.2964013,12.44948705,2.521162929,crawl
23/10/2020, 15:56:02,-11.5823145,-3.3530276,3.6763551,-0.9350057,0.45669252,2.2964013,12.60588711,2.521162929,crawl
23/10/2020, 15:56:02,-11.682906,-3.2620168,3.6308498,-0.9350057,0.45669252,2.2964013,12.66152124,2.521162929,crawl
23/10/2020, 15:56:02,-11.7930765,-3.0416749,3.3889527,-0.9350057,0.45669252,2.2964013,12.64173407,2.521162929,crawl
23/10/2020, 15:56:02,-11.936778,-2.823728,3.1446607,-0.9350057,0.45669252,2.2964013,12.66289864,2.521162929,crawl
23/10/2020, 15:56:02,-12.2361555,-2.6201515,2.7590625,-0.9350057,0.45669252,2.2964013,12.81409855,2.521162929,crawl
23/10/2020, 15:56:02,-12.674444,-2.3423293,2.42376,-0.9350057,0.45669252,2.2964013,13.11497824,2.521162929,crawl
23/10/2020, 15:56:02,-13.210928,-2.203418,2.1291726,-0.9350057,0.45669252,2.2964013,13.56160184,2.521162929,crawl
23/10/2020, 15:56:02,-13.785733,-2.196233,1.8992506,-0.9350057,0.45669252,2.2964013,14.08818771,2.521162929,crawl
23/10/2020, 15:56:02,-14.413228,-2.3998096,1.7315992,-0.9350057,0.45669252,2.2964013,14.71389358,2.521162929,crawl
23/10/2020, 15:56:02,-14.894628,-2.5243506,1.695674,-0.9350057,0.45669252,2.2964013,15.20189418,2.521162929,crawl
23/10/2020, 15:56:02,-14.894628,-2.5243506,1.695674,-0.82016313,0.49456614,2.4552262,15.20189418,2.635412461,crawl
23/10/2020, 15:56:02,-14.894628,-2.5243506,1.695674,-0.71875954,0.51900077,2.5847294,15.20189418,2.732545208,crawl
23/10/2020, 15:56:02,-14.894628,-2.5243506,1.695674,-0.630795,0.5251094,2.672694,15.20189418,2.795878265,crawl
23/10/2020, 15:56:02,-14.894628,-2.5243506,1.695674,-0.53305656,0.5092269,2.7252285,15.20189418,2.82317764,crawl
23/10/2020, 15:56:02,-14.894628,-2.5243506,1.695674,-0.42187914,0.48357058,2.741111,15.20189418,2.815228631,crawl
23/10/2020, 15:56:02,-14.894628,-2.5243506,1.695674,-0.3021496,0.45669252,2.7252285,15.20189418,2.779700176,crawl
23/10/2020, 15:56:02,-14.894628,-2.5243506,1.695674,-0.1921939,0.43470138,2.6800244,15.20189418,2.721843951,crawl
23/10/2020, 15:56:02,-14.894628,-2.5243506,1.695674,-0.11155972,0.4151537,2.614051,15.20189418,2.649162386,crawl
23/10/2020, 15:56:02,-14.894628,-2.5243506,1.695674,-0.06391225,0.4029364,2.532195,15.20189418,2.5648498,crawl
23/10/2020, 15:56:02,-14.894628,-2.5243506,1.695674,-0.06391225,0.4102668,2.4564478,15.20189418,2.491292757,crawl
23/10/2020, 15:56:02,-14.894628,-2.5243506,1.695674,-0.10545107,0.42370582,2.3916962,15.20189418,2.431225479,crawl
23/10/2020, 15:56:02,-14.894628,-2.5243506,1.695674,-0.13355085,0.4518056,2.333053,15.20189418,2.380147253,crawl
23/10/2020, 15:56:03,-10.190808,-3.4943337,6.686895,-0.33147112,0.6509476,0.930507,12.67980699,1.182983147,crawl
23/10/2020, 15:56:03,-10.336905,-3.4799635,7.0150127,-0.33147112,0.6509476,0.930507,12.96812034,1.182983147,crawl
23/10/2020, 15:56:03,-10.336905,-3.4799635,7.0150127,-0.25572386,0.6069653,0.85353804,12.96812034,1.078113516,crawl
23/10/2020, 15:56:03,-10.425521,-2.7327175,7.077283,-0.25572386,0.6069653,0.85353804,12.89368699,1.078113516,crawl
23/10/2020, 15:56:03,-10.425521,-2.7327175,7.077283,-0.3717882,0.5422136,0.78756464,12.89368699,1.025904543,crawl
23/10/2020, 15:56:03,-10.466236,-1.83219,6.8761015,-0.3717882,0.5422136,0.78756464,12.65621549,1.025904543,crawl
23/10/2020, 15:56:03,-10.466236,-1.83219,6.8761015,-0.6588948,0.44936216,0.7264781,12.65621549,1.07881375,crawl
23/10/2020, 15:56:03,-10.459051,-1.223855,6.4186525,-0.6588948,0.44936216,0.7264781,12.33242361,1.07881375,crawl
23/10/2020, 15:56:03,-10.459051,-1.223855,6.4186525,-1.042518,0.33451954,0.62140936,12.33242361,1.258926817,crawl
23/10/2020, 15:56:03,-10.370435,-1.0873389,6.1408305,-1.042518,0.33451954,0.62140936,12.1011579,1.258926817,crawl
23/10/2020, 15:56:03,-10.370435,-1.0873389,6.1408305,-1.395598,0.22945076,0.518784,12.1011579,1.50647881,crawl
23/10/2020, 15:56:03,-10.197993,-1.334026,5.985154,-1.395598,0.22945076,0.518784,11.89961186,1.50647881,crawl
23/10/2020, 15:56:03,-10.197993,-1.334026,5.985154,-1.6118443,0.13904274,0.41860214,11.89961186,1.67110822,crawl
23/10/2020, 15:56:03,-10.042317,-1.81782,5.9204884,-1.6118443,0.13904274,0.41860214,11.79850797,1.67110822,crawl
23/10/2020, 15:56:03,-10.042317,-1.81782,5.9204884,-1.6704873,0.06573893,0.32452893,11.79850797,1.702988081,crawl
23/10/2020, 15:56:03,-10.169253,-2.3806496,5.9204884,-1.6704873,0.06573893,0.32452893,12.00555656,1.702988081,crawl
23/10/2020, 15:56:03,-10.169253,-2.3806496,5.9204884,-1.5727489,0.018091459,0.23534264,12.00555656,1.590362398,crawl
23/10/2020, 15:56:03,-10.442286,-2.6177564,5.728887,-1.5727489,0.018091459,0.23534264,12.19484001,1.590362398,crawl
23/10/2020, 15:56:03,-10.442286,-2.6177564,5.728887,-1.3907111,-0.028334282,0.1192783,12.19484001,1.396104373,crawl
23/10/2020, 15:56:03,-11.000325,-3.0225148,5.633086,-1.3907111,-0.028334282,0.1192783,12.72298749,1.396104373,crawl
23/10/2020, 15:56:03,-11.000325,-3.0225148,5.633086,-1.1414782,-0.07720348,0.025205085,12.72298749,1.144363627,crawl
23/10/2020, 15:56:03,-11.726016,-3.439248,5.50136,-1.1414782,-0.07720348,0.025205085,13.40122535,1.144363627,crawl
23/10/2020, 15:56:03,-11.726016,-3.439248,5.50136,-0.7774026,-0.12362922,-0.06520294,13.40122535,0.789867317,crawl
23/10/2020, 15:56:03,-12.384646,-4.0356083,5.513335,-0.7774026,-0.12362922,-0.06520294,14.14434397,0.789867317,crawl
23/10/2020, 15:56:03,-12.384646,-4.0356083,5.513335,-0.2789367,-0.18105054,-0.18371075,14.14434397,0.379913976,crawl
23/10/2020, 15:56:03,-12.882811,-4.646338,5.5564456,-0.2789367,-0.18105054,-0.18371075,14.77935564,0.379913976,crawl
23/10/2020, 15:56:03,-12.882811,-4.646338,5.5564456,0.27206352,-0.25679782,-0.32665318,14.77935564,0.496654793,crawl
23/10/2020, 15:56:03,-12.945081,-4.88105,5.53489,0.27206352,-0.25679782,-0.32665318,14.90083136,0.496654793,crawl
23/10/2020, 15:56:03,-12.945081,-4.88105,5.53489,0.7754163,-0.34109718,-0.49158671,14.90083136,0.979425976,crawl
23/10/2020, 15:56:03,-12.545113,-4.742139,5.381609,0.7754163,-0.34109718,-0.49158671,14.45093237,0.979425976,crawl
23/10/2020, 15:56:04,-10.921289,-3.0704153,2.3662794,1.2543344,-0.11752057,-0.76281077,11.58884339,1.472768231,crawl
23/10/2020, 15:56:04,-11.371553,-3.2045362,2.6608667,1.2543344,-0.11752057,-0.76281077,12.11038774,1.472768231,crawl
23/10/2020, 15:56:04,-11.371553,-3.2045362,2.6608667,1.2799907,-0.08453386,-0.7567021,12.11038774,1.48933549,crawl
23/10/2020, 15:56:04,-11.596685,-3.3889527,2.936294,1.2799907,-0.08453386,-0.7567021,12.43342013,1.48933549,crawl
23/10/2020, 15:56:04,-11.596685,-3.3889527,2.936294,1.3520728,-0.057655804,-0.74448484,12.43342013,1.544565577,crawl
23/10/2020, 15:56:04,-11.939173,-3.7601807,3.163821,1.3520728,-0.057655804,-0.74448484,12.9109476,1.544565577,crawl
23/10/2020, 15:56:04,-11.939173,-3.7601807,3.163821,1.4889065,-0.036886394,-0.7395979,12.9109476,1.662891535,crawl
23/10/2020, 15:56:04,-12.676839,-4.2439747,3.3506324,1.4889065,-0.036886394,-0.7395979,13.78188313,1.662891535,crawl
23/10/2020, 15:56:04,-12.676839,-4.2439747,3.3506324,1.6953789,-0.028334282,-0.7395979,13.78188313,1.849896625,crawl
23/10/2020, 15:56:04,-13.876743,-4.646338,3.5566041,1.6953789,-0.028334282,-0.7395979,15.05994339,1.849896625,crawl
23/10/2020, 15:56:04,-13.876743,-4.646338,3.5566041,1.9543858,-0.049103692,-0.73226756,15.05994339,2.087642364,crawl
23/10/2020, 15:56:04,-14.715,-4.7062135,3.788921,1.9543858,-0.049103692,-0.73226756,15.90709269,2.087642364,crawl
23/10/2020, 15:56:04,-14.715,-4.7062135,3.788921,2.198732,-0.10285981,-0.7041677,15.90709269,2.311028838,crawl
23/10/2020, 15:56:04,-14.559324,-4.488267,3.8679566,2.198732,-0.10285981,-0.7041677,15.71876432,2.311028838,crawl
23/10/2020, 15:56:04,-14.559324,-4.488267,3.8679566,2.3783262,-0.18471572,-0.6858418,15.71876432,2.482122937,crawl
23/10/2020, 15:56:04,-13.424085,-4.2032595,3.8751419,2.3783262,-0.18471572,-0.6858418,14.5907561,2.482122937,crawl
23/10/2020, 15:56:04,-13.424085,-4.2032595,3.8751419,2.4943905,-0.28001067,-0.69683737,14.5907561,2.604989865,crawl
23/10/2020, 15:56:04,-11.946358,-4.030818,3.7482057,2.4943905,-0.28001067,-0.69683737,13.15340269,2.604989865,crawl
23/10/2020, 15:56:04,-11.946358,-4.030818,3.7482057,2.5713594,-0.37530562,-0.74570656,13.15340269,2.703483258,crawl
23/10/2020, 15:56:04,-10.6817875,-3.9182522,3.307522,2.5713594,-0.37530562,-0.74570656,11.84875465,2.703483258,crawl
23/10/2020, 15:56:04,-10.6817875,-3.9182522,3.307522,2.6446633,-0.4559398,-0.82756245,11.84875465,2.808377621,crawl
23/10/2020, 15:56:04,-9.855506,-3.8008962,2.924319,2.6446633,-0.4559398,-0.82756245,10.96035815,2.808377621,crawl
23/10/2020, 15:56:04,-9.855506,-3.8008962,2.924319,2.7289627,-0.5170263,-0.9228574,10.96035815,2.926810412,crawl
23/10/2020, 15:56:04,-9.374106,-3.65959,2.3902297,2.7289627,-0.5170263,-0.9228574,10.3430976,2.926810412,crawl
23/10/2020, 15:56:04,-9.374106,-3.65959,2.3902297,2.8034883,-0.5536782,-1.0144871,10.3430976,3.032373679,crawl
23/10/2020, 15:56:04,-9.256751,-3.4679885,1.949546,2.8034883,-0.5536782,-1.0144871,10.0754709,3.032373679,crawl
23/10/2020, 15:56:04,-9.256751,-3.4679885,1.949546,2.862131,-0.57933456,-1.0804605,10.0754709,3.11365028,crawl
23/10/2020, 15:56:04,-9.457932,-3.3841627,1.6238233,2.862131,-0.57933456,-1.0804605,10.17555137,3.11365028,crawl
23/10/2020, 15:56:04,-9.457932,-3.3841627,1.6238233,2.9073353,-0.59277356,-1.1158907,10.17555137,3.17004591,crawl
23/10/2020, 15:56:04,-9.992022,-3.2308815,1.3220508,2.9073353,-0.59277356,-1.1158907,10.58427646,3.17004591,crawl
23/10/2020, 15:56:05,-7.92991,-1.3507911,2.2201831,1.4412591,0.08650834,0.33674625,8.344898157,1.482602324,crawl
23/10/2020, 15:56:05,-7.8436894,-1.3076807,2.1195924,1.4412591,0.08650834,0.33674625,8.229590816,1.482602324,crawl
23/10/2020, 15:56:05,-7.8436894,-1.3076807,2.1195924,1.382616,0.07062586,0.3281941,8.229590816,1.422788287,crawl
23/10/2020, 15:56:05,-7.814949,-1.1903248,1.949546,1.382616,0.07062586,0.3281941,8.141930425,1.422788287,crawl
23/10/2020, 15:56:05,-7.814949,-1.1903248,1.949546,1.3141992,0.05474336,0.3110899,8.141930425,1.351626178,crawl
23/10/2020, 15:56:05,-7.783814,-1.1064991,1.9088306,1.3141992,0.05474336,0.3110899,8.090471821,1.351626178,crawl
23/10/2020, 15:56:05,-7.783814,-1.1064991,1.9088306,1.2250129,0.03153049,0.28543356,8.090471821,1.258222194,crawl
23/10/2020, 15:56:05,-7.793394,-0.92208254,1.9064356,1.2250129,0.03153049,0.28543356,8.075996803,1.258222194,crawl
23/10/2020, 15:56:05,-7.793394,-0.92208254,1.9064356,1.1003964,0.007095889,0.26466417,8.075996803,1.13179932,crawl
23/10/2020, 15:56:05,-7.767049,-0.62989014,1.8058448,1.1003964,0.007095889,0.26466417,7.999055231,1.13179932,crawl
23/10/2020, 15:56:05,-7.767049,-0.62989014,1.8058448,0.95256716,-0.014895253,0.2536686,7.999055231,0.985877186,crawl
23/10/2020, 15:56:05,-7.788604,-0.43110353,1.7268091,0.95256716,-0.014895253,0.2536686,7.98937225,0.985877186,crawl
23/10/2020, 15:56:05,-7.788604,-0.43110353,1.7268091,0.77419454,-0.029556014,0.24267302,7.98937225,0.811874952,crawl
23/10/2020, 15:56:05,-7.790999,-0.3520679,1.5687379,0.77419454,-0.029556014,0.24267302,7.955158999,0.811874952,crawl
23/10/2020, 15:56:05,-7.790999,-0.3520679,1.5687379,0.57871777,-0.033221204,0.2255688,7.955158999,0.622012209,crawl
23/10/2020, 15:56:05,-7.7239385,-0.38080812,1.4226416,0.57871777,-0.033221204,0.2255688,7.863087781,0.622012209,crawl
23/10/2020, 15:56:05,-7.7239385,-0.38080812,1.4226416,0.3942365,-0.025890823,0.20235594,7.863087781,0.443892646,crawl
23/10/2020, 15:56:05,-7.726333,-0.55803955,1.3699512,0.3942365,-0.025890823,0.20235594,7.866663738,0.443892646,crawl
23/10/2020, 15:56:05,-7.726333,-0.55803955,1.3699512,0.2598462,-0.013673522,0.1766996,7.866663738,0.314531023,crawl
23/10/2020, 15:56:05,-7.7071733,-0.7496411,1.4609619,0.2598462,-0.013673522,0.1766996,7.880158158,0.314531023,crawl
23/10/2020, 15:56:05,-7.7071733,-0.7496411,1.4609619,0.17188165,0.002208968,0.14982153,7.880158158,0.228023402,crawl
23/10/2020, 15:56:05,-7.692803,-0.9580079,1.6022681,0.17188165,0.002208968,0.14982153,7.916075966,0.228023402,crawl
23/10/2020, 15:56:05,-7.692803,-0.9580079,1.6022681,0.12423418,0.022978378,0.12050003,7.916075966,0.174592077,crawl
23/10/2020, 15:56:05,-7.6664577,-1.1567944,1.695674,0.12423418,0.022978378,0.12050003,7.936501522,0.174592077,crawl
23/10/2020, 15:56:05,-7.6664577,-1.1567944,1.695674,0.09002573,0.052299898,0.08629159,7.936501522,0.135226291,crawl
23/10/2020, 15:56:05,-7.7790236,-1.3483961,1.8537452,0.09002573,0.052299898,0.08629159,8.109731944,0.135226291,crawl
23/10/2020, 15:56:05,-7.7790236,-1.3483961,1.8537452,0.058260757,0.08528661,0.048417956,8.109731944,0.114071995,crawl
23/10/2020, 15:56:05,-7.9802055,-1.5447876,1.9567311,0.058260757,0.08528661,0.048417956,8.360552959,0.114071995,crawl
23/10/2020, 15:56:05,-7.9802055,-1.5447876,1.9567311,0.028939236,0.12193851,0.009322595,8.360552959,0.125671758,crawl
23/10/2020, 15:56:19,-8.356223,-1.8034497,2.0166066,0.028939236,0.12193851,0.009322595,8.783256666,0.125671758,crawl
23/10/2020, 15:56:19,-8.356223,-1.8034497,2.0166066,0.008169825,0.16469906,-0.028551036,8.783256666,0.167354979,crawl
23/10/2020, 15:56:19,-8.717872,-2.0405567,2.201023,0.008169825,0.16469906,-0.028551036,9.220068362,0.167354979,crawl
23/10/2020, 15:56:19,-8.717872,-2.0405567,2.201023,0.008169825,0.21479,-0.08963754,9.220068362,0.232887053,crawl
23/10/2020, 15:56:19,-9.15137,-2.3974147,2.4812403,0.008169825,0.21479,-0.08963754,9.780169949,0.232887053,crawl
23/10/2020, 15:56:19,-9.15137,-2.3974147,2.4812403,0.037491348,0.25755054,-0.13117637,9.780169949,0.291453461,crawl
23/10/2020, 15:56:19,-9.582474,-2.794988,2.6896071,0.037491348,0.25755054,-0.13117637,10.33778251,0.291453461,crawl
23/10/2020, 15:56:19,-9.582474,-2.794988,2.6896071,0.102243036,0.29664588,-0.18004556,10.33778251,0.361757958,crawl
23/10/2020, 15:56:19,-9.867481,-2.9410841,3.0105398,0.102243036,0.29664588,-0.18004556,10.72755851,0.361757958,crawl
23/10/2020, 15:56:19,-9.867481,-2.9410841,3.0105398,0.20364663,0.32352394,-0.24357553,10.72755851,0.453286584,crawl
23/10/2020, 15:56:19,-10.1189575,-3.1949563,3.295547,0.20364663,0.32352394,-0.24357553,11.11133102,0.453286584,crawl
23/10/2020, 15:56:19,-10.1189575,-3.1949563,3.295547,0.3368152,0.33451954,-0.3034403,11.11133102,0.563403782,crawl
23/10/2020, 15:56:19,-10.207574,-3.3626075,3.6236646,0.3368152,0.33451954,-0.3034403,11.341633,0.563403782,crawl
23/10/2020, 15:56:19,-10.207574,-3.3626075,3.6236646,0.49197492,0.31619358,-0.38285276,11.341633,0.69899495,crawl
23/10/2020, 15:56:19,-10.049502,-3.427273,4.0427933,0.49197492,0.31619358,-0.38285276,11.36146451,0.69899495,crawl
23/10/2020, 15:56:19,-10.049502,-3.427273,4.0427933,0.67645615,0.27343303,-0.47203904,11.36146451,0.869010591,crawl
23/10/2020, 15:56:19,-9.68067,-3.417693,4.30385,0.67645615,0.27343303,-0.47203904,11.13189645,0.869010591,crawl
23/10/2020, 15:56:19,-9.68067,-3.417693,4.30385,0.87559813,0.2233421,-0.57344264,11.13189645,1.070229062,crawl
23/10/2020, 15:56:19,-9.175321,-3.2644117,4.430786,0.87559813,0.2233421,-0.57344264,10.69928773,1.070229062,crawl
23/10/2020, 15:56:19,-9.175321,-3.2644117,4.430786,1.0637445,0.18791194,-0.6907287,10.69928773,1.28217375,crawl
23/10/2020, 15:56:19,-8.715476,-2.9961696,4.3086405,1.0637445,0.18791194,-0.6907287,10.17354105,1.28217375,crawl
23/10/2020, 15:56:19,-8.715476,-2.9961696,4.3086405,1.2457823,0.1622556,-0.8067931,10.17354105,1.493055728,crawl
23/10/2020, 15:56:20,-8.590936,-2.565066,4.026028,1.2457823,0.1622556,-0.8067931,9.828155632,1.493055728,crawl
23/10/2020, 15:56:20,-8.590936,-2.565066,4.026028,1.4375939,0.14270793,-0.91674876,9.828155632,1.710985147,crawl
23/10/2020, 15:56:20,-8.919053,-2.1722827,3.776946,1.4375939,0.14270793,-0.91674876,9.926411311,1.710985147,crawl
23/10/2020, 15:56:20,-8.919053,-2.1722827,3.776946,1.6428446,0.12804717,-1.0120437,9.926411311,1.933795956,crawl
23/10/2020, 15:56:20,-9.6686945,-2.0333717,3.6068995,1.6428446,0.12804717,-1.0120437,10.51798354,1.933795956,crawl
23/10/2020, 15:56:20,-9.6686945,-2.0333717,3.6068995,1.8395431,0.09872565,-1.0975648,10.51798354,2.144367998,crawl
23/10/2020, 15:56:20,-10.595567,-2.1627028,3.5829494,1.8395431,0.09872565,-1.0975648,11.39213959,2.144367998,crawl
23/10/2020, 15:56:20,-10.595567,-2.1627028,3.5829494,1.9421684,0.069404125,-1.1733121,11.39213959,2.270131287,crawl
23/10/2020, 15:56:20,-11.311678,-2.4022048,3.7625759,1.9421684,0.069404125,-1.1733121,12.1606588,2.270131287,crawl
23/10/2020, 15:56:20,-11.311678,-2.4022048,3.7625759,1.9360597,0.048634708,-1.2417289,12.1606588,2.3005615,crawl
23/10/2020, 15:56:20,-7.2329593,-2.083667,6.581514,1.9360597,0.048634708,-1.2417289,9.998684569,2.3005615,crawl
23/10/2020, 15:56:20,-7.592212,-2.4572902,6.6485744,1.9360597,0.048634708,-1.2417289,10.38669832,2.3005615,crawl
23/10/2020, 15:56:20,-8.054451,-2.8141482,6.5336137,1.9360597,0.048634708,-1.2417289,10.74624206,2.3005615,crawl
23/10/2020, 15:56:20,-8.598121,-2.9913795,6.361172,1.9360597,0.048634708,-1.2417289,11.10587873,2.3005615,crawl
23/10/2020, 15:56:20,-9.16574,-2.9770093,6.1863356,1.9360597,0.048634708,-1.2417289,11.45181741,2.3005615,crawl
23/10/2020, 15:56:20,-9.70941,-3.1039455,6.10251,1.9360597,0.048634708,-1.2417289,11.88056154,2.3005615,crawl
23/10/2020, 15:56:20,-10.011182,-3.3290772,5.927674,1.9360597,0.048634708,-1.2417289,12.10139801,2.3005615,crawl
23/10/2020, 15:56:20,-9.999207,-3.3626075,5.601951,1.9360597,0.048634708,-1.2417289,11.94458526,2.3005615,crawl
23/10/2020, 15:56:20,-9.77168,-3.3650026,5.3313136,1.9360597,0.048634708,-1.2417289,11.62892408,2.3005615,crawl
23/10/2020, 15:56:20,-9.417217,-3.3650026,4.89542,1.9360597,0.048634708,-1.2417289,11.13428764,2.3005615,crawl
23/10/2020, 15:56:20,-9.019644,-3.408113,4.5481424,1.9360597,0.048634708,-1.2417289,10.66090089,2.3005615,crawl
23/10/2020, 15:56:20,-8.660391,-3.2165112,4.023633,1.9360597,0.048634708,-1.2417289,10.07660344,2.3005615,crawl
23/10/2020, 15:56:20,-8.372989,-2.9674294,3.5853443,1.9360597,0.048634708,-1.2417289,9.579523521,2.3005615,crawl
23/10/2020, 15:56:20,-8.040081,-2.7973828,3.163821,1.9360597,0.048634708,-1.2417289,9.081740846,2.3005615,crawl
23/10/2020, 15:56:20,-7.7694435,-2.5770411,2.8261232,1.9360597,0.048634708,-1.2417289,8.659813285,2.3005615,crawl
23/10/2020, 15:56:20,-7.6520877,-2.3303542,2.6536818,1.9360597,0.048634708,-1.2417289,8.427753177,2.3005615,crawl
23/10/2020, 15:56:20,-7.7383084,-2.0980372,2.4932153,1.9360597,0.048634708,-1.2417289,8.396386143,2.3005615,crawl
23/10/2020, 15:56:20,-7.975415,-1.9423609,2.3878345,1.9360597,0.048634708,-1.2417289,8.548787499,2.3005615,crawl
23/10/2020, 15:56:20,-8.260423,-1.7914747,2.3016138,1.9360597,0.048634708,-1.2417289,8.760216379,2.3005615,crawl
23/10/2020, 15:56:20,-8.480764,-1.6621436,2.2345533,1.9360597,0.048634708,-1.2417289,8.926327047,2.3005615,crawl
23/10/2020, 15:56:36,-9.208851,-3.8008962,5.4247193,1.9250642,0.7987769,0.83765554,11.34360285,2.246237651,crawl
23/10/2020, 15:56:36,-9.034014,-3.9493873,5.47262,1.9250642,0.7987769,0.83765554,11.27655241,2.246237651,crawl
23/10/2020, 15:56:36,-8.954978,-4.0044727,5.5372853,1.9250642,0.7987769,0.83765554,11.26450005,2.246237651,crawl
23/10/2020, 15:56:36,-8.8951025,-4.009263,5.4678297,1.9250642,0.7987769,0.83765554,11.18455186,2.246237651,crawl
