DATE,TIME,ax,ay,az,gx,gy,gz,ma,mg,label
23/10/2020, 15:17:34,0.77359134,3.891907,9.14658,-0.10916909,0.16730292,0.026736183,9.970220883,0.201551435,crawl
23/10/2020, 15:17:34,0.7496411,3.8392165,9.139395,-0.10916909,0.16730292,0.026736183,9.941331978,0.201551435,crawl
23/10/2020, 15:17:34,0.7496411,3.8392165,9.139395,-0.1421558,0.19418098,0.046283863,9.941331978,0.245064725,crawl
23/10/2020, 15:17:34,0.5939649,3.755391,9.1202345,-0.1421558,0.19418098,0.046283863,9.881013718,0.245064725,crawl
23/10/2020, 15:17:34,0.5939649,3.755391,9.1202345,-0.07740411,0.21250694,0.06338808,9.881013718,0.23488006,crawl
23/10/2020, 15:17:34,0.39517823,3.6955154,9.24717,-0.07740411,0.21250694,0.06338808,9.9661006,0.23488006,crawl
23/10/2020, 15:17:34,0.39517823,3.6955154,9.24717,-0.1421558,0.19051579,0.06460981,9.9661006,0.246331003,crawl
23/10/2020, 15:17:34,-0.27303225,3.9302273,8.818462,-0.1421558,0.19051579,0.06460981,9.658494276,0.246331003,crawl
23/10/2020, 15:17:34,-0.27303225,3.9302273,8.818462,-0.18613808,0.30413666,0.07927057,9.658494276,0.365281149,crawl
23/10/2020, 15:17:34,-1.0585986,3.9829175,7.441326,-0.18613808,0.30413666,0.07927057,8.50632694,0.365281149,crawl
23/10/2020, 15:17:34,-1.0585986,3.9829175,7.441326,-0.17392078,0.057347216,0.15013091,8.50632694,0.236804628,crawl
23/10/2020, 15:17:34,1.7699195,4.033213,7.2425394,-0.17392078,0.057347216,0.15013091,8.4766621,0.236804628,crawl
23/10/2020, 15:17:34,1.7699195,4.033213,7.2425394,-0.026091449,0.34078857,0.14035708,8.4766621,0.36948305,crawl
23/10/2020, 15:17:34,-2.0070264,3.5206788,4.502637,-0.026091449,0.34078857,0.14035708,6.057810922,0.36948305,crawl
23/10/2020, 15:17:34,-2.0070264,3.5206788,4.502637,-0.122608125,0.40920544,0.13058324,6.057810922,0.446692092,crawl
23/10/2020, 15:17:34,-2.6776319,3.1398706,5.975574,-0.122608125,0.40920544,0.13058324,7.261954615,0.446692092,crawl
23/10/2020, 15:17:34,-2.6776319,3.1398706,5.975574,-0.2533332,0.51793945,0.12203112,7.261954615,0.589347591,crawl
23/10/2020, 15:17:34,-1.6238233,3.417693,2.0381618,-0.2533332,0.51793945,0.12203112,4.297851807,0.589347591,crawl
23/10/2020, 15:17:34,-1.6238233,3.417693,2.0381618,-0.03586529,0.38843605,0.08415749,4.297851807,0.399063111,crawl
23/10/2020, 15:17:34,3.0153298,4.29427,1.343606,-0.03586529,0.38843605,0.08415749,5.416479139,0.399063111,crawl
23/10/2020, 15:17:34,3.0153298,4.29427,1.343606,-0.25822014,0.20639828,0.0804923,5.416479139,0.340230655,crawl
23/10/2020, 15:17:34,4.646338,4.5074267,14.712605,-0.25822014,0.20639828,0.0804923,16.07377094,0.340230655,crawl
23/10/2020, 15:17:34,4.646338,4.5074267,14.712605,0.002008341,0.11721199,0.07438365,16.07377094,0.138836638,crawl
23/10/2020, 15:17:34,-1.7459693,3.7601807,16.58551,0.002008341,0.11721199,0.07438365,17.09580411,0.138836638,crawl
23/10/2020, 15:17:34,-1.7459693,3.7601807,16.58551,-0.28143305,0.6413342,0.058501165,17.09580411,0.70280614,crawl
23/10/2020, 15:17:34,-1.6405884,3.410508,0.9508228,-0.28143305,0.6413342,0.058501165,3.902199188,0.70280614,crawl
23/10/2020, 15:17:34,-1.6405884,3.410508,0.9508228,-0.51844865,0.61934304,0.09881825,3.902199188,0.813719764,crawl
23/10/2020, 15:17:34,5.103787,4.1553593,9.362132,-0.51844865,0.61934304,0.09881825,11.44400143,0.813719764,crawl
23/10/2020, 15:17:34,5.103787,4.1553593,9.362132,-0.19346847,0.24671538,0.059722893,11.44400143,0.319163518,crawl
23/10/2020, 15:17:34,-0.2945874,4.061953,19.023642,-0.19346847,0.24671538,0.059722893,19.45469567,0.319163518,crawl
23/10/2020, 15:17:35,-3.403323,1.83219,15.728094,-1.245378,0.45074427,-0.14674948,16.19606345,1.332543513,crawl
23/10/2020, 15:17:35,-4.1793094,1.5735279,1.7914747,-1.245378,0.45074427,-0.14674948,4.811652372,1.332543513,crawl
23/10/2020, 15:17:35,-4.1793094,1.5735279,1.7914747,-1.0169145,0.18440714,-0.101545475,4.811652372,1.038476072,crawl
23/10/2020, 15:17:35,2.0237916,1.6741188,3.7218604,-1.0169145,0.18440714,-0.101545475,4.555288219,1.038476072,crawl
23/10/2020, 15:17:35,2.0237916,1.6741188,3.7218604,-1.2282737,-0.07215616,-0.06122838,4.555288219,1.231913889,crawl
23/10/2020, 15:17:35,1.5016773,1.3771362,18.764978,-1.2282737,-0.07215616,-0.06122838,18.8752736,1.231913889,crawl
23/10/2020, 15:17:35,1.5016773,1.3771362,18.764978,-0.693156,-0.17478149,-0.014802639,18.8752736,0.715005547,crawl
23/10/2020, 15:17:35,-4.641548,0.6346802,15.067068,-0.693156,-0.17478149,-0.014802639,15.77857184,0.715005547,crawl
23/10/2020, 15:17:35,-4.641548,0.6346802,15.067068,-0.63695645,0.18318541,-0.024576478,15.77857184,0.663230294,crawl
23/10/2020, 15:17:35,-3.9877076,0.6993457,0.7065308,-0.63695645,0.18318541,-0.024576478,4.109754521,0.663230294,crawl
23/10/2020, 15:17:35,-3.9877076,0.6993457,0.7065308,-0.38283664,0.013364935,0.045062132,4.109754521,0.385711174,crawl
23/10/2020, 15:17:35,2.0381618,1.84177,4.8523097,-0.38283664,0.013364935,0.045062132,5.575942048,0.385711174,crawl
23/10/2020, 15:17:35,2.0381618,1.84177,4.8523097,-0.5050096,-0.29084584,0.041396942,5.575942048,0.584242841,crawl
23/10/2020, 15:17:35,0.73527104,2.078877,18.38417,-0.5050096,-0.29084584,0.041396942,18.51594122,0.584242841,crawl
23/10/2020, 15:17:35,0.73527104,2.078877,18.38417,-0.27654612,-0.2517505,0.042618673,18.51594122,0.376393972,crawl
23/10/2020, 15:17:35,-5.245093,1.456172,13.749807,-0.27654612,-0.2517505,0.042618673,14.78812491,0.376393972,crawl
23/10/2020, 15:17:35,-5.245093,1.456172,13.749807,-0.3865018,0.09888604,0.021849263,14.78812491,0.399549087,crawl
23/10/2020, 15:17:35,-4.414021,1.3004956,-0.16046631,-0.3865018,0.09888604,0.021849263,4.604413082,0.399549087,crawl
23/10/2020, 15:17:35,-4.414021,1.3004956,-0.16046631,-0.39749736,-0.08803865,0.11103555,4.604413082,0.421999817,crawl
23/10/2020, 15:17:35,1.5423926,1.8609302,4.3397756,-0.39749736,-0.08803865,0.11103555,4.967462946,0.421999817,crawl
23/10/2020, 15:17:35,1.5423926,1.8609302,4.3397756,-0.58442205,-0.39957982,0.14646573,4.967462946,0.722956002,crawl
23/10/2020, 15:17:35,0.81909674,1.6836988,18.743423,-0.58442205,-0.39957982,0.14646573,18.83671107,0.722956002,crawl
23/10/2020, 15:17:35,0.81909674,1.6836988,18.743423,-0.42193198,-0.31039354,0.17945243,18.83671107,0.553691182,crawl
23/10/2020, 15:17:35,-4.878655,1.0753639,15.237115,-0.42193198,-0.31039354,0.17945243,16.03519106,0.553691182,crawl
23/10/2020, 15:17:35,-4.878655,1.0753639,15.237115,-0.2533332,0.001147635,0.15868303,16.03519106,0.298930322,crawl
23/10/2020, 15:17:35,-4.5768824,0.93405765,1.7890797,-0.2533332,0.001147635,0.15868303,5.002111745,0.298930322,crawl
23/10/2020, 15:17:35,-4.5768824,0.93405765,1.7890797,-0.001656849,-0.16622938,0.22587818,5.002111745,0.2804566,crawl
23/10/2020, 15:17:35,1.3531861,1.2981006,4.150569,-0.001656849,-0.16622938,0.22587818,4.554492349,0.2804566,crawl
23/10/2020, 15:17:35,1.3531861,1.2981006,4.150569,-0.2484463,-0.44844902,0.23198684,4.554492349,0.562716603,crawl
23/10/2020, 15:17:35,1.7627344,1.3939015,17.826132,-0.2484463,-0.44844902,0.23198684,17.96722487,0.562716603,crawl
23/10/2020, 15:17:36,-0.48139894,1.7004639,9.632769,-0.11039082,-0.07826482,-0.052676268,9.793546543,0.145211239,crawl
23/10/2020, 15:17:36,-0.48139894,1.7004639,9.632769,-0.17758597,-0.061160598,-0.07466742,9.793546543,0.202120311,crawl
23/10/2020, 15:17:36,-0.4406836,1.8130299,9.524993,-0.17758597,-0.061160598,-0.07466742,9.706017204,0.202120311,crawl
23/10/2020, 15:17:36,-0.4406836,1.8130299,9.524993,-0.23012036,-0.033060808,-0.09177163,9.706017204,0.249940853,crawl
23/10/2020, 15:17:36,-0.33769777,1.7387843,9.405242,-0.23012036,-0.033060808,-0.09177163,9.570579247,0.249940853,crawl
23/10/2020, 15:17:36,-0.33769777,1.7387843,9.405242,-0.26677227,-0.007404475,-0.10643239,9.570579247,0.287315375,crawl
23/10/2020, 15:17:36,-0.31374758,1.6860938,9.438772,-0.26677227,-0.007404475,-0.10643239,9.593319058,0.287315375,crawl
23/10/2020, 15:17:36,-0.31374758,1.6860938,9.438772,-0.27898955,0.015808396,-0.13819736,9.593319058,0.311742822,crawl
23/10/2020, 15:17:36,-0.2562671,1.6813037,9.477093,-0.27898955,0.015808396,-0.13819736,9.628485964,0.311742822,crawl
23/10/2020, 15:17:36,-0.2562671,1.6813037,9.477093,-0.28021127,0.036577806,-0.1846231,9.628485964,0.337552934,crawl
23/10/2020, 15:17:36,-0.20118165,1.7268091,9.469908,-0.28021127,0.036577806,-0.1846231,9.628161656,0.337552934,crawl
23/10/2020, 15:17:36,-0.20118165,1.7268091,9.469908,-0.29853725,0.052460294,-0.24326615,9.628161656,0.38865794,crawl
23/10/2020, 15:17:36,-0.17723145,1.8896705,9.268726,-0.29853725,0.052460294,-0.24326615,9.461054576,0.38865794,crawl
23/10/2020, 15:17:36,-0.17723145,1.8896705,9.268726,-0.36206722,0.07078625,-0.30679613,9.461054576,0.479820002,crawl
23/10/2020, 15:17:36,-0.19878663,2.0166066,9.0148535,-0.36206722,0.07078625,-0.30679613,9.239794446,0.479820002,crawl
23/10/2020, 15:17:36,-0.19878663,2.0166066,9.0148535,-0.46835774,0.09155566,-0.38009992,9.239794446,0.610096193,crawl
23/10/2020, 15:17:36,-0.16765137,2.1674929,8.6077,-0.46835774,0.09155566,-0.38009992,8.877986122,0.610096193,crawl
23/10/2020, 15:17:36,-0.16765137,2.1674929,8.6077,-0.63695645,0.10377296,-0.47417313,8.877986122,0.80082614,crawl
23/10/2020, 15:17:36,-0.098195806,2.3375392,8.047266,-0.63695645,0.10377296,-0.47417313,8.380466699,0.80082614,crawl
23/10/2020, 15:17:36,-0.098195806,2.3375392,8.047266,-0.9032936,0.1135468,-0.58168536,8.380466699,1.080365718,crawl
23/10/2020, 15:17:36,-0.098195806,2.548301,7.5012016,-0.9032936,0.1135468,-0.58168536,7.922847102,1.080365718,crawl
23/10/2020, 15:17:36,-0.098195806,2.548301,7.5012016,-1.2575953,0.13675967,-0.6940845,7.922847102,1.442914577,crawl
23/10/2020, 15:17:36,-0.011975098,2.4740553,6.871311,-1.2575953,0.13675967,-0.6940845,7.303150719,1.442914577,crawl
23/10/2020, 15:17:36,-0.011975098,2.4740553,6.871311,-1.6509924,0.15630735,-0.81625754,7.303150719,1.848373403,crawl
23/10/2020, 15:17:36,0.13651612,2.1291726,6.224656,-1.6509924,0.15630735,-0.81625754,6.580148637,1.848373403,crawl
23/10/2020, 15:17:36,0.13651612,2.1291726,6.224656,-2.019955,0.15386389,-0.96408683,6.580148637,2.243514072,crawl
23/10/2020, 15:17:36,0.2706372,1.7507594,5.745652,-2.019955,0.15386389,-0.96408683,6.012563683,2.243514072,crawl
23/10/2020, 15:17:36,0.2706372,1.7507594,5.745652,-2.3559308,0.12332064,-1.1339073,6.012563683,2.617510983,crawl
23/10/2020, 15:17:36,0.4047583,1.3747413,5.257068,-2.3559308,0.12332064,-1.1339073,5.448899759,2.617510983,crawl
23/10/2020, 15:17:36,0.4047583,1.3747413,5.257068,-2.6613631,0.06589933,-1.2988409,5.448899759,2.962124919,crawl
23/10/2020, 15:17:37,12.116405,-3.056045,3.178191,1.0526962,1.4708889,2.4433181,12.89370264,3.039981389,crawl
23/10/2020, 15:17:37,10.399176,-2.6776319,2.7063723,1.0526962,1.4708889,2.4433181,11.07415989,3.039981389,crawl
23/10/2020, 15:17:37,10.399176,-2.6776319,2.7063723,0.9903879,1.4757758,2.5862606,11.07415989,3.138076834,crawl
23/10/2020, 15:17:37,9.172925,-2.4668703,2.327959,0.9903879,1.4757758,2.5862606,9.779948644,3.138076834,crawl
23/10/2020, 15:17:37,9.172925,-2.4668703,2.327959,0.93296665,1.4488977,2.7279813,9.779948644,3.226703194,crawl
23/10/2020, 15:17:37,8.372989,-2.299219,2.0573218,0.93296665,1.4488977,2.7279813,8.923335712,3.226703194,crawl
23/10/2020, 15:17:37,8.372989,-2.299219,2.0573218,0.9024234,1.4085807,2.8452673,8.923335712,3.300608038,crawl
23/10/2020, 15:17:37,7.95865,-2.3710694,1.9447559,0.9024234,1.4085807,2.8452673,8.529018549,3.300608038,crawl
23/10/2020, 15:17:37,7.95865,-2.3710694,1.9447559,0.9195276,1.3804809,2.9564447,8.529018549,3.389959287,crawl
23/10/2020, 15:17:37,7.661668,-2.550696,1.7339942,0.9195276,1.3804809,2.9564447,8.259173048,3.389959287,crawl
23/10/2020, 15:17:37,7.661668,-2.550696,1.7339942,0.9964966,1.312064,3.0529616,8.259173048,3.469163018,crawl
23/10/2020, 15:17:37,7.798184,-2.7758276,1.6621436,0.9964966,1.312064,3.0529616,8.44272544,3.469163018,crawl
23/10/2020, 15:17:37,7.798184,-2.7758276,1.6621436,1.1333303,1.2094387,3.1238217,8.44272544,3.536303413,crawl
23/10/2020, 15:17:37,8.353828,-2.8380983,1.463357,1.1333303,1.2094387,3.1238217,8.943302799,3.536303413,crawl
23/10/2020, 15:17:37,8.353828,-2.8380983,1.463357,1.275051,1.1202524,3.159252,8.943302799,3.58630634,crawl
23/10/2020, 15:17:37,9.105865,-2.7207422,1.3555812,1.275051,1.1202524,3.159252,9.599833712,3.58630634,crawl
23/10/2020, 15:17:37,9.105865,-2.7207422,1.3555812,1.4118848,1.0445051,3.1470346,9.599833712,3.603919623,crawl
23/10/2020, 15:17:37,9.800421,-2.5962012,1.3843213,1.4118848,1.0445051,3.1470346,10.23253894,3.603919623,crawl
23/10/2020, 15:17:37,9.800421,-2.5962012,1.3843213,1.4497584,0.97120124,3.063957,10.23253894,3.526026609,crawl
23/10/2020, 15:17:37,10.406361,-2.196233,1.2693604,1.4497584,0.97120124,3.063957,10.7110717,3.526026609,crawl
23/10/2020, 15:17:37,10.406361,-2.196233,1.2693604,1.3874502,0.93943626,2.9100192,10.7110717,3.357941348,crawl
23/10/2020, 15:17:37,10.938055,-2.1291726,1.4944923,1.3874502,0.93943626,2.9100192,11.24312817,3.357941348,crawl
23/10/2020, 15:17:37,10.938055,-2.1291726,1.4944923,1.3960023,0.9321059,2.7670767,11.24312817,3.236411198,crawl
23/10/2020, 15:17:37,11.441009,-2.680027,1.7387843,1.3960023,0.9321059,2.7670767,11.87866123,3.236411198,crawl
23/10/2020, 15:17:37,11.441009,-2.680027,1.7387843,1.4314325,0.93821454,2.588704,11.87866123,3.103326352,crawl
23/10/2020, 15:17:37,11.879297,-3.06323,1.7363893,1.4314325,0.93821454,2.588704,12.3901626,3.103326352,crawl
23/10/2020, 15:17:37,11.879297,-3.06323,1.7363893,1.5181754,0.89301056,2.3675709,12.3901626,2.95088396,crawl
23/10/2020, 15:17:37,12.207415,-3.3530276,1.8537452,1.5181754,0.89301056,2.3675709,12.79453544,2.95088396,crawl
23/10/2020, 15:17:37,12.207415,-3.3530276,1.8537452,1.6757785,0.8294806,2.1378856,12.79453544,2.840215902,crawl
23/10/2020, 15:17:37,12.712764,-3.6907253,1.8896705,1.6757785,0.8294806,2.1378856,13.37186117,2.840215902,crawl
23/10/2020, 15:17:38,9.560919,-3.4631984,2.7734327,1.7759603,0.63278204,0.2845212,10.54024862,1.906672626,crawl
23/10/2020, 15:17:38,9.766891,-3.6859353,2.7518775,1.7759603,0.63278204,0.2845212,10.79588344,1.906672626,crawl
23/10/2020, 15:17:38,9.766891,-3.6859353,2.7518775,1.8358251,0.7085293,0.3737075,10.79588344,2.002978982,crawl
23/10/2020, 15:17:38,9.891431,-3.8368216,2.560276,1.8358251,0.7085293,0.3737075,10.91405595,2.002978982,crawl
23/10/2020, 15:17:38,9.891431,-3.8368216,2.560276,1.8969116,0.76839405,0.45311996,10.91405595,2.096191981,crawl
23/10/2020, 15:17:38,9.972861,-3.8176613,2.3638844,1.8969116,0.76839405,0.45311996,10.93711341,2.096191981,crawl
23/10/2020, 15:17:38,9.972861,-3.8176613,2.3638844,1.9445591,0.8148198,0.5215369,10.93711341,2.1719213,crawl
23/10/2020, 15:17:38,10.071057,-3.6811452,2.179468,1.9445591,0.8148198,0.5215369,10.9419882,2.1719213,crawl
23/10/2020, 15:17:38,10.071057,-3.6811452,2.179468,1.9726589,0.8514717,0.588732,10.9419882,2.227777479,crawl
23/10/2020, 15:17:38,10.140513,-3.5566041,2.0333717,1.9726589,0.8514717,0.588732,10.93682065,2.227777479,crawl
23/10/2020, 15:17:38,10.140513,-3.5566041,2.0333717,1.9689937,0.88568014,0.6608141,10.93682065,2.257884107,crawl
23/10/2020, 15:17:38,10.346485,-3.4871485,1.8369801,1.9689937,0.88568014,0.6608141,11.07178646,2.257884107,crawl
23/10/2020, 15:17:38,10.346485,-3.4871485,1.8369801,1.9335635,0.91011477,0.73656136,11.07178646,2.260420141,crawl
23/10/2020, 15:17:38,10.535691,-3.3793726,1.6214283,1.9335635,0.91011477,0.73656136,11.1825748,2.260420141,crawl
23/10/2020, 15:17:38,10.535691,-3.3793726,1.6214283,1.8859161,0.92966247,0.80619997,11.1825748,2.251868175,crawl
23/10/2020, 15:17:38,10.796748,-3.3362625,1.5064673,1.8859161,0.92966247,0.80619997,11.40043253,2.251868175,crawl
23/10/2020, 15:17:38,10.796748,-3.3362625,1.5064673,1.8321599,0.95409703,0.864843,11.40043253,2.239433945,crawl
23/10/2020, 15:17:38,11.029065,-3.2356715,1.3867164,1.8321599,0.95409703,0.864843,11.57725486,2.239433945,crawl
23/10/2020, 15:17:38,11.029065,-3.2356715,1.3867164,1.7722951,0.99441415,0.9149339,11.57725486,2.228675294,crawl
23/10/2020, 15:17:38,11.1176815,-3.1039455,1.3627661,1.7722951,0.99441415,0.9149339,11.62301386,2.228675294,crawl
23/10/2020, 15:17:38,11.1176815,-3.1039455,1.3627661,1.7051,1.0530572,0.9638031,11.62301386,2.223783287,crawl
23/10/2020, 15:17:38,11.064991,-3.04886,1.3052857,1.7051,1.0530572,0.9638031,11.55133517,2.223783287,crawl
23/10/2020, 15:17:38,11.064991,-3.04886,1.3052857,1.6244658,1.1055917,1.0163375,11.55133517,2.212275765,crawl
23/10/2020, 15:17:38,10.897339,-3.0201197,1.219065,1.6244658,1.1055917,1.0163375,11.3736202,2.212275765,crawl
23/10/2020, 15:17:38,10.897339,-3.0201197,1.219065,1.5255057,1.1373566,1.0676502,11.3736202,2.18188556,crawl
23/10/2020, 15:17:38,10.703342,-3.032095,1.0274634,1.5255057,1.1373566,1.0676502,11.17187631,2.18188556,crawl
23/10/2020, 15:17:38,10.703342,-3.032095,1.0274634,1.4204369,1.1410218,1.1177411,11.17187631,2.137502494,crawl
23/10/2020, 15:17:38,10.624307,-3.168611,0.84065187,1.4204369,1.1410218,1.1177411,11.11857383,2.137502494,crawl
23/10/2020, 15:17:38,10.624307,-3.168611,0.84065187,1.3275855,1.1068133,1.1629452,11.11857383,2.083257133,crawl
23/10/2020, 15:17:38,10.854229,-3.4943337,0.76161623,1.3275855,1.1068133,1.1629452,11.42824196,2.083257133,crawl
23/10/2020, 15:17:39,13.776153,-1.7914747,3.0416749,0.7741417,-1.5724406,-1.5773953,14.22123582,2.357973903,crawl
23/10/2020, 15:17:39,13.776153,-1.7914747,3.0416749,0.47237438,-1.2938862,-1.5456303,14.22123582,2.07032658,crawl
23/10/2020, 15:17:39,13.43127,-1.9399658,3.3482375,0.47237438,-1.2938862,-1.5456303,13.97759515,2.07032658,crawl
23/10/2020, 15:17:39,13.43127,-1.9399658,3.3482375,0.1632767,-1.0935224,-1.493096,13.97759515,1.857898338,crawl
23/10/2020, 15:17:39,12.71995,-1.9399658,3.7625759,0.1632767,-1.0935224,-1.493096,13.40587802,1.857898338,crawl
23/10/2020, 15:17:39,12.71995,-1.9399658,3.7625759,-0.1299385,-0.9591322,-1.4307877,13.40587802,1.727417718,crawl
23/10/2020, 15:17:39,11.8002615,-1.9184108,4.3493557,-0.1299385,-0.9591322,-1.4307877,12.72176742,1.727417718,crawl
23/10/2020, 15:17:39,11.8002615,-1.9184108,4.3493557,-0.34740645,-0.82718533,-1.3709229,12.72176742,1.638400584,crawl
23/10/2020, 15:17:39,11.05541,-1.8681153,4.6128078,-0.34740645,-0.82718533,-1.3709229,12.12394115,1.638400584,crawl
23/10/2020, 15:17:39,11.05541,-1.8681153,4.6128078,-0.5086748,-0.7050123,-1.3110582,12.12394115,1.573107096,crawl
23/10/2020, 15:17:39,10.37283,-1.9279908,4.5457473,-0.5086748,-0.7050123,-1.3110582,11.4881059,1.573107096,crawl
23/10/2020, 15:17:39,10.37283,-1.9279908,4.5457473,-0.6418434,-0.5999436,-1.2328675,11.4881059,1.513888187,crawl
23/10/2020, 15:17:39,9.575289,-1.9112257,4.3254056,-0.6418434,-0.5999436,-1.2328675,10.6793292,1.513888187,crawl
23/10/2020, 15:17:39,9.575289,-1.9112257,4.3254056,-0.73958176,-0.52541804,-1.1033641,10.6793292,1.428445891,crawl
23/10/2020, 15:17:39,8.933423,-1.9830762,3.9733377,-0.73958176,-0.52541804,-1.1033641,9.976274385,1.428445891,crawl
23/10/2020, 15:17:39,8.933423,-1.9830762,3.9733377,-0.78722924,-0.480214,-0.940874,9.976274385,1.317413834,crawl
23/10/2020, 15:17:39,8.514295,-2.3543043,3.6404297,-0.78722924,-0.480214,-0.940874,9.554511521,1.317413834,crawl
23/10/2020, 15:17:39,8.514295,-2.3543043,3.6404297,-0.7957814,-0.42767963,-0.786936,9.554511521,1.198101041,crawl
23/10/2020, 15:17:39,8.377779,-2.7159522,3.4943337,-0.7957814,-0.42767963,-0.786936,9.474911373,1.198101041,crawl
23/10/2020, 15:17:39,8.377779,-2.7159522,3.4943337,-0.7481339,-0.34948888,-0.71241045,9.474911373,1.090584916,crawl
23/10/2020, 15:17:39,8.425679,-3.0033545,3.4655933,-0.7481339,-0.34948888,-0.71241045,9.592838257,1.090584916,crawl
23/10/2020, 15:17:39,8.425679,-3.0033545,3.4655933,-0.6320695,-0.25785914,-0.6904193,9.592838257,0.970918152,crawl
23/10/2020, 15:17:39,8.440049,-3.3147073,3.535049,-0.6320695,-0.25785914,-0.6904193,9.732331967,0.970918152,crawl
23/10/2020, 15:17:39,8.440049,-3.3147073,3.535049,-0.49401402,-0.20654647,-0.59512436,9.732331967,0.800552503,crawl
23/10/2020, 15:17:39,8.487949,-3.276387,3.4703834,-0.49401402,-0.20654647,-0.59512436,9.73773881,0.800552503,crawl
23/10/2020, 15:17:39,8.487949,-3.276387,3.4703834,-0.43659276,-0.21265511,-0.50471634,9.73773881,0.70040989,crawl
23/10/2020, 15:17:39,8.868757,-2.8788135,3.6188745,-0.43659276,-0.21265511,-0.50471634,10.00193358,0.70040989,crawl
23/10/2020, 15:17:39,8.868757,-2.8788135,3.6188745,-0.45491868,-0.20288128,-0.45584717,10.00193358,0.675209942,crawl
23/10/2020, 15:17:39,9.172925,-2.6704469,3.7027004,-0.45491868,-0.20288128,-0.45584717,10.2461617,0.675209942,crawl
23/10/2020, 15:17:39,9.172925,-2.6704469,3.7027004,-0.5135617,-0.14545996,-0.4191953,10.2461617,0.678696502,crawl
23/10/2020, 15:17:40,8.372989,-2.4884255,1.1903248,-0.4915706,-0.7709858,-0.30068746,8.815672085,0.962535024,crawl
23/10/2020, 15:17:40,8.372989,-2.4884255,1.1903248,-0.3913887,-0.84551126,-0.43263432,8.815672085,1.027252097,crawl
23/10/2020, 15:17:40,8.873548,-2.550696,1.331631,-0.3913887,-0.84551126,-0.43263432,9.328404833,1.027252097,crawl
23/10/2020, 15:17:40,8.873548,-2.550696,1.331631,-0.32785875,-0.9065978,-0.56091595,9.328404833,1.115364342,crawl
23/10/2020, 15:17:40,9.307046,-2.5914114,1.3555812,-0.32785875,-0.9065978,-0.56091595,9.755722277,1.115364342,crawl
23/10/2020, 15:17:40,9.307046,-2.5914114,1.3555812,-0.31441975,-0.9725712,-0.67820203,9.755722277,1.226667234,crawl
23/10/2020, 15:17:40,9.630374,-2.4788454,1.3052857,-0.31441975,-0.9725712,-0.67820203,10.02958362,1.226667234,crawl
23/10/2020, 15:17:40,9.630374,-2.4788454,1.3052857,-0.32297182,-1.0446532,-0.8101489,10.02958362,1.360864538,crawl
23/10/2020, 15:17:40,10.008787,-2.3974147,1.2765454,-0.32297182,-1.0446532,-0.8101489,10.37077556,1.360864538,crawl
23/10/2020, 15:17:40,10.008787,-2.3974147,1.2765454,-0.35962373,-1.1216222,-0.9604217,10.37077556,1.519794527,crawl
23/10/2020, 15:17:40,10.473421,-2.2273684,1.2909156,-0.35962373,-1.1216222,-0.9604217,10.78518346,1.519794527,crawl
23/10/2020, 15:17:40,10.473421,-2.2273684,1.2909156,-0.390167,-1.2108085,-1.1290205,10.78518346,1.700874695,crawl
23/10/2020, 15:17:40,11.136841,-2.0309765,1.5256275,-0.390167,-1.2108085,-1.1290205,11.42285553,1.700874695,crawl
23/10/2020, 15:17:40,11.136841,-2.0309765,1.5256275,-0.38772357,-1.2755601,-1.3135016,11.42285553,1.871542059,crawl
23/10/2020, 15:17:40,11.833792,-1.8537452,1.8202149,-0.38772357,-1.2755601,-1.3135016,12.11561721,1.871542059,crawl
23/10/2020, 15:17:40,11.833792,-1.8537452,1.8202149,-0.36084545,-1.285334,-1.4979829,12.11561721,2.00655066,crawl
23/10/2020, 15:17:40,12.212205,-1.9208057,1.8202149,-0.36084545,-1.285334,-1.4979829,12.49562427,2.00655066,crawl
23/10/2020, 15:17:40,12.212205,-1.9208057,1.8202149,-0.36695415,-1.2743385,-1.6812423,12.49562427,2.141300947,crawl
23/10/2020, 15:17:40,12.535533,-1.9303858,1.5280225,-0.36695415,-1.2743385,-1.6812423,12.77500797,2.141300947,crawl
23/10/2020, 15:17:40,12.535533,-1.9303858,1.5280225,-0.38283664,-1.335425,-1.8852713,12.77500797,2.341830863,crawl
23/10/2020, 15:17:40,12.961846,-1.7699195,1.0442286,-0.38283664,-1.335425,-1.8852713,13.12373762,2.341830863,crawl
23/10/2020, 15:17:40,12.961846,-1.7699195,1.0442286,-0.41460162,-1.497915,-2.1174,13.12373762,2.626599781,crawl
23/10/2020, 15:17:40,14.025235,-1.7028589,0.99393314,-0.41460162,-1.497915,-2.1174,14.16315125,2.626599781,crawl
23/10/2020, 15:17:40,14.025235,-1.7028589,0.99393314,-0.46347082,-1.6799529,-2.3544157,14.16315125,2.929218306,crawl
23/10/2020, 15:17:40,15.347286,-1.9711012,1.3651612,-0.46347082,-1.6799529,-2.3544157,15.53345098,2.929218306,crawl
23/10/2020, 15:17:40,15.347286,-1.9711012,1.3651612,-0.5098965,-1.7691392,-2.552336,15.53345098,3.147104511,crawl
23/10/2020, 15:17:40,16.525635,-2.6321266,2.2225783,-0.5098965,-1.7691392,-2.552336,16.88089301,3.147104511,crawl
23/10/2020, 15:17:40,16.525635,-2.6321266,2.2225783,-0.48301846,-1.7166047,-2.6903913,16.88089301,3.227730459,crawl
23/10/2020, 15:17:40,16.700472,-3.4775686,3.403323,-0.48301846,-1.7166047,-2.6903913,17.39488004,3.227730459,crawl
23/10/2020, 15:17:40,16.700472,-3.4775686,3.403323,-0.29975897,-1.5418973,-2.7551432,17.39488004,3.171453386,crawl
23/10/2020, 15:17:41,8.720266,-3.3745828,-0.34009278,1.5951443,0.46907023,1.4378344,9.356629576,2.198153733,crawl
23/10/2020, 15:17:41,8.6077,-3.1997461,-0.4742139,1.5951443,0.46907023,1.4378344,9.195420567,2.198153733,crawl
23/10/2020, 15:17:41,8.6077,-3.1997461,-0.4742139,1.4570888,0.48983964,1.3633089,9.195420567,2.05466832,crawl
23/10/2020, 15:17:41,8.5430355,-3.1111305,-0.57959473,1.4570888,0.48983964,1.3633089,9.110352275,2.05466832,crawl
23/10/2020, 15:17:41,8.5430355,-3.1111305,-0.57959473,1.2970421,0.5008352,1.2887833,9.110352275,1.895815548,crawl
23/10/2020, 15:17:41,8.487949,-3.06323,-0.6179151,1.2970421,0.5008352,1.2887833,9.044914696,1.895815548,crawl
23/10/2020, 15:17:41,8.487949,-3.06323,-0.6179151,1.1272217,0.49961346,1.2069274,9.044914696,1.725374213,crawl
23/10/2020, 15:17:41,8.538245,-3.0201197,-0.60594,1.1272217,0.49961346,1.2069274,9.07688918,1.725374213,crawl
23/10/2020, 15:17:41,8.538245,-3.0201197,-0.60594,0.958623,0.48373097,1.1104107,9.07688918,1.544657112,crawl
23/10/2020, 15:17:41,8.461604,-3.0416749,-0.57959473,0.958623,0.48373097,1.1104107,9.010352946,1.544657112,crawl
23/10/2020, 15:17:41,8.461604,-3.0416749,-0.57959473,0.7973546,0.4556312,1.0151157,9.010352946,1.368880591,crawl
23/10/2020, 15:17:41,8.461604,-3.0416749,-0.57959473,0.65685564,0.42508793,0.9185991,9.010352946,1.206641389,crawl
23/10/2020, 15:17:41,8.370594,-3.06323,-0.5460645,0.65685564,0.42508793,0.9185991,8.930196472,1.206641389,crawl
23/10/2020, 15:17:41,8.262817,-3.0799952,-0.5029541,0.65685564,0.42508793,0.9185991,8.832524221,1.206641389,crawl
23/10/2020, 15:17:41,8.262817,-3.0799952,-0.5029541,0.5505651,0.35667107,0.82086074,8.832524221,1.050784737,crawl
23/10/2020, 15:17:41,8.121511,-3.1901662,-0.38080812,0.5505651,0.35667107,0.82086074,8.733906561,1.050784737,crawl
23/10/2020, 15:17:41,8.121511,-3.1901662,-0.38080812,0.4601571,0.28092378,0.7267875,8.733906561,0.904921437,crawl
23/10/2020, 15:17:41,8.040081,-3.319497,-0.2945874,0.4601571,0.28092378,0.7267875,8.703375533,0.904921437,crawl
23/10/2020, 15:17:41,8.040081,-3.319497,-0.2945874,0.40029234,0.19295925,0.62660563,8.703375533,0.768180866,crawl
23/10/2020, 15:17:41,8.006551,-3.410508,-0.2682422,0.40029234,0.19295925,0.62660563,8.706800427,0.768180866,crawl
23/10/2020, 15:17:41,8.006551,-3.410508,-0.2682422,0.3575318,0.11110334,0.5227586,8.706800427,0.643000379,crawl
23/10/2020, 15:17:41,8.080796,-3.527864,-0.21555176,0.3575318,0.11110334,0.5227586,8.819952082,0.643000379,crawl
23/10/2020, 15:17:41,8.080796,-3.527864,-0.21555176,0.33065373,0.032912616,0.4140246,8.819952082,0.530878037,crawl
23/10/2020, 15:17:41,8.054451,-3.5733693,-0.17962648,0.33065373,0.032912616,0.4140246,8.813365663,0.530878037,crawl
23/10/2020, 15:17:41,8.054451,-3.5733693,-0.17962648,0.31354952,-0.037947726,0.31139928,8.813365663,0.443534489,crawl
23/10/2020, 15:17:41,7.9826,-3.6404297,-0.14849122,0.31354952,-0.037947726,0.31139928,8.774775464,0.443534489,crawl
23/10/2020, 15:17:41,7.9826,-3.6404297,-0.14849122,0.31965816,-0.111251526,0.22465645,8.774775464,0.406237321,crawl
23/10/2020, 15:17:41,7.8652444,-3.661985,-0.035925295,0.31965816,-0.111251526,0.22465645,8.676029822,0.406237321,crawl
23/10/2020, 15:17:41,7.8652444,-3.661985,-0.035925295,0.3392058,-0.18699878,0.15013091,8.676029822,0.415413543,crawl
23/10/2020, 15:17:41,7.702383,-3.7338357,0.100590825,0.3392058,-0.18699878,0.15013091,8.560277568,0.415413543,crawl
23/10/2020, 15:17:42,13.067227,-4.160149,1.3531861,1.755191,0.79160696,1.810462,13.780072,2.642935785,crawl
23/10/2020, 15:17:42,11.03625,-3.8799317,0.92926764,1.755191,0.79160696,1.810462,11.73525564,2.642935785,crawl
23/10/2020, 15:17:42,11.03625,-3.8799317,0.92926764,1.6965479,0.7818331,1.9863912,11.73525564,2.726772382,crawl
23/10/2020, 15:17:42,9.596844,-3.6021094,0.63707525,1.6965479,0.7818331,1.9863912,10.27036838,2.726772382,crawl
23/10/2020, 15:17:42,9.596844,-3.6021094,0.63707525,1.6269093,0.773281,2.1879766,10.27036838,2.834085178,crawl
23/10/2020, 15:17:42,8.655601,-3.2668068,0.19160157,1.6269093,0.773281,2.1879766,9.253548451,2.834085178,crawl
23/10/2020, 15:17:42,8.655601,-3.2668068,0.19160157,1.5572706,0.7305204,2.3871186,9.253548451,2.942292824,crawl
23/10/2020, 15:17:42,8.155042,-2.9171338,-0.25866213,1.5572706,0.7305204,2.3871186,8.664945516,2.942292824,crawl
23/10/2020, 15:17:42,8.155042,-2.9171338,-0.25866213,1.4827452,0.62911683,2.570378,8.664945516,3.033342155,crawl
23/10/2020, 15:17:42,8.159832,-2.7566676,-0.53169435,1.4827452,0.62911683,2.570378,8.629297393,3.033342155,crawl
23/10/2020, 15:17:42,8.159832,-2.7566676,-0.53169435,1.3911154,0.48739618,2.7218726,8.629297393,3.09537517,crawl
23/10/2020, 15:17:42,8.976534,-2.802173,-0.488584,1.3911154,0.48739618,2.7218726,9.416424373,3.09537517,crawl
23/10/2020, 15:17:42,8.976534,-2.802173,-0.488584,1.3043725,0.38843605,2.8257196,9.416424373,3.136393078,crawl
23/10/2020, 15:17:42,10.171648,-2.9794044,-0.23471193,1.3043725,0.38843605,2.8257196,10.60162083,3.136393078,crawl
23/10/2020, 15:17:42,10.171648,-2.9794044,-0.23471193,1.2518382,0.36888835,2.8941367,10.60162083,3.174776301,crawl
23/10/2020, 15:17:42,11.163186,-3.1278956,0.1460962,1.2518382,0.36888835,2.8941367,11.5940415,3.174776301,crawl
23/10/2020, 15:17:42,11.163186,-3.1278956,0.1460962,1.2628337,0.39943162,2.9307885,11.5940415,3.216180334,crawl
23/10/2020, 15:17:42,11.829002,-3.1853762,0.5245093,1.2628337,0.39943162,2.9307885,12.26160791,3.216180334,crawl
23/10/2020, 15:17:42,11.829002,-3.1853762,0.5245093,1.3312507,0.46296158,2.936897,12.26160791,3.257595123,crawl
23/10/2020, 15:17:42,12.102035,-3.2644117,0.8262818,1.3312507,0.46296158,2.936897,12.56178196,3.257595123,crawl
23/10/2020, 15:17:42,12.102035,-3.2644117,0.8262818,1.4314325,0.5411523,2.919793,12.56178196,3.296518663,crawl
23/10/2020, 15:17:42,12.0253935,-3.2739918,0.974773,1.4314325,0.5411523,2.919793,12.50117168,3.296518663,crawl
23/10/2020, 15:17:42,12.0253935,-3.2739918,0.974773,1.551162,0.6071257,2.8684802,12.50117168,3.317059521,crawl
23/10/2020, 15:17:42,11.754756,-3.2811768,0.99393314,1.551162,0.6071257,2.8684802,12.24452173,3.317059521,crawl
23/10/2020, 15:17:42,11.754756,-3.2811768,0.99393314,1.6647829,0.65355146,2.787846,12.24452173,3.312207325,crawl
23/10/2020, 15:17:42,11.414663,-3.159031,0.9532178,1.6647829,0.65355146,2.787846,11.88203009,3.312207325,crawl
23/10/2020, 15:17:42,11.414663,-3.159031,0.9532178,1.7515258,0.68165123,2.683999,11.88203009,3.276635753,crawl
23/10/2020, 15:17:42,11.160791,-3.0177248,0.6993457,1.7515258,0.68165123,2.683999,11.58270313,3.276635753,crawl
23/10/2020, 15:17:42,11.160791,-3.0177248,0.6993457,1.7832907,0.6938685,2.5716,11.58270313,3.205418187,crawl
23/10/2020, 15:17:42,11.064991,-2.8452833,0.44547364,1.7832907,0.6938685,2.5716,11.43363938,3.205418187,crawl
23/10/2020, 15:17:43,8.152647,-1.1543995,0.8095166,-0.03586529,0.2760369,0.66570103,8.273669608,0.721554257,crawl
23/10/2020, 15:17:43,7.8772197,-1.1112891,0.9316626,-0.03586529,0.2760369,0.66570103,8.00959104,0.721554257,crawl
23/10/2020, 15:17:43,7.8772197,-1.1112891,0.9316626,-0.024869718,0.21250694,0.70113117,8.00959104,0.73305021,crawl
23/10/2020, 15:17:43,7.8556643,-0.96758795,1.0274634,-0.024869718,0.21250694,0.70113117,7.981438994,0.73305021,crawl
23/10/2020, 15:17:43,7.8556643,-0.96758795,1.0274634,-0.011430688,0.15142043,0.7243441,7.981438994,0.740089958,crawl
23/10/2020, 15:17:43,8.1143265,-0.8143067,1.0490186,-0.011430688,0.15142043,0.7243441,8.222276425,0.740089958,crawl
23/10/2020, 15:17:43,8.1143265,-0.8143067,1.0490186,-0.026091449,0.10255123,0.7255658,8.222276425,0.733241594,crawl
23/10/2020, 15:17:43,8.626861,-0.7592212,1.1424243,-0.026091449,0.10255123,0.7255658,8.735231785,0.733241594,crawl
23/10/2020, 15:17:43,8.626861,-0.7592212,1.1424243,-0.0566347,0.0768949,0.7060181,8.735231785,0.712447794,crawl
23/10/2020, 15:17:43,9.22801,-0.8909473,1.1975098,-0.0566347,0.0768949,0.7060181,9.347940337,0.712447794,crawl
23/10/2020, 15:17:43,9.22801,-0.8909473,1.1975098,-0.08839968,0.07933836,0.67914003,9.347940337,0.689449244,crawl
23/10/2020, 15:17:43,9.721385,-1.0346485,1.2717555,-0.08839968,0.07933836,0.67914003,9.858660452,0.689449244,crawl
23/10/2020, 15:17:43,9.721385,-1.0346485,1.2717555,-0.11283428,0.10499469,0.64737505,9.858660452,0.665469693,crawl
23/10/2020, 15:17:43,10.025552,-1.4202466,1.3124708,-0.11283428,0.10499469,0.64737505,10.21035596,0.665469693,crawl
23/10/2020, 15:17:43,10.025552,-1.4202466,1.3124708,-0.13604715,0.14286833,0.607058,10.21035596,0.638309947,crawl
23/10/2020, 15:17:43,10.059082,-1.6429834,1.3627661,-0.13604715,0.14286833,0.607058,10.28307626,0.638309947,crawl
23/10/2020, 15:17:43,10.059082,-1.6429834,1.3627661,-0.13360369,0.17096812,0.56551915,10.28307626,0.605716069,crawl
23/10/2020, 15:17:43,10.075848,-1.6836988,1.2957057,-0.13360369,0.17096812,0.56551915,10.29739774,0.605716069,crawl
23/10/2020, 15:17:43,10.075848,-1.6836988,1.2957057,-0.09939525,0.17096812,0.52642375,10.29739774,0.562344627,crawl
23/10/2020, 15:17:43,10.142908,-1.7435743,1.2286451,-0.09939525,0.17096812,0.52642375,10.36475782,0.562344627,crawl
23/10/2020, 15:17:43,10.142908,-1.7435743,1.2286451,-0.052969508,0.15508562,0.49832395,10.36475782,0.524579904,crawl
23/10/2020, 15:17:43,10.461446,-1.7986598,1.1160791,-0.052969508,0.15508562,0.49832395,10.67345577,0.524579904,crawl
23/10/2020, 15:17:43,10.461446,-1.7986598,1.1160791,-0.018761069,0.1257641,0.48610666,10.67345577,0.502462213,crawl
23/10/2020, 15:17:43,10.8925495,-1.8705103,0.98914313,-0.018761069,0.1257641,0.48610666,11.09616366,0.502462213,crawl
23/10/2020, 15:17:43,10.8925495,-1.8705103,0.98914313,7.87E-04,0.09277739,0.4922153,11.09616366,0.500883389,crawl
23/10/2020, 15:17:43,11.383529,-1.951941,0.88376224,7.87E-04,0.09277739,0.4922153,11.58342934,0.500883389,crawl
23/10/2020, 15:17:43,11.383529,-1.951941,0.88376224,0.009338722,0.062234137,0.5080978,11.58342934,0.511980177,crawl
23/10/2020, 15:17:43,11.876903,-2.0070264,0.8765772,0.009338722,0.062234137,0.5080978,12.07714195,0.511980177,crawl
23/10/2020, 15:17:43,11.876903,-2.0070264,0.8765772,0.03621678,0.013364935,0.52520204,12.07714195,0.52661889,crawl
23/10/2020, 15:17:43,12.422967,-2.198628,1.0466236,0.03621678,0.013364935,0.52520204,12.65936388,0.52661889,crawl
23/10/2020, 15:17:44,10.756033,-0.33290774,0.366438,-1.2356042,-0.6365954,-1.2499716,10.76742072,1.869331556,crawl
23/10/2020, 15:17:44,10.724898,-0.7664063,1.0370435,-1.2356042,-0.6365954,-1.2499716,10.80214248,1.869331556,crawl
23/10/2020, 15:17:44,10.724898,-0.7664063,1.0370435,-1.3699944,-0.65736485,-1.2499716,10.80214248,1.967598097,crawl
23/10/2020, 15:17:44,10.763218,-1.2478052,1.7220191,-1.3699944,-0.65736485,-1.2499716,10.97129107,1.967598097,crawl
23/10/2020, 15:17:44,10.763218,-1.2478052,1.7220191,-1.3822118,-0.6830212,-1.2475282,10.97129107,1.983268518,crawl
23/10/2020, 15:17:44,10.653048,-1.949546,2.5075855,-1.3822118,-0.6830212,-1.2475282,11.11648043,1.983268518,crawl
23/10/2020, 15:17:44,10.653048,-1.949546,2.5075855,-1.2490432,-0.69646025,-1.2365327,11.11648043,1.890549906,crawl
23/10/2020, 15:17:44,10.468631,-2.574646,3.1231055,-1.2490432,-0.69646025,-1.2365327,11.22385053,1.890549906,crawl
23/10/2020, 15:17:44,10.468631,-2.574646,3.1231055,-0.9998102,-0.7050123,-1.2096546,11.22385053,1.720443845,crawl
23/10/2020, 15:17:44,10.27224,-2.8955786,3.439248,-0.9998102,-0.7050123,-1.2096546,11.21301525,1.720443845,crawl
23/10/2020, 15:17:44,10.27224,-2.8955786,3.439248,-0.71759063,-0.72578174,-1.1839982,11.21301525,1.563184969,crawl
23/10/2020, 15:17:44,9.975257,-3.056045,3.3985329,-0.71759063,-0.72578174,-1.1839982,10.97247409,1.563184969,crawl
23/10/2020, 15:17:44,9.975257,-3.056045,3.3985329,-0.46224904,-0.77587265,-1.180333,10.97247409,1.486216194,crawl
23/10/2020, 15:17:44,9.656719,-3.1015503,3.403323,-0.46224904,-0.77587265,-1.180333,10.69833853,1.486216194,crawl
23/10/2020, 15:17:44,9.656719,-3.1015503,3.403323,-0.2887634,-0.8381809,-1.1730027,10.69833853,1.470328842,crawl
23/10/2020, 15:17:44,9.457932,-3.2548318,3.3889527,-0.2887634,-0.8381809,-1.1730027,10.56084359,1.470328842,crawl
23/10/2020, 15:17:44,9.457932,-3.2548318,3.3889527,-0.16781214,-0.8736111,-1.144903,10.56084359,1.449882756,crawl
23/10/2020, 15:17:44,9.311836,-3.4057178,3.4943337,-0.16781214,-0.8736111,-1.144903,10.51282914,1.449882756,crawl
23/10/2020, 15:17:44,9.311836,-3.4057178,3.4943337,-0.07007373,-0.8736111,-1.1058075,10.51282914,1.410998579,crawl
23/10/2020, 15:17:44,9.3453665,-3.5182838,3.6931202,-0.07007373,-0.8736111,-1.1058075,10.64675222,1.410998579,crawl
23/10/2020, 15:17:44,9.3453665,-3.5182838,3.6931202,0.016669102,-0.8247419,-1.0459428,10.64675222,1.332093603,crawl
23/10/2020, 15:17:44,9.364527,-3.3769777,3.786526,0.016669102,-0.8247419,-1.0459428,10.65063934,1.332093603,crawl
23/10/2020, 15:17:44,9.364527,-3.3769777,3.786526,0.096081555,-0.7526598,-0.9799693,10.65063934,1.239382229,crawl
23/10/2020, 15:17:44,9.364527,-2.8883936,3.4775686,0.096081555,-0.7526598,-0.9799693,10.39858945,1.239382229,crawl
23/10/2020, 15:17:44,9.364527,-2.8883936,3.4775686,0.07653388,-0.6463693,-0.9139959,10.39858945,1.12206917,crawl
23/10/2020, 15:17:44,9.1849,-2.3471193,3.1853762,0.07653388,-0.6463693,-0.9139959,10.00089914,1.12206917,crawl
23/10/2020, 15:17:44,9.1849,-2.3471193,3.1853762,-0.002878578,-0.5290832,-0.8590181,10.00089914,1.008885219,crawl
23/10/2020, 15:17:44,9.050779,-2.0142114,2.7279274,-0.002878578,-0.5290832,-0.8590181,9.665156103,1.008885219,crawl
23/10/2020, 15:17:44,9.050779,-2.0142114,2.7279274,-0.1262733,-0.45333594,-0.7954881,9.665156103,0.924261743,crawl
23/10/2020, 15:17:44,9.096285,-1.9375709,2.3998096,-0.1262733,-0.45333594,-0.7954881,9.60498129,0.924261743,crawl
23/10/2020, 15:17:45,7.6185575,-2.3926246,0.852627,-0.62473917,0.013364935,-0.20783597,8.030818326,0.65853887,crawl
23/10/2020, 15:17:45,7.6185575,-2.3926246,0.852627,-0.5990828,-0.06726924,-0.32756552,8.030818326,0.686093693,crawl
23/10/2020, 15:17:45,7.9682302,-2.430945,0.85741705,-0.5990828,-0.06726924,-0.32756552,8.374804503,0.686093693,crawl
23/10/2020, 15:17:45,7.9682302,-2.430945,0.85741705,-0.5599874,-0.13202094,-0.45462546,8.374804503,0.733280131,crawl
23/10/2020, 15:17:45,8.322693,-2.4980054,0.847837,-0.5599874,-0.13202094,-0.45462546,8.730754554,0.733280131,crawl
23/10/2020, 15:17:45,8.322693,-2.4980054,0.847837,-0.525779,-0.19066398,-0.5853505,8.730754554,0.809587267,crawl
23/10/2020, 15:17:45,8.720266,-2.5315359,0.8286768,-0.525779,-0.19066398,-0.5853505,9.118027428,0.809587267,crawl
23/10/2020, 15:17:45,8.720266,-2.5315359,0.8286768,-0.5050096,-0.24808529,-0.7063018,9.118027428,0.903018961,crawl
23/10/2020, 15:17:45,9.12263,-2.335144,0.77359134,-0.5050096,-0.24808529,-0.7063018,9.448477208,0.903018961,crawl
23/10/2020, 15:17:45,9.12263,-2.335144,0.77359134,-0.49523574,-0.32261083,-0.81870097,9.448477208,1.009756139,crawl
23/10/2020, 15:17:45,9.623189,-2.1267774,0.43589357,-0.49523574,-0.32261083,-0.81870097,9.865036815,1.009756139,crawl
23/10/2020, 15:17:45,9.623189,-2.1267774,0.43589357,-0.51478344,-0.42767963,-0.9262132,9.865036815,1.142708518,crawl
23/10/2020, 15:17:45,10.375225,-1.8441651,0.026345216,-0.51478344,-0.42767963,-0.9262132,10.53788091,1.142708518,crawl
23/10/2020, 15:17:45,10.375225,-1.8441651,0.026345216,-0.57220477,-0.55473953,-1.0398341,10.53788091,1.310118045,crawl
23/10/2020, 15:17:45,11.421848,-1.719624,-0.21555176,-0.57220477,-0.55473953,-1.0398341,11.5525836,1.310118045,crawl
23/10/2020, 15:17:45,11.421848,-1.719624,-0.21555176,-0.6320695,-0.6622518,-1.1620071,11.5525836,1.479307196,crawl
23/10/2020, 15:17:45,12.372671,-1.829795,0.07185059,-0.6320695,-0.6622518,-1.1620071,12.5074499,1.479307196,crawl
23/10/2020, 15:17:45,12.372671,-1.829795,0.07185059,-0.68582565,-0.6524779,-1.2744063,12.5074499,1.587512427,crawl
23/10/2020, 15:17:45,12.741505,-2.2129982,0.38559815,-0.68582565,-0.6524779,-1.2744063,12.93800556,1.587512427,crawl
23/10/2020, 15:17:45,12.741505,-2.2129982,0.38559815,-0.7163689,-0.5449657,-1.3758099,12.93800556,1.644087869,crawl
23/10/2020, 15:17:45,12.482842,-2.3543043,0.51013917,-0.7163689,-0.5449657,-1.3758099,12.71315643,1.644087869,crawl
23/10/2020, 15:17:45,12.482842,-2.3543043,0.51013917,-0.68949085,-0.5290832,-1.4967611,12.71315643,1.730786066,crawl
23/10/2020, 15:17:45,12.008629,-2.1004322,0.31853762,-0.68949085,-0.5290832,-1.4967611,12.19509935,1.730786066,crawl
23/10/2020, 15:17:45,12.008629,-2.1004322,0.31853762,-0.6638345,-0.6756908,-1.6482557,12.19509935,1.901047403,crawl
23/10/2020, 15:17:45,12.418177,-1.7603394,-0.15567628,-0.6638345,-0.6756908,-1.6482557,12.54329068,1.901047403,crawl
23/10/2020, 15:17:45,12.418177,-1.7603394,-0.15567628,-0.70537335,-0.91514987,-1.8058589,12.54329068,2.143869638,crawl
23/10/2020, 15:17:45,13.98452,-1.3867164,-0.60594,-0.70537335,-0.91514987,-1.8058589,14.06616309,2.143869638,crawl
23/10/2020, 15:17:45,13.98452,-1.3867164,-0.60594,-0.7957814,-1.1729349,-2.0159965,14.06616309,2.464403774,crawl
23/10/2020, 15:17:45,16.264578,-1.5567628,-0.852627,-0.7957814,-1.1729349,-2.0159965,16.36114227,2.464403774,crawl
23/10/2020, 15:17:45,16.264578,-1.5567628,-0.852627,-0.9142892,-1.3342032,-2.2432382,16.36114227,2.765527194,crawl
23/10/2020, 15:17:46,11.615846,-2.069297,1.8705103,-1.1280919,1.2521992,1.5685595,11.94607342,2.302384235,crawl
23/10/2020, 15:17:46,11.615846,-2.069297,1.8705103,-1.1940653,1.3035119,1.5673378,11.94607342,2.362516203,crawl
23/10/2020, 15:17:46,11.496095,-2.0213966,1.6046631,-1.1940653,1.3035119,1.5673378,11.78224009,2.362516203,crawl
23/10/2020, 15:17:46,11.496095,-2.0213966,1.6046631,-1.2527084,1.3780375,1.5587857,11.78224009,2.428595979,crawl
23/10/2020, 15:17:46,11.108101,-2.1195924,1.4585669,-1.2527084,1.3780375,1.5587857,11.40219255,2.428595979,crawl
23/10/2020, 15:17:46,11.108101,-2.1195924,1.4585669,-1.304021,1.4330152,1.5282423,11.40219255,2.467696921,crawl
23/10/2020, 15:17:46,10.454261,-2.203418,1.3004956,-1.304021,1.4330152,1.5282423,10.76280211,2.467696921,crawl
23/10/2020, 15:17:46,10.454261,-2.203418,1.3004956,-1.3101296,1.4415674,1.4879253,10.76280211,2.451219693,crawl
23/10/2020, 15:17:46,9.944121,-2.339934,1.5256275,-1.3101296,1.4415674,1.4879253,10.32900675,2.451219693,crawl
23/10/2020, 15:17:46,9.944121,-2.339934,1.5256275,-1.2698126,1.4244632,1.44883,10.32900675,2.395960698,crawl
23/10/2020, 15:17:46,9.541759,-2.4189699,1.9040406,-1.2698126,1.4244632,1.44883,10.02606312,2.395960698,crawl
23/10/2020, 15:17:46,9.541759,-2.4189699,1.9040406,-1.208726,1.3963634,1.4085128,10.02606312,2.322661778,crawl
23/10/2020, 15:17:46,9.419612,-2.5075855,2.0621119,-1.208726,1.3963634,1.4085128,9.963401999,2.322661778,crawl
23/10/2020, 15:17:46,9.419612,-2.5075855,2.0621119,-1.1403092,1.3597115,1.3779696,9.963401999,2.246757847,crawl
23/10/2020, 15:17:46,9.4507475,-2.560276,1.954336,-1.1403092,1.3597115,1.3779696,9.984541595,2.246757847,crawl
23/10/2020, 15:17:46,9.4507475,-2.560276,1.954336,-1.0682272,1.3364986,1.3266569,9.984541595,2.165030364,crawl
23/10/2020, 15:17:46,9.529783,-2.5123756,1.7938697,-1.0682272,1.3364986,1.3266569,10.01732342,2.165030364,crawl
23/10/2020, 15:17:46,9.529783,-2.5123756,1.7938697,-1.0303535,1.3291682,1.244801,10.01732342,2.092330322,crawl
23/10/2020, 15:17:46,9.445957,-2.3447242,1.5519727,-1.0303535,1.3291682,1.244801,9.855580044,2.092330322,crawl
23/10/2020, 15:17:46,9.445957,-2.3447242,1.5519727,-1.0352404,1.3450507,1.1482843,9.855580044,2.049253753,crawl
23/10/2020, 15:17:46,9.333391,-2.184258,1.2957057,-1.0352404,1.3450507,1.1482843,9.672746623,2.049253753,crawl
23/10/2020, 15:17:46,9.333391,-2.184258,1.2957057,-1.0621185,1.3755939,1.0346634,9.672746623,2.022593084,crawl
23/10/2020, 15:17:46,9.134604,-2.2177882,1.1591895,-1.0621185,1.3755939,1.0346634,9.471182784,2.022593084,crawl
23/10/2020, 15:17:46,9.134604,-2.2177882,1.1591895,-1.0902183,1.4000286,0.91982085,9.471182784,1.998681161,crawl
23/10/2020, 15:17:46,8.8951025,-2.320774,1.0825489,-1.0902183,1.4000286,0.91982085,9.256389839,1.998681161,crawl
23/10/2020, 15:17:46,8.8951025,-2.320774,1.0825489,-1.0951052,1.3865895,0.81475204,9.256389839,1.945689272,crawl
23/10/2020, 15:17:46,8.638836,-2.5315359,1.089734,-1.0951052,1.3865895,0.81475204,9.067837656,1.945689272,crawl
23/10/2020, 15:17:46,8.638836,-2.5315359,1.089734,-1.064562,1.3597115,0.7304527,9.067837656,1.875011675,crawl
23/10/2020, 15:17:46,8.428074,-2.6033864,1.099314,-1.064562,1.3597115,0.7304527,8.889237389,1.875011675,crawl
23/10/2020, 15:17:46,8.428074,-2.6033864,1.099314,-1.0095841,1.3242813,0.65104026,8.889237389,1.787969368,crawl
23/10/2020, 15:17:47,8.423284,-5.633086,3.4655933,-1.340673,-0.05871714,-0.31290478,10.70951463,1.37795541,crawl
23/10/2020, 15:17:47,8.382568,-5.8055277,3.7218604,-1.340673,-0.05871714,-0.31290478,10.85466945,1.37795541,crawl
23/10/2020, 15:17:47,8.382568,-5.8055277,3.7218604,-1.277143,-0.057495408,-0.27625287,10.85466945,1.307943276,crawl
23/10/2020, 15:17:47,8.356223,-5.9635987,3.9350173,-1.277143,-0.057495408,-0.27625287,10.99433199,1.307943276,crawl
23/10/2020, 15:17:47,8.356223,-5.9635987,3.9350173,-1.1952871,-0.056273676,-0.22982712,10.99433199,1.218482049,crawl
23/10/2020, 15:17:47,8.243657,-6.071375,4.040398,-1.1952871,-0.056273676,-0.22982712,11.0065568,1.218482049,crawl
23/10/2020, 15:17:47,8.243657,-6.071375,4.040398,-1.0951052,-0.045278106,-0.18217964,11.0065568,1.111078245,crawl
23/10/2020, 15:17:47,8.040081,-6.0282645,4.253555,-1.0951052,-0.045278106,-0.18217964,10.9121769,1.111078245,crawl
23/10/2020, 15:17:47,8.040081,-6.0282645,4.253555,-0.9851495,-0.034282535,-0.12964526,10.9121769,0.994234745,crawl
23/10/2020, 15:17:47,7.7359133,-6.0019193,4.2990603,-0.9851495,-0.034282535,-0.12964526,10.69342363,0.994234745,crawl
23/10/2020, 15:17:47,7.7359133,-6.0019193,4.2990603,-0.8861894,-0.042834647,-0.056341458,10.69342363,0.889011148,crawl
23/10/2020, 15:17:47,7.4772515,-6.013894,4.497847,-0.8861894,-0.042834647,-0.056341458,10.59749219,0.889011148,crawl
23/10/2020, 15:17:47,7.4772515,-6.013894,4.497847,-0.7933379,-0.05871714,0.020627532,10.59749219,0.795775214,crawl
23/10/2020, 15:17:47,7.575447,-6.05461,4.6918435,-0.7933379,-0.05871714,0.020627532,10.77307261,0.795775214,crawl
23/10/2020, 15:17:47,7.575447,-6.05461,4.6918435,-0.7041516,-0.05871714,0.08537922,10.77307261,0.711735027,crawl
23/10/2020, 15:17:47,7.7215433,-5.9372535,4.8187795,-0.7041516,-0.05871714,0.08537922,10.86709922,0.711735027,crawl
23/10/2020, 15:17:47,7.7215433,-5.9372535,4.8187795,-0.61985224,-0.05505195,0.15013091,10.86709922,0.640145931,crawl
23/10/2020, 15:17:47,7.9347,-5.8103175,4.854705,-0.61985224,-0.05505195,0.15013091,10.96756186,0.640145931,crawl
23/10/2020, 15:17:47,7.9347,-5.8103175,4.854705,-0.5416615,-0.039169457,0.22954337,10.96756186,0.589594427,crawl
23/10/2020, 15:17:47,8.250843,-5.7145166,4.878655,-0.5416615,-0.039169457,0.22954337,11.15945275,0.589594427,crawl
23/10/2020, 15:17:47,8.250843,-5.7145166,4.878655,-0.4891271,-0.011069665,0.33949906,11.15945275,0.595506059,crawl
23/10/2020, 15:17:47,8.456815,-5.5636306,4.718189,-0.4891271,-0.011069665,0.33949906,11.16839319,0.595506059,crawl
23/10/2020, 15:17:47,8.456815,-5.5636306,4.718189,-0.47690982,-0.003739285,0.4592286,11.16839319,0.662078445,crawl
23/10/2020, 15:17:47,8.734636,-5.4606447,4.471502,-0.47690982,-0.003739285,0.4592286,11.22973022,0.662078445,crawl
23/10/2020, 15:17:47,8.734636,-5.4606447,4.471502,-0.49034888,-0.002517555,0.5520801,11.22973022,0.738404218,crawl
23/10/2020, 15:17:47,9.038804,-5.357659,4.2799,-0.49034888,-0.002517555,0.5520801,11.34557323,0.738404218,crawl
23/10/2020, 15:17:47,9.038804,-5.357659,4.2799,-0.5098965,0.018251857,0.5923972,11.34557323,0.781832492,crawl
23/10/2020, 15:17:47,9.187295,-5.5636306,4.25595,-0.5098965,0.018251857,0.5923972,11.5530725,0.781832492,crawl
23/10/2020, 15:17:47,9.187295,-5.5636306,4.25595,-0.46835774,0.085447006,0.6217187,11.5530725,0.783067247,crawl
23/10/2020, 15:17:47,9.041199,-5.886958,4.394861,-0.46835774,0.085447006,0.6217187,11.64965045,0.783067247,crawl
23/10/2020, 15:17:48,10.87818,-4.703819,1.6166383,-2.8971572,-0.33849332,-1.4124618,11.96136368,3.240855711,crawl
23/10/2020, 15:17:48,10.87818,-4.703819,1.6166383,-2.9362524,-0.2774068,-1.3562622,11.96136368,3.24622544,crawl
23/10/2020, 15:17:48,10.583591,-4.629573,1.7962648,-2.9362524,-0.2774068,-1.3562622,11.69067664,3.24622544,crawl
23/10/2020, 15:17:48,10.583591,-4.629573,1.7962648,-2.988787,-0.21265511,-1.3037277,11.69067664,3.267686579,crawl
23/10/2020, 15:17:48,10.370435,-4.392466,1.6453785,-2.988787,-0.21265511,-1.3037277,11.38186916,3.267686579,crawl
23/10/2020, 15:17:48,10.370435,-4.392466,1.6453785,-3.051095,-0.13935131,-1.2854018,11.38186916,3.313737675,crawl
23/10/2020, 15:17:48,10.047108,-4.296665,1.5328126,-3.051095,-0.13935131,-1.2854018,11.03427475,3.313737675,crawl
23/10/2020, 15:17:48,10.047108,-4.296665,1.5328126,-3.1268423,-0.050165027,-1.3098364,11.03427475,3.390476429,crawl
23/10/2020, 15:17:48,9.596844,-4.232,1.336421,-3.1268423,-0.050165027,-1.3098364,10.57332745,3.390476429,crawl
23/10/2020, 15:17:48,9.596844,-4.232,1.336421,-3.2074766,0.051238567,-1.3342711,10.57332745,3.474307259,crawl
23/10/2020, 15:17:48,9.137,-4.382886,1.1567944,-3.2074766,0.051238567,-1.3342711,10.19963887,3.474307259,crawl
23/10/2020, 15:17:48,9.137,-4.382886,1.1567944,-3.2881107,0.13309447,-1.3599274,10.19963887,3.560728705,crawl
23/10/2020, 15:17:48,8.749006,-4.5792775,1.1088941,-3.2881107,0.13309447,-1.3599274,9.937028703,3.560728705,crawl
23/10/2020, 15:17:48,8.749006,-4.5792775,1.1088941,-3.3101017,0.17707676,-1.4039097,9.937028703,3.599873908,crawl
23/10/2020, 15:17:48,8.49753,-5.0630717,1.1927198,-3.3101017,0.17707676,-1.4039097,9.963196862,3.599873908,crawl
23/10/2020, 15:17:48,8.49753,-5.0630717,1.1927198,-3.2648978,0.20762001,-1.456444,9.963196862,3.581046364,crawl
23/10/2020, 15:17:48,8.464,-5.7145166,1.4418018,-3.2648978,0.20762001,-1.456444,10.31376675,3.581046364,crawl
23/10/2020, 15:17:48,8.464,-5.7145166,1.4418018,-3.1341727,0.252824,-1.4796569,10.31376675,3.475103308,crawl
23/10/2020, 15:17:48,8.4304695,-6.1623855,1.8968556,-3.1341727,0.252824,-1.4796569,10.61347596,3.475103308,crawl
23/10/2020, 15:17:48,8.4304695,-6.1623855,1.8968556,-2.9179265,0.30291495,-1.4857656,10.61347596,3.288396595,crawl
23/10/2020, 15:17:48,8.47837,-6.4042826,2.1052222,-2.9179265,0.30291495,-1.4857656,10.83187652,3.288396595,crawl
23/10/2020, 15:17:48,8.47837,-6.4042826,2.1052222,-2.6515894,0.34323204,-1.5016481,10.83187652,3.066542265,crawl
23/10/2020, 15:17:48,8.270002,-6.5240335,2.2441335,-2.6515894,0.34323204,-1.5016481,10.7699623,3.066542265,crawl
23/10/2020, 15:17:48,8.270002,-6.5240335,2.2441335,-2.3791435,0.35667107,-1.5102001,10.7699623,2.840465174,crawl
23/10/2020, 15:17:48,8.023315,-6.5719337,2.2321582,-2.3791435,0.35667107,-1.5102001,10.6087904,2.840465174,crawl
23/10/2020, 15:17:48,8.023315,-6.5719337,2.2321582,-2.1543453,0.31268877,-1.4894308,10.6087904,2.637684949,crawl
23/10/2020, 15:17:48,7.8891945,-6.4186525,2.2776637,-2.1543453,0.31268877,-1.4894308,10.42239138,2.637684949,crawl
23/10/2020, 15:17:48,7.8891945,-6.4186525,2.2776637,-1.9881898,0.24915884,-1.4503354,10.42239138,2.473550404,crawl
23/10/2020, 15:17:48,8.044871,-6.365962,2.3135889,-1.9881898,0.24915884,-1.4503354,10.51656411,2.473550404,crawl
23/10/2020, 15:17:48,8.044871,-6.365962,2.3135889,-1.8513561,0.20151137,-1.4063531,10.51656411,2.33365711,crawl
23/10/2020, 15:17:49,8.411309,-2.8740237,1.3292359,-0.5062313,0.27970207,-0.17484927,8.98760276,0.604214905,crawl
23/10/2020, 15:17:49,8.411309,-2.8740237,1.3292359,-0.5795351,0.2858107,-0.21516636,8.98760276,0.681061882,crawl
23/10/2020, 15:17:49,8.674761,-2.7135572,1.0490186,-0.5795351,0.2858107,-0.21516636,9.149606999,0.681061882,crawl
23/10/2020, 15:17:49,8.674761,-2.7135572,1.0490186,-0.66872144,0.28947592,-0.26403558,9.149606999,0.775048035,crawl
23/10/2020, 15:17:49,8.760982,-2.42376,0.8430469,-0.66872144,0.28947592,-0.26403558,9.129082002,0.775048035,crawl
23/10/2020, 15:17:49,8.760982,-2.42376,0.8430469,-0.77256846,0.22594596,-0.33856112,9.129082002,0.873233784,crawl
23/10/2020, 15:17:49,8.947793,-2.4165747,0.6514453,-0.77256846,0.22594596,-0.33856112,9.291243946,0.873233784,crawl
23/10/2020, 15:17:49,8.947793,-2.4165747,0.6514453,-0.87275034,0.1013295,-0.4448516,9.291243946,0.984811545,crawl
23/10/2020, 15:17:49,9.5561285,-2.435735,0.7209009,-0.87275034,0.1013295,-0.4448516,9.887977294,0.984811545,crawl
23/10/2020, 15:17:49,9.5561285,-2.435735,0.7209009,-0.94238895,-0.023286965,-0.59268093,9.887977294,1.113512418,crawl
23/10/2020, 15:17:49,10.432706,-2.574646,1.0035132,-0.94238895,-0.023286965,-0.59268093,10.79246,1.113512418,crawl
23/10/2020, 15:17:49,10.432706,-2.574646,1.0035132,-0.97171044,-0.075821355,-0.7698318,10.79246,1.242018932,crawl
23/10/2020, 15:17:49,11.0051155,-2.6776319,1.3531861,-0.97171044,-0.075821355,-0.7698318,11.40672575,1.242018932,crawl
23/10/2020, 15:17:49,11.0051155,-2.6776319,1.3531861,-0.93017167,-0.06238233,-0.94820434,11.40672575,1.329737702,crawl
23/10/2020, 15:17:49,11.02667,-2.926714,1.4394068,-0.93017167,-0.06238233,-0.94820434,11.49891332,1.329737702,crawl
23/10/2020, 15:17:49,11.02667,-2.926714,1.4394068,-0.83732015,-0.09536903,-1.1021423,11.49891332,1.387414145,crawl
23/10/2020, 15:17:49,10.95961,-2.9746144,0.974773,-0.83732015,-0.09536903,-1.1021423,11.39787542,1.387414145,crawl
23/10/2020, 15:17:49,10.95961,-2.9746144,0.974773,-0.7652381,-0.267633,-1.2670759,11.39787542,1.504226746,crawl
23/10/2020, 15:17:49,11.682906,-2.7758276,0.31374758,-0.7652381,-0.267633,-1.2670759,12.01224179,1.504226746,crawl
23/10/2020, 15:17:49,11.682906,-2.7758276,0.31374758,-0.7652381,-0.51075727,-1.4576658,12.01224179,1.723731978,crawl
23/10/2020, 15:17:49,13.383369,-2.5770411,-0.28500733,-0.7652381,-0.51075727,-1.4576658,13.63220261,1.723731978,crawl
23/10/2020, 15:17:49,13.383369,-2.5770411,-0.28500733,-0.8519809,-0.69768196,-1.6885728,13.63220261,2.015914085,crawl
23/10/2020, 15:17:49,15.581998,-2.6369166,-0.732876,-0.8519809,-0.69768196,-1.6885728,15.82052762,2.015914085,crawl
23/10/2020, 15:17:49,15.581998,-2.6369166,-0.732876,-0.9814843,-0.7331121,-1.9390274,15.82052762,2.293598076,crawl
23/10/2020, 15:17:49,17.409397,-2.9817994,-0.5221143,-0.9814843,-0.7331121,-1.9390274,17.67062079,2.293598076,crawl
23/10/2020, 15:17:49,17.409397,-2.9817994,-0.5221143,-1.0767792,-0.5205311,-2.189482,17.67062079,2.49484218,crawl
23/10/2020, 15:17:49,17.816551,-3.5781593,0.14849122,-1.0767792,-0.5205311,-2.189482,18.17291311,2.49484218,crawl
23/10/2020, 15:17:49,17.816551,-3.5781593,0.14849122,-1.0804445,-0.123468824,-2.3971763,18.17291311,2.632310548,crawl
23/10/2020, 15:17:49,15.809525,-4.2128396,0.9412427,-1.0804445,-0.123468824,-2.3971763,16.38825864,2.632310548,crawl
23/10/2020, 15:17:49,15.809525,-4.2128396,0.9412427,-1.014471,0.18196368,-2.5450056,16.38825864,2.745781419,crawl
23/10/2020, 15:17:50,9.134604,-2.3375392,0.90771246,1.1773126,0.80748945,1.2264751,9.472540838,1.882111959,crawl
23/10/2020, 15:17:50,9.134604,-2.3375392,0.90771246,0.96595335,0.8490283,1.1922667,9.472540838,1.753686061,crawl
23/10/2020, 15:17:50,8.938213,-2.2129982,0.8430469,0.96595335,0.8490283,1.1922667,9.246607311,1.753686061,crawl
23/10/2020, 15:17:50,8.938213,-2.2129982,0.8430469,0.72649425,0.88568014,1.1666104,9.246607311,1.634993254,crawl
23/10/2020, 15:17:50,8.722662,-2.095642,0.6730005,0.72649425,0.88568014,1.1666104,8.996081221,1.634993254,crawl
23/10/2020, 15:17:50,8.722662,-2.095642,0.6730005,0.44916153,0.92477554,1.1495061,8.996081221,1.542180319,crawl
23/10/2020, 15:17:50,8.610096,-1.9447559,0.49097902,0.44916153,0.92477554,1.1495061,8.840638478,1.542180319,crawl
23/10/2020, 15:17:50,8.610096,-1.9447559,0.49097902,0.15838979,0.9492101,1.1385105,8.840638478,1.490735803,crawl
23/10/2020, 15:17:50,8.49274,-1.9567311,0.25387207,0.15838979,0.9492101,1.1385105,8.718937709,1.490735803,crawl
23/10/2020, 15:17:50,8.49274,-1.9567311,0.25387207,-0.10183871,0.9516536,1.1311802,8.718937709,1.481750406,crawl
23/10/2020, 15:17:50,8.281978,-2.076482,0.28979737,-0.10183871,0.9516536,1.1311802,8.543237917,1.481750406,crawl
23/10/2020, 15:17:50,8.281978,-2.076482,0.28979737,-0.31197625,0.9565405,1.1311802,8.543237917,1.513891518,crawl
23/10/2020, 15:17:50,8.159832,-2.2489235,0.364043,-0.31197625,0.9565405,1.1311802,8.47189723,1.513891518,crawl
23/10/2020, 15:17:50,8.159832,-2.2489235,0.364043,-0.44392312,0.9516536,1.1214063,8.47189723,1.536315213,crawl
23/10/2020, 15:17:50,7.999366,-2.4668703,0.5460645,-0.44392312,0.9516536,1.1214063,8.3888908,1.536315213,crawl
23/10/2020, 15:17:50,7.999366,-2.4668703,0.5460645,-0.48790538,0.9198886,1.1006368,8.3888908,1.515139657,crawl
23/10/2020, 15:17:50,7.7167535,-2.560276,0.9148975,-0.48790538,0.9198886,1.1006368,8.181707347,1.515139657,crawl
23/10/2020, 15:17:50,7.7167535,-2.560276,0.9148975,-0.48668367,0.88568014,1.0981934,8.181707347,1.492420537,crawl
23/10/2020, 15:17:50,7.438931,-2.6009912,1.0633887,-0.48668367,0.88568014,1.0981934,7.95195858,1.492420537,crawl
23/10/2020, 15:17:50,7.438931,-2.6009912,1.0633887,-0.4598056,0.8282589,1.1006368,7.95195858,1.452182981,crawl
23/10/2020, 15:17:50,7.4101906,-2.574646,1.3052857,-0.4598056,0.8282589,1.1006368,7.952578023,1.452182981,crawl
23/10/2020, 15:17:50,7.4101906,-2.574646,1.3052857,-0.43170583,0.77450275,1.0554329,7.952578023,1.37846403,crawl
23/10/2020, 15:17:50,7.431746,-2.6177564,1.1136842,-0.43170583,0.77450275,1.0554329,7.957624617,1.37846403,crawl
23/10/2020, 15:17:50,7.431746,-2.6177564,1.1136842,-0.41093642,0.6938685,0.9906812,7.957624617,1.277408095,crawl
23/10/2020, 15:17:50,7.462881,-2.572251,0.97956306,-0.41093642,0.6938685,0.9906812,7.954282717,1.277408095,crawl
23/10/2020, 15:17:50,7.462881,-2.572251,0.97956306,-0.39871913,0.60101706,0.9381468,7.954282717,1.183350296,crawl
23/10/2020, 15:17:50,7.6209526,-2.430945,0.84544194,-0.39871913,0.60101706,0.9381468,8.043828933,1.183350296,crawl
23/10/2020, 15:17:50,7.6209526,-2.430945,0.84544194,-0.39994085,0.56558686,0.86850816,8.043828933,1.110921963,crawl
23/10/2020, 15:17:50,7.767049,-2.323169,0.732876,-0.39994085,0.56558686,0.86850816,8.140102519,1.110921963,crawl
23/10/2020, 15:17:50,7.767049,-2.323169,0.732876,-0.43781447,0.5692521,0.76466113,8.140102519,1.049016723,crawl
23/10/2020, 15:17:51,12.949871,-5.616321,4.1960745,0.30133218,0.034134343,0.9247078,14.72580267,0.973165296,crawl
23/10/2020, 15:17:51,12.949871,-5.616321,4.1960745,0.42961383,-7.41E-05,0.9332599,14.72580267,1.027395784,crawl
23/10/2020, 15:17:51,14.458734,-6.013894,4.351751,0.42961383,-7.41E-05,0.9332599,16.25298845,1.027395784,crawl
23/10/2020, 15:17:51,14.458734,-6.013894,4.351751,0.5945474,0.046351645,0.9344816,16.25298845,1.108553551,crawl
23/10/2020, 15:17:51,15.696959,-6.332432,4.4595265,0.5945474,0.046351645,0.9344816,17.50375893,1.108553551,crawl
23/10/2020, 15:17:51,15.696959,-6.332432,4.4595265,0.8217892,0.2760369,0.9576945,17.50375893,1.291786577,crawl
23/10/2020, 15:17:51,15.8694,-6.342012,4.253555,0.8217892,0.2760369,0.9576945,17.61112436,1.291786577,crawl
23/10/2020, 15:17:51,15.8694,-6.342012,4.253555,1.0588049,0.68531644,0.9906812,17.61112436,1.60380035,crawl
23/10/2020, 15:17:51,14.691051,-5.7839723,3.4775686,1.0588049,0.68531644,0.9906812,16.16708954,1.60380035,crawl
23/10/2020, 15:17:51,14.691051,-5.7839723,3.4775686,1.2249601,1.0701615,1.037107,16.16708954,1.929083638,crawl
23/10/2020, 15:17:51,12.564273,-4.8163843,2.4884255,1.2249601,1.0701615,1.037107,13.6839604,1.929083638,crawl
23/10/2020, 15:17:51,12.564273,-4.8163843,2.4884255,1.2396209,1.3364986,1.1238497,13.6839604,2.141477726,crawl
23/10/2020, 15:17:51,10.4494705,-3.8248463,1.5256275,1.2396209,1.3364986,1.1238497,11.23158147,2.141477726,crawl
23/10/2020, 15:17:51,10.4494705,-3.8248463,1.5256275,1.107674,1.4623368,1.2203665,11.23158147,2.203330409,crawl
23/10/2020, 15:17:51,8.643626,-3.046465,0.974773,1.107674,1.4623368,1.2203665,9.216474652,2.203330409,crawl
23/10/2020, 15:17:51,8.643626,-3.046465,0.974773,0.84378034,1.4488977,1.3523133,9.216474652,2.154070813,crawl
23/10/2020, 15:17:51,7.2449346,-2.3998096,0.728086,0.84378034,1.4488977,1.3523133,7.666698904,2.154070813,crawl
23/10/2020, 15:17:51,7.2449346,-2.3998096,0.728086,0.496809,1.3267248,1.5184686,7.666698904,2.076719707,crawl
23/10/2020, 15:17:51,6.6294146,-1.8896705,0.8765772,0.496809,1.3267248,1.5184686,6.948984065,2.076719707,crawl
23/10/2020, 15:17:51,6.6294146,-1.8896705,0.8765772,0.14739421,1.1422435,1.6565241,6.948984065,2.017552291,crawl
23/10/2020, 15:17:51,6.6509695,-1.9399658,1.2693604,0.14739421,1.1422435,1.6565241,7.043446509,2.017552291,crawl
23/10/2020, 15:17:51,6.6509695,-1.9399658,1.2693604,-0.1262733,0.92233205,1.7774754,7.043446509,2.006504423,crawl
23/10/2020, 15:17:51,7.321575,-2.5339308,1.8154249,-0.1262733,0.92233205,1.7774754,7.957514419,2.006504423,crawl
23/10/2020, 15:17:51,7.321575,-2.5339308,1.8154249,-0.34740645,0.75251156,1.8348967,7.957514419,2.01340774,crawl
23/10/2020, 15:17:51,8.753797,-2.6560767,2.1650977,-0.34740645,0.75251156,1.8348967,9.400603486,2.01340774,crawl
23/10/2020, 15:17:51,8.753797,-2.6560767,2.1650977,-0.661391,0.5778042,1.7640363,9.400603486,1.970563332,crawl
23/10/2020, 15:17:51,9.764495,-2.7087672,2.2345533,-0.661391,0.5778042,1.7640363,10.3767051,1.970563332,crawl
23/10/2020, 15:17:51,9.764495,-2.7087672,2.2345533,-0.88985455,0.41409236,1.7774754,10.3767051,2.030451243,crawl
23/10/2020, 15:17:51,10.923684,-3.4488282,2.5411158,-0.88985455,0.41409236,1.7774754,11.73365076,2.030451243,crawl
23/10/2020, 15:17:51,10.923684,-3.4488282,2.5411158,-0.94238895,0.40920544,1.810462,11.73365076,2.081662478,crawl
23/10/2020, 15:17:52,9.175321,-4.239185,0.90771246,-1.3602207,-0.13935131,-0.5535856,10.14796229,1.475152895,crawl
23/10/2020, 15:17:52,9.402847,-4.2056546,0.9508228,-1.3602207,-0.13935131,-0.5535856,10.34432849,1.475152895,crawl
23/10/2020, 15:17:52,9.402847,-4.2056546,0.9508228,-1.3846552,-0.10636461,-0.4851687,10.34432849,1.471044601,crawl
23/10/2020, 15:17:52,9.489068,-4.0523734,0.99393314,-1.3846552,-0.10636461,-0.4851687,10.36590784,1.471044601,crawl
23/10/2020, 15:17:52,9.489068,-4.0523734,0.99393314,-1.484837,-0.06238233,-0.3996476,10.36590784,1.538944715,crawl
23/10/2020, 15:17:52,9.520203,-3.8128712,0.9316626,-1.484837,-0.06238233,-0.3996476,10.2975842,1.538944715,crawl
23/10/2020, 15:17:52,9.520203,-3.8128712,0.9316626,-1.6473272,-7.41E-05,-0.3251221,10.2975842,1.679104294,crawl
23/10/2020, 15:17:52,9.477093,-3.5661843,0.83586186,-1.6473272,-7.41E-05,-0.3251221,10.16029637,1.679104294,crawl
23/10/2020, 15:17:52,9.477093,-3.5661843,0.83586186,-1.8537996,0.061012406,-0.26770076,10.16029637,1.874022172,crawl
23/10/2020, 15:17:52,9.208851,-3.6452198,0.7807764,-1.8537996,0.061012406,-0.26770076,9.93479609,1.874022172,crawl
23/10/2020, 15:17:52,9.208851,-3.6452198,0.7807764,-2.0773764,0.09155566,-0.21150117,9.93479609,2.090121467,crawl
23/10/2020, 15:17:52,8.926238,-3.7338357,0.84544194,-2.0773764,0.09155566,-0.21150117,9.712570565,2.090121467,crawl
23/10/2020, 15:17:52,8.926238,-3.7338357,0.84544194,-2.2557487,0.0891122,-0.15530159,9.712570565,2.262843783,crawl
23/10/2020, 15:17:52,8.763377,-4.064348,0.98914313,-2.2557487,0.0891122,-0.15530159,9.710515453,2.262843783,crawl
23/10/2020, 15:17:52,8.763377,-4.064348,0.98914313,-2.34127,0.06834279,-0.101545475,9.710515453,2.344467379,crawl
23/10/2020, 15:17:52,8.715476,-4.4451566,1.0585986,-2.34127,0.06834279,-0.101545475,9.840709862,2.344467379,crawl
23/10/2020, 15:17:52,8.715476,-4.4451566,1.0585986,-2.3217223,0.020695316,-0.03923724,9.840709862,2.322146023,crawl
23/10/2020, 15:17:52,8.8879175,-4.7253737,1.0298585,-2.3217223,0.020695316,-0.03923724,10.11853958,2.322146023,crawl
23/10/2020, 15:17:52,8.8879175,-4.7253737,1.0298585,-2.2435315,-0.04405638,0.041396942,10.11853958,2.244345808,crawl
23/10/2020, 15:17:52,9.14179,-4.744534,1.1448194,-2.2435315,-0.04405638,0.041396942,10.36308574,2.244345808,crawl
23/10/2020, 15:17:52,9.14179,-4.744534,1.1448194,-2.195884,-0.10025595,0.109813824,10.36308574,2.200912726,crawl
23/10/2020, 15:17:52,9.319021,-4.4283915,1.3651612,-2.195884,-0.10025595,0.109813824,10.40761608,2.200912726,crawl
23/10/2020, 15:17:52,9.319021,-4.4283915,1.3651612,-2.1457932,-0.15156862,0.14402227,10.40761608,2.155955453,crawl
23/10/2020, 15:17:52,9.273516,-4.358936,1.7387843,-2.1457932,-0.15156862,0.14402227,10.39335297,2.155955453,crawl
23/10/2020, 15:17:52,9.273516,-4.358936,1.7387843,-2.0749328,-0.16134246,0.17090033,10.39335297,2.088201258,crawl
23/10/2020, 15:17:52,8.830438,-4.406836,2.1555176,-2.0749328,-0.16134246,0.17090033,10.10163794,2.088201258,crawl
23/10/2020, 15:17:52,8.830438,-4.406836,2.1555176,-1.9808595,-0.17355976,0.21366088,10.10163794,1.999894595,crawl
23/10/2020, 15:17:52,8.52148,-4.3349857,2.4764502,-1.9808595,-0.17355976,0.21366088,9.876260507,1.999894595,crawl
23/10/2020, 15:17:52,8.52148,-4.3349857,2.4764502,-1.9051123,-0.20043781,0.24909104,9.876260507,1.931754232,crawl
23/10/2020, 15:17:52,8.255632,-4.1721244,2.699187,-1.9051123,-0.20043781,0.24909104,9.635751081,1.931754232,crawl
23/10/2020, 15:17:53,10.152488,-4.8163843,0.5676197,-0.20079884,0.1343162,-1.9659054,11.2513447,1.980693103,crawl
23/10/2020, 15:17:53,10.152488,-4.8163843,0.5676197,-0.07129546,0.043908186,-2.0257702,11.2513447,2.027499895,crawl
23/10/2020, 15:17:53,11.019485,-4.8115945,0.16046631,-0.07129546,0.043908186,-2.0257702,12.02523393,2.027499895,crawl
23/10/2020, 15:17:53,11.019485,-4.8115945,0.16046631,-0.04563913,-0.059938867,-2.0563135,12.02523393,2.057693094,crawl
23/10/2020, 15:17:53,12.502003,-4.497847,-0.57001466,-0.04563913,-0.059938867,-2.0563135,13.29870734,2.057693094,crawl
23/10/2020, 15:17:53,12.502003,-4.497847,-0.57001466,-0.121386394,-0.15401207,-2.094187,13.29870734,2.103348201,crawl
23/10/2020, 15:17:53,14.310243,-4.0811133,-1.2741505,-0.121386394,-0.15401207,-2.094187,14.93525997,2.103348201,crawl
23/10/2020, 15:17:53,14.310243,-4.0811133,-1.2741505,-0.29365033,-0.158899,-2.1540518,14.93525997,2.179774869,crawl
23/10/2020, 15:17:53,16.068186,-3.803291,-1.8561403,-0.29365033,-0.158899,-2.1540518,16.61616306,2.179774869,crawl
23/10/2020, 15:17:53,16.068186,-3.803291,-1.8561403,-0.5379963,-0.035504267,-2.2285774,16.61616306,2.292871056,crawl
23/10/2020, 15:17:53,17.11002,-3.908672,-2.2393434,-0.5379963,-0.035504267,-2.2285774,17.69308198,2.292871056,crawl
23/10/2020, 15:17:53,17.11002,-3.908672,-2.2393434,-0.7933379,0.1013295,-2.3067682,17.69308198,2.441481536,crawl
23/10/2020, 15:17:53,17.428558,-4.3349857,-2.2177882,-0.7933379,0.1013295,-2.3067682,18.09600321,2.441481536,crawl
23/10/2020, 15:17:53,17.428558,-4.3349857,-2.2177882,-1.0132493,0.13675967,-2.3629677,18.09600321,2.574683242,crawl
23/10/2020, 15:17:53,17.12918,-4.996011,-1.7363893,-1.0132493,0.13675967,-2.3629677,17.92718634,2.574683242,crawl
23/10/2020, 15:17:53,17.12918,-4.996011,-1.7363893,-1.1219833,0.11965545,-2.3690765,17.92718634,2.624059326,crawl
23/10/2020, 15:17:53,16.310083,-5.6785917,-0.8286768,-1.1219833,0.11965545,-2.3690765,17.29022641,2.624059326,crawl
23/10/2020, 15:17:53,16.310083,-5.6785917,-0.8286768,-1.1146529,0.10865988,-2.3495288,17.29022641,2.602795329,crawl
23/10/2020, 15:17:53,15.074254,-6.1456203,0.32332766,-1.1146529,0.10865988,-2.3495288,16.28208601,2.602795329,crawl
23/10/2020, 15:17:53,15.074254,-6.1456203,0.32332766,-1.0279101,0.09522085,-2.289664,16.28208601,2.511618518,crawl
23/10/2020, 15:17:53,13.515096,-6.2989016,1.3220508,-1.0279101,0.09522085,-2.289664,14.96936175,2.511618518,crawl
23/10/2020, 15:17:53,13.515096,-6.2989016,1.3220508,-0.8849676,0.0768949,-2.162604,14.96936175,2.337934342,crawl
23/10/2020, 15:17:53,12.056529,-6.023474,1.7555494,-0.8849676,0.0768949,-2.162604,13.591324,2.337934342,crawl
23/10/2020, 15:17:53,12.056529,-6.023474,1.7555494,-0.7322514,0.026803967,-2.0111096,13.591324,2.140437422,crawl
23/10/2020, 15:17:53,10.643467,-5.688172,1.6501685,-0.7322514,0.026803967,-2.0111096,12.18038358,2.140437422,crawl
23/10/2020, 15:17:53,10.643467,-5.688172,1.6501685,-0.63451296,-0.042834647,-1.8608367,12.18038358,1.9665083,crawl
23/10/2020, 15:17:53,9.362132,-5.3241286,1.3747413,-0.63451296,-0.042834647,-1.8608367,10.85752165,1.9665083,crawl
23/10/2020, 15:17:53,9.362132,-5.3241286,1.3747413,-0.57098305,-0.118581906,-1.6971248,10.85752165,1.794523901,crawl
23/10/2020, 15:17:53,8.236472,-5.0439115,1.1352394,-0.57098305,-0.118581906,-1.6971248,9.724673997,1.794523901,crawl
23/10/2020, 15:17:53,8.236472,-5.0439115,1.1352394,-0.5599874,-0.21143338,-1.5321913,9.724673997,1.644962036,crawl
23/10/2020, 15:17:54,9.393267,-2.4692652,-0.12933107,0.895093,0.49350482,1.2887833,9.71326187,1.644901503,crawl
23/10/2020, 15:17:54,9.393267,-2.4692652,-0.12933107,0.72649425,0.5252698,1.244801,9.71326187,1.534024742,crawl
23/10/2020, 15:17:54,9.644744,-2.4069948,-0.1101709,0.72649425,0.5252698,1.244801,9.941169295,1.534024742,crawl
23/10/2020, 15:17:54,9.644744,-2.4069948,-0.1101709,0.57377803,0.55214787,1.1763842,9.941169295,1.420552114,crawl
23/10/2020, 15:17:54,9.716595,-2.4261549,-0.12933107,0.57377803,0.55214787,1.1763842,10.01574592,1.420552114,crawl
23/10/2020, 15:17:54,9.716595,-2.4261549,-0.12933107,0.4283921,0.5900215,1.1067456,10.01574592,1.325341838,crawl
23/10/2020, 15:17:54,9.687855,-2.4644752,-0.11256592,0.4283921,0.5900215,1.1067456,9.997041505,1.325341838,crawl
23/10/2020, 15:17:54,9.687855,-2.4644752,-0.11256592,0.30377567,0.6217865,1.03222,9.997041505,1.242729342,crawl
23/10/2020, 15:17:54,9.589659,-2.4860303,-0.12933107,0.30377567,0.6217865,1.03222,9.907503625,1.242729342,crawl
23/10/2020, 15:17:54,9.589659,-2.4860303,-0.12933107,0.20725898,0.63522553,0.95647275,9.907503625,1.166751,crawl
23/10/2020, 15:17:54,9.378897,-2.567461,-0.1580713,0.20725898,0.63522553,0.95647275,9.725253012,1.166751,crawl
23/10/2020, 15:17:54,9.378897,-2.567461,-0.1580713,0.13639864,0.6437776,0.8819472,9.725253012,1.100402243,crawl
23/10/2020, 15:17:54,9.153765,-2.6201515,-0.21555176,0.13639864,0.6437776,0.8819472,9.523815684,1.100402243,crawl
23/10/2020, 15:17:54,9.153765,-2.6201515,-0.21555176,0.102190204,0.63278204,0.79886955,9.523815684,1.024230691,crawl
23/10/2020, 15:17:54,8.954978,-2.6560767,-0.28740236,0.102190204,0.63278204,0.79886955,9.344997281,1.024230691,crawl
23/10/2020, 15:17:54,8.954978,-2.6560767,-0.28740236,0.10463367,0.60468227,0.7182354,9.344997281,0.944696194,crawl
23/10/2020, 15:17:54,8.775352,-2.7470875,-0.30895755,0.10463367,0.60468227,0.7182354,9.20047492,0.944696194,crawl
23/10/2020, 15:17:54,8.775352,-2.7470875,-0.30895755,0.14006384,0.5778042,0.6376012,9.20047492,0.871786021,crawl
23/10/2020, 15:17:54,8.571775,-2.7590625,-0.26584718,0.14006384,0.5778042,0.6376012,9.008797638,0.871786021,crawl
23/10/2020, 15:17:54,8.571775,-2.7590625,-0.26584718,0.18160266,0.55092615,0.5667409,9.008797638,0.810983576,crawl
23/10/2020, 15:17:54,8.320298,-2.7135572,-0.26345217,0.18160266,0.55092615,0.5667409,8.755578908,0.810983576,crawl
23/10/2020, 15:17:54,8.320298,-2.7135572,-0.26345217,0.20481552,0.5081656,0.5105413,8.755578908,0.748888585,crawl
23/10/2020, 15:17:54,8.092772,-2.6297317,-0.3281177,0.20481552,0.5081656,0.5105413,8.515638604,0.748888585,crawl
23/10/2020, 15:17:54,8.092772,-2.6297317,-0.3281177,0.19870688,0.45074427,0.45800686,8.515638604,0.672625531,crawl
23/10/2020, 15:17:54,7.8844047,-2.4141798,-0.2802173,0.19870688,0.45074427,0.45800686,8.250492269,0.672625531,crawl
23/10/2020, 15:17:54,7.8844047,-2.4141798,-0.2802173,0.1632767,0.3859926,0.4054725,8.250492269,0.58314449,crawl
23/10/2020, 15:17:54,7.7478886,-2.318379,-0.28500733,0.1632767,0.3859926,0.4054725,8.092335092,0.58314449,crawl
23/10/2020, 15:17:54,7.7478886,-2.318379,-0.28500733,0.118072696,0.31879744,0.35171637,8.092335092,0.489159865,crawl
23/10/2020, 15:17:54,7.6185575,-2.2848487,-0.14130616,0.118072696,0.31879744,0.35171637,7.955056168,0.489159865,crawl
23/10/2020, 15:17:54,7.6185575,-2.2848487,-0.14130616,0.06431657,0.2516023,0.30162543,7.955056168,0.398017883,crawl
23/10/2020, 15:17:55,15.100598,-5.4055595,2.2489235,1.0111574,-0.05871714,0.61316663,16.19585753,1.184001813,crawl
23/10/2020, 15:17:55,15.100598,-5.4055595,2.2489235,1.0917915,0.015808396,0.73411787,16.19585753,1.315746043,crawl
23/10/2020, 15:17:55,13.850399,-5.010381,1.710044,1.0917915,0.015808396,0.73411787,14.82773494,1.315746043,crawl
23/10/2020, 15:17:55,13.850399,-5.010381,1.710044,1.0991219,0.064677596,0.8795038,14.82773494,1.409176751,crawl
23/10/2020, 15:17:55,12.248131,-4.5481424,1.2813355,1.0991219,0.064677596,0.8795038,13.12799026,1.409176751,crawl
23/10/2020, 15:17:55,12.248131,-4.5481424,1.2813355,1.06247,0.09644258,1.0358852,13.12799026,1.487011017,crawl
23/10/2020, 15:17:55,10.837463,-4.126619,0.9484278,1.06247,0.09644258,1.0358852,11.63525294,1.487011017,crawl
23/10/2020, 15:17:55,10.837463,-4.126619,0.9484278,0.98183584,0.11721199,1.2008188,11.63525294,1.555540423,crawl
23/10/2020, 15:17:55,9.678274,-3.903882,0.7113208,0.98183584,0.11721199,1.2008188,10.46017508,1.555540423,crawl
23/10/2020, 15:17:55,9.678274,-3.903882,0.7113208,0.8877626,0.10499469,1.3547567,10.46017508,1.623118012,crawl
23/10/2020, 15:17:55,9.678274,-3.903882,0.7113208,0.84744555,0.029247427,1.5343511,10.46017508,1.753069508,crawl
23/10/2020, 15:17:55,8.806487,-3.7098854,0.8669971,0.84744555,0.029247427,1.5343511,9.595266965,1.753069508,crawl
23/10/2020, 15:17:55,8.284373,-3.7625759,1.1112891,0.84744555,0.029247427,1.5343511,9.166394133,1.753069508,crawl
23/10/2020, 15:17:55,8.284373,-3.7625759,1.1112891,0.8523325,-0.10880806,1.7493756,9.166394133,1.949006097,crawl
23/10/2020, 15:17:55,8.52627,-3.6140847,1.3028907,0.8523325,-0.10880806,1.7493756,9.35181325,1.949006097,crawl
23/10/2020, 15:17:55,8.52627,-3.6140847,1.3028907,0.8669932,-0.28595895,1.8886528,9.35181325,2.09772713,crawl
23/10/2020, 15:17:55,9.316627,-3.4703834,1.6381935,0.8669932,-0.28595895,1.8886528,10.07604928,2.09772713,crawl
23/10/2020, 15:17:55,9.316627,-3.4703834,1.6381935,0.9109755,-0.41179714,1.9277481,10.07604928,2.171558414,crawl
23/10/2020, 15:17:55,10.420731,-3.4584084,2.071692,0.9109755,-0.41179714,1.9277481,11.17336664,2.171558414,crawl
23/10/2020, 15:17:55,10.420731,-3.4584084,2.071692,1.0136008,-0.43745345,1.9167526,11.17336664,2.211943172,crawl
23/10/2020, 15:17:55,11.225457,-3.6979103,2.0812721,1.0136008,-0.43745345,1.9167526,12.00071346,2.211943172,crawl
23/10/2020, 15:17:55,11.225457,-3.6979103,2.0812721,1.1259999,-0.4105754,1.8568878,12.00071346,2.210086051,crawl
23/10/2020, 15:17:55,11.623031,-3.8799317,1.9806812,1.1259999,-0.4105754,1.8568878,12.4125666,2.210086051,crawl
23/10/2020, 15:17:55,11.623031,-3.8799317,1.9806812,1.2127428,-0.33482814,1.7677015,12.4125666,2.169705881,crawl
23/10/2020, 15:17:55,11.702065,-3.772156,1.7651294,1.2127428,-0.33482814,1.7677015,12.42107802,2.169705881,crawl
23/10/2020, 15:17:55,11.702065,-3.772156,1.7651294,1.2713859,-0.21387684,1.6675196,12.42107802,2.10779196,crawl
23/10/2020, 15:17:55,11.294912,-3.7625759,1.2981006,1.2713859,-0.21387684,1.6675196,11.97568733,2.10779196,crawl
23/10/2020, 15:17:55,11.294912,-3.7625759,1.2981006,1.2774945,-0.096590765,1.5856637,11.97568733,2.038541487,crawl
23/10/2020, 15:17:55,10.521321,-3.537444,0.80712163,1.2774945,-0.096590765,1.5856637,11.12938264,2.038541487,crawl
23/10/2020, 15:17:55,10.521321,-3.537444,0.80712163,1.261612,-0.006182745,1.5367945,11.12938264,1.9883261,crawl
23/10/2020, 15:17:56,8.253238,-4.040398,2.2920337,-1.0401274,0.11721199,0.20877396,9.470700516,1.067328542,crawl
23/10/2020, 15:17:56,8.253238,-4.040398,2.2920337,-1.0608968,0.1294293,0.30895582,9.470700516,1.112523062,crawl
23/10/2020, 15:17:56,8.533455,-4.1888895,2.6033864,-1.0608968,0.1294293,0.30895582,9.856179203,1.112523062,crawl
23/10/2020, 15:17:56,8.533455,-4.1888895,2.6033864,-0.9704887,0.16485946,0.37981614,9.856179203,1.055124312,crawl
23/10/2020, 15:17:56,8.576566,-4.160149,2.6560767,-0.9704887,0.16485946,0.37981614,9.895406193,1.055124312,crawl
23/10/2020, 15:17:56,8.576566,-4.160149,2.6560767,-0.8495375,0.19418098,0.44212437,9.895406193,0.97718686,crawl
23/10/2020, 15:17:56,8.432864,-4.0356083,2.5411158,-0.8495375,0.19418098,0.44212437,9.687961706,0.97718686,crawl
23/10/2020, 15:17:56,8.432864,-4.0356083,2.5411158,-0.74202526,0.20884174,0.49465877,9.687961706,0.915916836,crawl
23/10/2020, 15:17:56,8.272398,-3.8368216,2.4045997,-0.74202526,0.20884174,0.49465877,9.43058152,0.915916836,crawl
23/10/2020, 15:17:56,8.272398,-3.8368216,2.4045997,-0.65283895,0.20884174,0.5386411,9.43058152,0.871749844,crawl
23/10/2020, 15:17:56,7.9802055,-3.6907253,2.2608986,-0.65283895,0.20884174,0.5386411,9.078369692,0.871749844,crawl
23/10/2020, 15:17:56,7.9802055,-3.6907253,2.2608986,-0.6076349,0.20639828,0.5667409,9.078369692,0.856163324,crawl
23/10/2020, 15:17:56,7.781419,-3.5254688,2.2225783,-0.6076349,0.20639828,0.5667409,8.827188864,0.856163324,crawl
23/10/2020, 15:17:56,7.781419,-3.5254688,2.2225783,-0.58808726,0.18196368,0.5862886,8.827188864,0.850112755,crawl
23/10/2020, 15:17:56,7.656878,-3.427273,2.2129982,-0.58808726,0.18196368,0.5862886,8.675905826,0.850112755,crawl
23/10/2020, 15:17:56,7.656878,-3.427273,2.2129982,-0.5770917,0.1416466,0.59484065,8.675905826,0.840793658,crawl
23/10/2020, 15:17:56,7.688013,-3.3769777,2.1627028,-0.5770917,0.1416466,0.59484065,8.671032622,0.840793658,crawl
23/10/2020, 15:17:56,7.688013,-3.3769777,2.1627028,-0.56365263,0.11476853,0.59850585,8.671032622,0.830111658,crawl
23/10/2020, 15:17:56,7.824529,-3.432063,2.2441335,-0.56365263,0.11476853,0.59850585,8.83393734,0.830111658,crawl
23/10/2020, 15:17:56,7.824529,-3.432063,2.2441335,-0.5367746,0.09277739,0.59850585,8.83393734,0.80928601,crawl
23/10/2020, 15:17:56,8.018526,-3.755391,2.3303542,-0.5367746,0.09277739,0.59850585,9.155887281,0.80928601,crawl
23/10/2020, 15:17:56,8.018526,-3.755391,2.3303542,-0.47813153,0.054903757,0.6009493,9.155887281,0.769911833,crawl
23/10/2020, 15:17:56,8.353828,-4.0930886,2.2513185,-0.47813153,0.054903757,0.6009493,9.571220337,0.769911833,crawl
23/10/2020, 15:17:56,8.353828,-4.0930886,2.2513185,-0.37184107,0.006034555,0.6033928,9.571220337,0.708791257,crawl
23/10/2020, 15:17:56,8.859178,-4.29427,2.2704787,-0.37184107,0.006034555,0.6033928,10.10350713,0.708791257,crawl
23/10/2020, 15:17:56,8.859178,-4.29427,2.2704787,-0.23745075,-0.036725998,0.6033928,10.10350713,0.649472481,crawl
23/10/2020, 15:17:56,9.314231,-4.4547367,2.3614893,-0.23745075,-0.036725998,0.6033928,10.59132704,0.649472481,crawl
23/10/2020, 15:17:56,9.314231,-4.4547367,2.3614893,-0.11527774,-0.04772157,0.6033928,10.59132704,0.616156759,crawl
23/10/2020, 15:17:56,9.541759,-4.351751,2.5938063,-0.11527774,-0.04772157,0.6033928,10.80327369,0.616156759,crawl
23/10/2020, 15:17:56,9.541759,-4.351751,2.5938063,-0.024869718,-0.04405638,0.63027084,10.80327369,0.632298029,crawl
23/10/2020, 15:17:57,4.605623,-4.5529323,0.51732427,-1.6900877,-0.26396778,-1.6030517,6.496812886,2.344322925,crawl
23/10/2020, 15:17:57,4.605623,-4.5529323,0.51732427,-1.4481852,-0.5364136,-1.3623708,6.496812886,2.059377158,crawl
23/10/2020, 15:17:57,6.320457,-4.756509,0.13891114,-1.4481852,-0.5364136,-1.3623708,7.911501058,2.059377158,crawl
23/10/2020, 15:17:57,6.320457,-4.756509,0.13891114,-1.1586351,-0.7489946,-1.1730027,7.911501058,1.810901339,crawl
23/10/2020, 15:17:57,8.401729,-5.0415163,-0.34009278,-1.1586351,-0.7489946,-1.1730027,9.804162061,1.810901339,crawl
23/10/2020, 15:17:57,8.401729,-5.0415163,-0.34009278,-0.8947415,-0.86750245,-1.0227299,9.804162061,1.612172201,crawl
23/10/2020, 15:17:57,10.4494705,-4.897815,-0.59156984,-0.8947415,-0.86750245,-1.0227299,11.55551743,1.612172201,crawl
23/10/2020, 15:17:57,10.4494705,-4.897815,-0.59156984,-0.6968212,-0.8430678,-0.93965226,11.55551743,1.441967246,crawl
23/10/2020, 15:17:57,12.437337,-4.5002418,-0.73527104,-0.6968212,-0.8430678,-0.93965226,13.24689205,1.441967246,crawl
23/10/2020, 15:17:57,12.437337,-4.5002418,-0.73527104,-0.589309,-0.7367773,-0.93598706,13.24689205,1.328983685,crawl
23/10/2020, 15:17:57,13.802498,-4.0499783,-0.7592212,-0.589309,-0.7367773,-0.93598706,14.40443293,1.328983685,crawl
23/10/2020, 15:17:57,13.802498,-4.0499783,-0.7592212,-0.60030454,-0.5828393,-0.9750824,14.40443293,1.284855202,crawl
23/10/2020, 15:17:57,14.4802885,-3.661985,-0.6346802,-0.60030454,-0.5828393,-0.9750824,14.94963905,1.284855202,crawl
23/10/2020, 15:17:57,14.4802885,-3.661985,-0.6346802,-0.7615729,-0.4020233,-0.9897432,14.94963905,1.311947998,crawl
23/10/2020, 15:17:57,14.398858,-3.3171022,-0.51013917,-0.7615729,-0.4020233,-0.9897432,14.78480716,1.311947998,crawl
23/10/2020, 15:17:57,14.398858,-3.3171022,-0.51013917,-1.0572315,-0.21387684,-0.97263896,14.78480716,1.452414679,crawl
23/10/2020, 15:17:57,13.582156,-3.0871804,-0.27542725,-1.0572315,-0.21387684,-0.97263896,13.93131399,1.452414679,crawl
23/10/2020, 15:17:57,13.582156,-3.0871804,-0.27542725,-1.412755,-0.048943296,-0.9653086,13.93131399,1.711751406,crawl
23/10/2020, 15:17:57,12.114009,-3.0105398,-0.081430666,-1.412755,-0.048943296,-0.9653086,12.4827558,1.711751406,crawl
23/10/2020, 15:17:57,12.114009,-3.0105398,-0.081430666,-1.8574648,0.06834279,-0.98852146,12.4827558,2.105236532,crawl
23/10/2020, 15:17:57,10.487791,-3.04886,-0.16046631,-1.8574648,0.06834279,-0.98852146,10.92314325,2.105236532,crawl
23/10/2020, 15:17:57,10.487791,-3.04886,-0.16046631,-2.318057,0.11965545,-1.0141778,10.92314325,2.533034262,crawl
23/10/2020, 15:17:57,9.172925,-3.056045,-0.20597169,-2.318057,0.11965545,-1.0141778,9.67080083,2.533034262,crawl
23/10/2020, 15:17:57,9.172925,-3.056045,-0.20597169,-2.7102325,0.14286833,-1.0153995,9.67080083,2.897724555,crawl
23/10/2020, 15:17:57,8.210127,-3.4009278,-0.19878663,-2.7102325,0.14286833,-1.0153995,8.888869964,2.897724555,crawl
23/10/2020, 15:17:57,8.210127,-3.4009278,-0.19878663,-2.9948955,0.162416,-0.9763042,8.888869964,3.154195238,crawl
23/10/2020, 15:17:57,7.563472,-3.796106,-0.16525635,-2.9948955,0.162416,-0.9763042,8.464268236,3.154195238,crawl
23/10/2020, 15:17:57,7.563472,-3.796106,-0.16525635,-3.1402814,0.17829849,-0.9115524,8.464268236,3.274764983,crawl
23/10/2020, 15:17:57,7.1251836,-4.112249,-0.023950197,-3.1402814,0.17829849,-0.9115524,8.2267494,3.274764983,crawl
23/10/2020, 15:17:57,7.1251836,-4.112249,-0.023950197,-3.1488335,0.18074195,-0.8419138,8.2267494,3.2644508,crawl
23/10/2020, 15:17:58,6.6413894,-4.28469,1.3028907,-0.14093406,0.43730524,0.8159738,8.010252455,0.93643556,crawl
23/10/2020, 15:17:58,6.6413894,-4.28469,1.3028907,-0.13849062,0.3872143,0.7719915,8.010252455,0.87469162,crawl
23/10/2020, 15:17:58,6.468948,-4.24158,1.346001,-0.13849062,0.3872143,0.7719915,7.851751812,0.87469162,crawl
23/10/2020, 15:17:58,6.468948,-4.24158,1.346001,-0.14582099,0.33223647,0.7414483,7.851751812,0.825463742,crawl
23/10/2020, 15:17:58,6.4042826,-4.0356083,1.3268409,-0.14582099,0.33223647,0.7414483,7.685146468,0.825463742,crawl
23/10/2020, 15:17:58,6.4042826,-4.0356083,1.3268409,-0.18002944,0.24915884,0.7060181,7.685146468,0.770033942,crawl
23/10/2020, 15:17:58,6.346802,-3.911067,1.3723463,-0.18002944,0.24915884,0.7060181,7.58034815,0.770033942,crawl
23/10/2020, 15:17:58,6.346802,-3.911067,1.3723463,-0.2276769,0.19295925,0.6571489,7.58034815,0.721744217,crawl
23/10/2020, 15:17:58,6.2773466,-3.7529957,1.4346168,-0.2276769,0.19295925,0.6571489,7.453065329,0.721744217,crawl
23/10/2020, 15:17:58,6.2773466,-3.7529957,1.4346168,-0.27654612,0.14897697,0.59484065,7.453065329,0.672686619,crawl
23/10/2020, 15:17:58,6.128855,-3.796106,1.3172607,-0.27654612,0.14897697,0.59484065,7.328605856,0.672686619,crawl
23/10/2020, 15:17:58,6.128855,-3.796106,1.3172607,-0.31930667,0.10499469,0.53008896,7.328605856,0.627674233,crawl
23/10/2020, 15:17:58,5.992339,-3.7458107,1.3052857,-0.31930667,0.10499469,0.53008896,7.186306227,0.627674233,crawl
23/10/2020, 15:17:58,5.992339,-3.7458107,1.3052857,-0.34251952,0.061012406,0.46900246,7.186306227,0.58395671,crawl
23/10/2020, 15:17:58,5.968389,-3.788921,1.2861255,-0.34251952,0.061012406,0.46900246,7.185520845,0.58395671,crawl
23/10/2020, 15:17:58,5.968389,-3.788921,1.2861255,-0.35229337,0.012143206,0.4103594,7.185520845,0.540974052,crawl
23/10/2020, 15:17:58,6.133645,-3.7649708,1.3531861,-0.35229337,0.012143206,0.4103594,7.323094931,0.540974052,crawl
23/10/2020, 15:17:58,6.133645,-3.7649708,1.3531861,-0.3412978,-0.025730425,0.3297252,7.323094931,0.47525252,crawl
23/10/2020, 15:17:58,6.2917166,-3.8559816,1.3292359,-0.3412978,-0.025730425,0.3297252,7.498077059,0.47525252,crawl
23/10/2020, 15:17:58,6.2917166,-3.8559816,1.3292359,-0.30342418,-0.053830218,0.21976954,7.498077059,0.378500429,crawl
23/10/2020, 15:17:58,6.4330225,-3.906277,1.3939015,-0.30342418,-0.053830218,0.21976954,7.654132173,0.378500429,crawl
23/10/2020, 15:17:58,6.4330225,-3.906277,1.3939015,-0.23500729,-0.075821355,0.10737036,7.654132173,0.269268819,crawl
23/10/2020, 15:17:58,6.588699,-3.9278321,1.4010864,-0.23500729,-0.075821355,0.10737036,7.79755482,0.269268819,crawl
23/10/2020, 15:17:58,6.588699,-3.9278321,1.4010864,-0.17636424,-0.097812496,-0.011137449,7.79755482,0.201979389,crawl
23/10/2020, 15:17:58,6.75156,-3.8511915,1.3986914,-0.17636424,-0.097812496,-0.011137449,7.897567923,0.201979389,crawl
23/10/2020, 15:17:58,6.75156,-3.8511915,1.3986914,-0.13238196,-0.13324267,-0.13453218,7.897567923,0.231035712,crawl
23/10/2020, 15:17:58,7.0078273,-3.7170706,1.2909156,-0.13238196,-0.13324267,-0.13453218,8.036959625,0.231035712,crawl
23/10/2020, 15:17:58,7.0078273,-3.7170706,1.2909156,-0.12749504,-0.17478149,-0.26159212,8.036959625,0.339461322,crawl
23/10/2020, 15:17:58,7.340735,-3.6811452,1.2669654,-0.12749504,-0.17478149,-0.26159212,8.309176912,0.339461322,crawl
23/10/2020, 15:17:58,7.340735,-3.6811452,1.2669654,-0.13238196,-0.20532474,-0.39842588,8.309176912,0.467361115,crawl
23/10/2020, 15:17:59,10.863809,-3.4608033,1.5998731,1.0343702,1.1153655,0.90271664,11.5134309,1.768858167,crawl
23/10/2020, 15:17:59,10.863809,-3.4608033,1.5998731,0.8669932,1.067718,0.99190295,11.5134309,1.6957507,crawl
23/10/2020, 15:17:59,8.828042,-2.550696,1.214275,0.8669932,1.067718,0.99190295,9.269025808,1.6957507,crawl
23/10/2020, 15:17:59,8.828042,-2.550696,1.214275,0.57622147,0.999301,1.1385105,9.269025808,1.620752843,crawl
23/10/2020, 15:17:59,7.3862405,-2.090852,1.0298585,0.57622147,0.999301,1.1385105,7.745244935,1.620752843,crawl
23/10/2020, 15:17:59,7.3862405,-2.090852,1.0298585,0.24757607,0.94187975,1.3291004,7.745244935,1.647707246,crawl
23/10/2020, 15:17:59,6.4018874,-1.8681153,1.0154883,0.24757607,0.94187975,1.3291004,6.745756719,1.647707246,crawl
23/10/2020, 15:17:59,6.4018874,-1.8681153,1.0154883,-0.07618238,0.8172633,1.5367945,6.745756719,1.74225731,crawl
23/10/2020, 15:17:59,5.719307,-1.7603394,1.0011182,-0.07618238,0.8172633,1.5367945,6.067248494,1.74225731,crawl
23/10/2020, 15:17:59,5.719307,-1.7603394,1.0011182,-0.36939758,0.59979534,1.7371582,6.067248494,1.874547296,crawl
23/10/2020, 15:17:59,5.743257,-1.7339942,1.3483961,-0.36939758,0.59979534,1.7371582,6.148976295,1.874547296,crawl
23/10/2020, 15:17:59,5.743257,-1.7339942,1.3483961,-0.60152626,0.40798372,1.9167526,6.148976295,2.049932925,crawl
23/10/2020, 15:17:59,6.456973,-1.8800904,1.5783179,-0.60152626,0.40798372,1.9167526,6.907845422,2.049932925,crawl
23/10/2020, 15:17:59,6.456973,-1.8800904,1.5783179,-0.7896727,0.27359343,2.051143,6.907845422,2.214864243,crawl
23/10/2020, 15:17:59,7.6496925,-2.2441335,2.0261867,-0.7896727,0.27359343,2.051143,8.225531198,2.214864243,crawl
23/10/2020, 15:17:59,7.6496925,-2.2441335,2.0261867,-0.8641982,0.15264216,2.1256683,8.225531198,2.299696467,crawl
23/10/2020, 15:17:59,9.053174,-2.7638526,2.5842261,-0.8641982,0.15264216,2.1256683,9.812087733,2.299696467,crawl
23/10/2020, 15:17:59,9.053174,-2.7638526,2.5842261,-0.78845096,0.06956452,2.1439943,9.812087733,2.2854334,crawl
23/10/2020, 15:17:59,10.542876,-3.3482375,2.8716285,-0.78845096,0.06956452,2.1439943,11.42843753,2.2854334,crawl
23/10/2020, 15:17:59,10.542876,-3.3482375,2.8716285,-0.62107396,0.07322971,2.1061206,11.42843753,2.197006914,crawl
23/10/2020, 15:17:59,11.869718,-3.7027004,2.9841945,-0.62107396,0.07322971,2.1061206,12.78693094,2.197006914,crawl
23/10/2020, 15:17:59,11.869718,-3.7027004,2.9841945,-0.38528007,0.15508562,2.0108259,12.78693094,2.053268851,crawl
23/10/2020, 15:17:59,12.8061695,-3.891907,2.8452833,-0.38528007,0.15508562,2.0108259,13.68358704,2.053268851,crawl
23/10/2020, 15:17:59,12.8061695,-3.891907,2.8452833,-0.13726889,0.30291495,1.8764355,13.68358704,1.905678479,crawl
23/10/2020, 15:17:59,13.129498,-3.8344264,2.5027955,-0.13726889,0.30291495,1.8764355,13.90505362,1.905678479,crawl
23/10/2020, 15:17:59,13.129498,-3.8344264,2.5027955,0.0655383,0.48250926,1.7224975,13.90505362,1.790002224,crawl
23/10/2020, 15:17:59,12.798985,-3.6931202,1.9974464,0.0655383,0.48250926,1.7224975,13.47007551,1.790002224,crawl
23/10/2020, 15:17:59,12.798985,-3.6931202,1.9974464,0.20970245,0.6425559,1.5673378,13.47007551,1.706868717,crawl
23/10/2020, 15:17:59,12.020603,-3.3841627,1.4753321,0.20970245,0.6425559,1.5673378,12.57473907,1.706868717,crawl
23/10/2020, 15:17:59,12.020603,-3.3841627,1.4753321,0.2732324,0.73662907,1.4085128,12.57473907,1.612819495,crawl
23/10/2020, 15:18:00,8.981323,-3.4584084,-0.043110352,-2.5917246,-0.27985027,-0.74906236,9.62427213,2.71227712,crawl
23/10/2020, 15:18:00,9.034014,-3.4296682,-0.09101075,-2.5917246,-0.27985027,-0.74906236,9.663555828,2.71227712,crawl
23/10/2020, 15:18:00,9.034014,-3.4296682,-0.09101075,-2.676024,-0.2920676,-0.80526197,9.663555828,2.809778381,crawl
23/10/2020, 15:18:00,8.919053,-3.420088,-0.07903565,-2.676024,-0.2920676,-0.80526197,9.55263088,2.809778381,crawl
23/10/2020, 15:18:00,8.919053,-3.420088,-0.07903565,-2.7493277,-0.31039354,-0.8712354,9.55263088,2.900723669,crawl
23/10/2020, 15:18:00,8.823253,-3.3482375,0.05269043,-2.7493277,-0.31039354,-0.8712354,9.437333233,2.900723669,crawl
23/10/2020, 15:18:00,8.823253,-3.3482375,0.05269043,-2.8128576,-0.33971506,-0.9372088,9.437333233,2.98428126,crawl
23/10/2020, 15:18:00,8.837623,-3.3626075,0.15567628,-2.8128576,-0.33971506,-0.9372088,9.457004713,2.98428126,crawl
23/10/2020, 15:18:00,8.837623,-3.3626075,0.15567628,-2.8690574,-0.36537138,-1.0092908,9.457004713,3.063275151,crawl
23/10/2020, 15:18:00,9.0004835,-3.5015187,0.3281177,-2.8690574,-0.36537138,-1.0092908,9.663177432,3.063275151,crawl
23/10/2020, 15:18:00,9.0004835,-3.5015187,0.3281177,-2.8861616,-0.37636694,-1.0874816,9.663177432,3.10712036,crawl
23/10/2020, 15:18:00,9.125025,-3.7937112,0.65384036,-2.8861616,-0.37636694,-1.0874816,9.903829022,3.10712036,crawl
23/10/2020, 15:18:00,9.125025,-3.7937112,0.65384036,-2.8690574,-0.3775887,-1.1607854,9.903829022,3.117929844,crawl
23/10/2020, 15:18:00,9.13221,-4.2751102,0.9915381,-2.8690574,-0.3775887,-1.1607854,10.13197764,3.117929844,crawl
23/10/2020, 15:18:00,9.13221,-4.2751102,0.9915381,-2.8043056,-0.38125387,-1.2340891,10.13197764,3.087468242,crawl
23/10/2020, 15:18:00,9.045989,-4.636758,1.4250367,-2.8043056,-0.38125387,-1.2340891,10.26451024,3.087468242,crawl
23/10/2020, 15:18:00,9.045989,-4.636758,1.4250367,-2.676024,-0.39713636,-1.3135016,10.26451024,3.007342343,crawl
23/10/2020, 15:18:00,8.832832,-5.046306,1.7411792,-2.676024,-0.39713636,-1.3135016,10.32065103,3.007342343,crawl
23/10/2020, 15:18:00,8.832832,-5.046306,1.7411792,-2.5025382,-0.42645788,-1.3831402,10.32065103,2.890958426,crawl
23/10/2020, 15:18:00,8.722662,-5.213958,2.2465284,-2.5025382,-0.42645788,-1.3831402,10.40754906,2.890958426,crawl
23/10/2020, 15:18:00,8.722662,-5.213958,2.2465284,-2.2801836,-0.45944458,-1.4356747,10.40754906,2.733402296,crawl
23/10/2020, 15:18:00,8.756192,-5.398374,2.682422,-2.2801836,-0.45944458,-1.4356747,10.63055653,2.733402296,crawl
23/10/2020, 15:18:00,8.756192,-5.398374,2.682422,-2.0358374,-0.48143575,-1.4723265,10.63055653,2.55815553,crawl
23/10/2020, 15:18:00,8.878338,-5.5947657,2.9770093,-2.0358374,-0.48143575,-1.4723265,10.90820198,2.55815553,crawl
23/10/2020, 15:18:00,8.878338,-5.5947657,2.9770093,-1.8379171,-0.48143575,-1.4967611,10.90820198,2.418680084,crawl
23/10/2020, 15:18:00,8.945398,-5.4462748,3.0943654,-1.8379171,-0.48143575,-1.4967611,10.92049253,2.418680084,crawl
23/10/2020, 15:18:00,8.945398,-5.4462748,3.0943654,-1.6974181,-0.5009834,-1.5187523,10.92049253,2.332128047,crawl
23/10/2020, 15:18:00,9.045989,-5.4582496,3.2692018,-1.6974181,-0.5009834,-1.5187523,11.05938905,2.332128047,crawl
23/10/2020, 15:18:00,9.045989,-5.4582496,3.2692018,-1.5972363,-0.50709206,-1.5089785,11.05938905,2.255065885,crawl
23/10/2020, 15:18:00,9.077125,-5.601951,3.3817677,-1.5972363,-0.50709206,-1.5089785,11.18983469,2.255065885,crawl
23/10/2020, 15:18:01,12.691209,-2.7015822,1.0274634,0.38929677,-0.9200368,-1.4442267,13.01618259,1.756078175,crawl
23/10/2020, 15:18:01,14.113851,-2.3878345,0.9532178,0.38929677,-0.9200368,-1.4442267,14.34611991,1.756078175,crawl
23/10/2020, 15:18:01,14.113851,-2.3878345,0.9532178,0.18526785,-0.8222984,-1.655586,14.34611991,1.85781158,crawl
23/10/2020, 15:18:01,14.820381,-2.327959,1.0753639,0.18526785,-0.8222984,-1.655586,15.04059503,1.85781158,crawl
23/10/2020, 15:18:01,14.820381,-2.327959,1.0753639,-0.03464356,-0.6512562,-1.8290718,15.04059503,1.941864651,crawl
23/10/2020, 15:18:01,14.578485,-2.703977,1.214275,-0.03464356,-0.6512562,-1.8290718,14.87676602,1.941864651,crawl
23/10/2020, 15:18:01,14.578485,-2.703977,1.214275,-0.2521115,-0.45211422,-1.9390274,14.87676602,2.006936682,crawl
23/10/2020, 15:18:01,13.239669,-3.163821,1.4753321,-0.2521115,-0.45211422,-1.9390274,13.69215831,2.006936682,crawl
23/10/2020, 15:18:01,13.239669,-3.163821,1.4753321,-0.4268189,-0.30795008,-2.008666,13.69215831,2.076474629,crawl
23/10/2020, 15:18:01,11.421848,-3.4847536,1.7962648,-0.4268189,-0.30795008,-2.008666,12.07595517,2.076474629,crawl
23/10/2020, 15:18:01,11.421848,-3.4847536,1.7962648,-0.5428832,-0.26396778,-2.0599787,12.07595517,2.146605115,crawl
23/10/2020, 15:18:01,9.72378,-3.5206788,2.0453467,-0.5428832,-0.26396778,-2.0599787,10.54184583,2.146605115,crawl
23/10/2020, 15:18:01,9.72378,-3.5206788,2.0453467,-0.5819786,-0.2969545,-2.0648656,10.54184583,2.165767992,crawl
23/10/2020, 15:18:01,8.538245,-3.3937428,2.3255641,-0.5819786,-0.2969545,-2.0648656,9.477730208,2.165767992,crawl
23/10/2020, 15:18:01,8.538245,-3.3937428,2.3255641,-0.5587657,-0.36537138,-2.0184398,9.477730208,2.125985528,crawl
23/10/2020, 15:18:01,7.683223,-3.319497,2.2776637,-0.5587657,-0.36537138,-2.0184398,8.674025891,2.125985528,crawl
23/10/2020, 15:18:01,7.683223,-3.319497,2.2776637,-0.5208921,-0.4716619,-1.9341404,8.674025891,2.057836914,crawl
23/10/2020, 15:18:01,7.316785,-3.2859669,2.315984,-0.5208921,-0.4716619,-1.9341404,8.348455001,2.057836914,crawl
23/10/2020, 15:18:01,7.316785,-3.2859669,2.315984,-0.4585839,-0.602387,-1.8571715,8.348455001,2.005556135,crawl
23/10/2020, 15:18:01,7.4197707,-3.1087356,2.299219,-0.4585839,-0.602387,-1.8571715,8.366817902,2.005556135,crawl
23/10/2020, 15:18:01,7.4197707,-3.1087356,2.299219,-0.36084545,-0.70623404,-1.7985284,8.366817902,1.965624704,crawl
23/10/2020, 15:18:01,7.9562554,-3.175796,2.3303542,-0.36084545,-0.70623404,-1.7985284,8.877963266,1.965624704,crawl
23/10/2020, 15:18:01,7.9562554,-3.175796,2.3303542,-0.26310706,-0.7734292,-1.7459941,8.877963266,1.92767047,crawl
23/10/2020, 15:18:01,8.768167,-3.2093263,2.304009,-0.26310706,-0.7734292,-1.7459941,9.61711895,1.92767047,crawl
23/10/2020, 15:18:01,8.768167,-3.2093263,2.304009,-0.16170348,-0.7929769,-1.7203377,9.61711895,1.901189726,crawl
23/10/2020, 15:18:01,9.611214,-3.1302907,2.3519094,-0.16170348,-0.7929769,-1.7203377,10.37813213,1.901189726,crawl
23/10/2020, 15:18:01,9.611214,-3.1302907,2.3519094,-0.06518681,-0.7844248,-1.719116,10.37813213,1.890748869,crawl
23/10/2020, 15:18:01,10.384805,-3.2189064,2.198628,-0.06518681,-0.7844248,-1.719116,11.09231682,1.890748869,crawl
23/10/2020, 15:18:01,10.384805,-3.2189064,2.198628,-0.05174778,-0.72822523,-1.7423289,11.09231682,1.88910025,crawl
23/10/2020, 15:18:04,10.830278,-3.271597,2.1459377,-0.05174778,-0.72822523,-1.7423289,11.51535171,1.88910025,crawl
23/10/2020, 15:18:04,10.830278,-3.271597,2.1459377,-0.08595622,-0.679356,-1.7484375,11.51535171,1.877750461,crawl
23/10/2020, 15:18:04,10.98356,-3.302732,2.1363575,-0.08595622,-0.679356,-1.7484375,11.66664664,1.877750461,crawl
23/10/2020, 15:18:04,10.98356,-3.302732,2.1363575,-0.1788077,-0.62559986,-1.7337768,11.66664664,1.851844864,crawl
23/10/2020, 15:18:04,10.966795,-3.2045362,2.1459377,-0.1788077,-0.62559986,-1.7337768,11.62517495,1.851844864,crawl
23/10/2020, 15:18:04,10.966795,-3.2045362,2.1459377,-0.28387648,-0.55962646,-1.7178943,11.62517495,1.828914572,crawl
23/10/2020, 15:18:04,10.621912,-2.9937747,2.2824538,-0.28387648,-0.55962646,-1.7178943,11.26930772,1.828914572,crawl
23/10/2020, 15:18:04,10.621912,-2.9937747,2.2824538,-0.41826677,-0.4960965,-1.7117857,11.26930772,1.830647158,crawl
23/10/2020, 15:18:04,10.111773,-2.802173,2.6345215,-0.41826677,-0.4960965,-1.7117857,10.81854058,1.830647158,crawl
23/10/2020, 15:18:04,10.111773,-2.802173,2.6345215,-0.5990828,-0.45333594,-1.7020118,10.81854058,1.860445634,crawl
23/10/2020, 15:18:04,9.836346,-2.6009912,2.9410841,-0.5990828,-0.45333594,-1.7020118,10.5909786,1.860445634,crawl
23/10/2020, 15:18:04,9.836346,-2.6009912,2.9410841,-0.82388115,-0.4105754,-1.687351,10.5909786,1.922109689,crawl
23/10/2020, 15:18:04,9.6615095,-2.565066,2.802173,-0.82388115,-0.4105754,-1.687351,10.38154628,1.922109689,crawl
23/10/2020, 15:18:04,9.6615095,-2.565066,2.802173,-1.0608968,-0.34215853,-1.6824641,10.38154628,2.018231876,crawl
23/10/2020, 15:18:04,9.501043,-2.8428884,2.567461,-1.0608968,-0.34215853,-1.6824641,10.24420297,2.018231876,crawl
23/10/2020, 15:18:04,9.501043,-2.8428884,2.567461,-1.2539301,-0.25785914,-1.705677,10.24420297,2.132642997,crawl
23/10/2020, 15:18:04,9.263936,-3.1901662,2.4716604,-1.2539301,-0.25785914,-1.705677,10.10478979,2.132642997,crawl
23/10/2020, 15:18:04,9.263936,-3.1901662,2.4716604,-1.3553337,-0.19066398,-1.7582114,10.10478979,2.228135855,crawl
23/10/2020, 15:18:04,9.137,-3.6045046,2.4884255,-1.3553337,-0.19066398,-1.7582114,10.13259519,2.228135855,crawl
23/10/2020, 15:18:04,9.137,-3.6045046,2.4884255,-1.3602207,-0.14057304,-1.8302934,10.13259519,2.284717717,crawl
23/10/2020, 15:18:04,9.206455,-3.911067,2.668052,-1.3602207,-0.14057304,-1.8302934,10.35247624,2.284717717,crawl
23/10/2020, 15:18:04,9.206455,-3.911067,2.668052,-1.2563735,-0.10636461,-1.9011538,10.35247624,2.281265799,crawl
23/10/2020, 15:18:04,9.319021,-4.0787187,2.8285182,-1.2563735,-0.10636461,-1.9011538,10.55843821,2.281265799,crawl
23/10/2020, 15:18:04,9.319021,-4.0787187,2.8285182,-1.1183181,-0.10514288,-1.9378057,10.55843821,2.239817203,crawl
23/10/2020, 15:18:04,9.371712,-4.3158255,2.787803,-1.1183181,-0.10514288,-1.9378057,10.68771142,2.239817203,crawl
23/10/2020, 15:18:04,9.371712,-4.3158255,2.787803,-1.0169145,-0.12713403,-1.9475795,10.68771142,2.200759881,crawl
23/10/2020, 15:18:04,9.371712,-4.3158255,2.787803,-0.8849676,-0.09903423,-1.9915618,10.68771142,2.181580565,crawl
23/10/2020, 15:18:04,9.371712,-4.3158255,2.787803,-0.724921,-0.026952155,-2.0770829,10.68771142,2.200115932,crawl
23/10/2020, 15:18:04,9.371712,-4.3158255,2.787803,-0.5221138,0.003591096,-2.125952,10.68771142,2.189129426,crawl
23/10/2020, 15:18:04,9.371712,-4.3158255,2.787803,-0.3400761,-0.025730425,-2.1210651,10.68771142,2.1483089,crawl
23/10/2020, 15:18:05,8.145462,-3.4847536,3.8368216,-0.028534908,-0.18822052,-0.8981134,9.654701401,0.918068045,crawl
23/10/2020, 15:18:05,8.145462,-3.4847536,3.8368216,0.0777556,-0.17600322,-0.8443573,9.654701401,0.866003658,crawl
23/10/2020, 15:18:05,8.145462,-3.4847536,3.8368216,0.15228114,-0.17355976,-0.78082734,9.654701401,0.814250498,crawl
23/10/2020, 15:18:05,8.145462,-3.4847536,3.8368216,0.19381995,-0.17844668,-0.7075235,9.654701401,0.754982735,crawl
23/10/2020, 15:18:05,8.145462,-3.4847536,3.8368216,0.19626342,-0.17355976,-0.63421977,9.654701401,0.686204801,crawl
23/10/2020, 15:18:05,8.145462,-3.4847536,3.8368216,0.175494,-0.14423823,-0.5548073,9.654701401,0.599511433,crawl
23/10/2020, 15:18:05,8.145462,-3.4847536,3.8368216,0.15228114,-0.089260384,-0.4729514,9.654701401,0.504816797,crawl
23/10/2020, 15:18:05,8.145462,-3.4847536,3.8368216,0.12662481,-0.026952155,-0.39353895,9.654701401,0.414286335,crawl
23/10/2020, 15:18:05,8.145462,-3.4847536,3.8368216,0.09852501,0.025582237,-0.32145688,9.654701401,0.337188603,crawl
23/10/2020, 15:18:05,8.145462,-3.4847536,3.8368216,0.069203496,0.07445144,-0.23837923,9.654701401,0.259146282,crawl
23/10/2020, 15:18:05,8.145462,-3.4847536,3.8368216,0.034995053,0.11599026,-0.14797121,9.654701401,0.19124297,crawl
23/10/2020, 15:18:05,8.145462,-3.4847536,3.8368216,-4.35E-04,0.1416466,-0.053898,9.654701401,0.151555076,crawl
23/10/2020, 15:18:05,8.145462,-3.4847536,3.8368216,-0.02120453,0.15508562,0.041396942,9.654701401,0.161910128,crawl
23/10/2020, 15:18:05,8.145462,-3.4847536,3.8368216,-0.013874149,0.15508562,0.13424844,9.654701401,0.20558863,crawl
23/10/2020, 15:18:05,8.145462,-3.4847536,3.8368216,0.014225641,0.13065103,0.2185478,9.654701401,0.255020006,crawl
23/10/2020, 15:18:05,8.145462,-3.4847536,3.8368216,0.07164695,0.085447006,0.29185158,9.654701401,0.312428906,crawl
23/10/2020, 15:18:05,8.145462,-3.4847536,3.8368216,0.15838979,0.029247427,0.3529381,9.654701401,0.387953645,crawl
23/10/2020, 15:18:05,8.145462,-3.4847536,3.8368216,0.28667146,-0.023286965,0.40180728,9.654701401,0.494137529,crawl
23/10/2020, 15:18:05,8.145462,-3.4847536,3.8368216,0.4601571,-0.06726924,0.43968093,9.654701401,0.639991428,crawl
23/10/2020, 15:18:05,8.145462,-3.4847536,3.8368216,0.66174257,-0.09536903,0.4763328,9.654701401,0.820908904,crawl
23/10/2020, 15:18:05,8.145462,-3.4847536,3.8368216,0.8718801,-0.10636461,0.5068761,9.654701401,1.014106383,crawl
23/10/2020, 15:18:05,8.145462,-3.4847536,3.8368216,1.0722438,-0.07948654,0.5349759,9.654701401,1.200926349,crawl
23/10/2020, 15:18:05,8.145462,-3.4847536,3.8368216,1.2078559,-0.012291394,0.5801799,9.654701401,1.340028284,crawl
23/10/2020, 15:18:05,8.145462,-3.4847536,3.8368216,1.2738293,0.053682026,0.6534837,9.654701401,1.432677173,crawl
23/10/2020, 15:18:05,7.9873905,-3.3697927,3.796106,1.2738293,0.053682026,0.6534837,9.463843387,1.432677173,crawl
23/10/2020, 15:18:05,8.028106,-3.2476466,3.7506008,1.2738293,0.053682026,0.6534837,9.437409413,1.432677173,crawl
23/10/2020, 15:18:05,8.135881,-3.187771,3.7625759,1.2738293,0.053682026,0.6534837,9.513749427,1.432677173,crawl
23/10/2020, 15:18:05,8.250843,-3.2213013,3.788921,1.2738293,0.053682026,0.6534837,9.633748825,1.432677173,crawl
23/10/2020, 15:18:05,8.267608,-3.276387,3.7290456,1.2738293,0.053682026,0.6534837,9.643330847,1.432677173,crawl
23/10/2020, 15:18:05,8.198153,-3.271597,3.547024,1.2738293,0.053682026,0.6534837,9.512856079,1.432677173,crawl
23/10/2020, 15:18:10,-4.550537,-6.6270194,-3.2356715,-1.9637552,-1.8668776,0.08415749,8.665699301,2.710839164,crawl
23/10/2020, 15:18:10,-3.9829175,-6.3228517,-4.2439747,-1.9637552,-1.8668776,0.08415749,8.593800464,2.710839164,crawl
23/10/2020, 15:18:10,-3.65959,-6.2605815,-3.9254372,-1.9637552,-1.8668776,0.08415749,8.24600127,2.710839164,crawl
23/10/2020, 15:18:10,-3.7266505,-6.8761015,-2.9817994,-1.9637552,-1.8668776,0.08415749,8.370174608,2.710839164,crawl
23/10/2020, 15:18:10,-3.8631666,-7.5131764,-2.4812403,-1.9637552,-1.8668776,0.08415749,8.805022969,2.710839164,crawl
23/10/2020, 15:18:10,-3.784131,-7.7502837,-1.3771362,-1.9637552,-1.8668776,0.08415749,8.734016814,2.710839164,crawl
23/10/2020, 15:18:10,-3.8128712,-7.9849954,-0.847837,-1.9637552,-1.8668776,0.08415749,8.889148746,2.710839164,crawl
23/10/2020, 15:18:10,-3.8679566,-7.9538603,-0.33530274,-1.9637552,-1.8668776,0.08415749,8.850842326,2.710839164,crawl
23/10/2020, 15:18:10,-3.8679566,-7.9538603,-0.33530274,-1.9894116,-1.8302256,0.10737036,8.850842326,2.705367365,crawl
23/10/2020, 15:18:10,-3.8679566,-7.9538603,-0.33530274,-2.1567888,-1.7813565,0.13058324,8.850842326,2.800360841,crawl
23/10/2020, 15:18:10,-3.8679566,-7.9538603,-0.33530274,-2.3571525,-1.715383,0.1049269,8.850842326,2.917141821,crawl
23/10/2020, 15:18:10,-3.8679566,-7.9538603,-0.33530274,-2.453669,-1.6811745,0.08293576,8.850842326,2.975519788,crawl
23/10/2020, 15:18:10,-3.8679566,-7.9538603,-0.33530274,-2.5416336,-1.6494095,0.09881825,8.850842326,3.031537273,crawl
23/10/2020, 15:18:10,-3.8679566,-7.9538603,-0.33530274,-2.526973,-1.6127577,0.15623957,8.850842326,3.00183123,crawl
23/10/2020, 15:18:10,-3.8679566,-7.9538603,-0.33530274,-2.4402301,-1.5883231,0.20266531,8.850842326,2.918658364,crawl
23/10/2020, 15:18:10,-3.8679566,-7.9538603,-0.33530274,-2.2337577,-1.566332,0.26253006,8.850842326,2.740801256,crawl
23/10/2020, 15:18:10,-3.9398074,-8.171807,-0.38559815,-2.2337577,-1.566332,0.26253006,9.080154336,2.740801256,crawl
23/10/2020, 15:18:10,-3.9398074,-8.171807,-0.38559815,-1.9246598,-1.52968,0.31017753,9.080154336,2.477992449,crawl
23/10/2020, 15:18:10,-3.9398074,-8.171807,-0.38559815,-1.6143404,-1.4343851,0.33949906,9.080154336,2.186050118,crawl
23/10/2020, 15:18:10,-3.9278321,-7.824529,-0.100590825,-1.6143404,-1.4343851,0.33949906,8.755640495,2.186050118,crawl
23/10/2020, 15:18:10,-3.9278321,-7.824529,-0.100590825,-1.3345643,-1.3317598,0.35171637,8.755640495,1.917902642,crawl
23/10/2020, 15:18:10,-3.9278321,-7.824529,-0.100590825,-1.1134312,-1.2425735,0.38959,8.755640495,1.713329606,crawl
23/10/2020, 15:18:10,-3.9278321,-7.824529,-0.100590825,-0.97171044,-1.1423916,0.39447692,8.755640495,1.550771327,crawl
23/10/2020, 15:18:10,-3.9278321,-7.824529,-0.100590825,-0.8715286,-1.022662,0.38348135,8.755640495,1.397303743,crawl
23/10/2020, 15:18:10,-3.9278321,-7.824529,-0.100590825,-0.7847858,-0.92125857,0.40425074,8.755640495,1.275940741,crawl
23/10/2020, 15:18:10,-3.9278321,-7.824529,-0.100590825,-0.7481339,-0.78809,0.41646805,8.755640495,1.163716375,crawl
23/10/2020, 15:18:10,-3.9278321,-7.824529,-0.100590825,-0.68582565,-0.6536997,0.3614902,8.755640495,1.014078531,crawl
23/10/2020, 15:18:10,-3.9278321,-7.824529,-0.100590825,-0.5172269,-0.5486309,0.20755222,8.755640495,0.782046944,crawl
23/10/2020, 15:18:10,-3.9278321,-7.824529,-0.100590825,-0.22523345,-0.44234037,0.07194019,8.755640495,0.501568046,crawl
23/10/2020, 15:18:10,-3.9278321,-7.824529,-0.100590825,0.016669102,-0.39957982,-1.42E-04,8.755640495,0.399927386,crawl
23/10/2020, 15:18:11,-3.9278321,-7.824529,-0.100590825,-0.6943778,-0.090482116,-0.33611766,8.755640495,0.776738433,crawl
23/10/2020, 15:18:11,-3.9278321,-7.824529,-0.100590825,-0.95949316,-0.053830218,-0.36910436,8.755640495,1.029447834,crawl
23/10/2020, 15:18:11,-3.9278321,-7.824529,-0.100590825,-1.1390874,-0.004961015,-0.31290478,8.755640495,1.181293445,crawl
23/10/2020, 15:18:11,-4.0859036,-7.2569094,-0.23471193,-1.1390874,-0.004961015,-0.31290478,8.331412359,1.181293445,crawl
23/10/2020, 15:18:11,-3.9541774,-6.813831,-0.031135255,-1.1390874,-0.004961015,-0.31290478,7.878120273,1.181293445,crawl
23/10/2020, 15:18:11,-3.7601807,-6.3875175,0.5556446,-1.1390874,-0.004961015,-0.31290478,7.432905157,1.181293445,crawl
23/10/2020, 15:18:11,-3.67875,-6.1073003,1.1520045,-1.1390874,-0.004961015,-0.31290478,7.222148773,1.181293445,crawl
23/10/2020, 15:18:11,-3.8224514,-5.965994,0.9987232,-1.1390874,-0.004961015,-0.31290478,7.155533899,1.181293445,crawl
23/10/2020, 15:18:11,-3.657195,-5.721702,1.096919,-1.1390874,-0.004961015,-0.31290478,6.87867589,1.181293445,crawl
23/10/2020, 15:18:11,-4.28948,-5.6929617,1.4034815,-1.1390874,-0.004961015,-0.31290478,7.26493039,1.181293445,crawl
23/10/2020, 15:18:11,-5.0989966,-4.840335,2.0166066,-1.1390874,-0.004961015,-0.31290478,7.314048855,1.181293445,crawl
23/10/2020, 15:18:11,-5.6642213,-4.387676,2.4501052,-1.1390874,-0.004961015,-0.31290478,7.57219366,1.181293445,crawl
23/10/2020, 15:18:11,-5.8893533,-3.7937112,1.1927198,-1.1390874,-0.004961015,-0.31290478,7.106286451,1.181293445,crawl
23/10/2020, 15:18:11,-5.637876,-3.2260914,0.38559815,-1.1390874,-0.004961015,-0.31290478,6.5070729,1.181293445,crawl
23/10/2020, 15:18:11,-5.53489,-3.0416749,0.35925296,-1.1390874,-0.004961015,-0.31290478,6.325808869,1.181293445,crawl
23/10/2020, 15:18:11,-5.695357,-3.4751735,-0.28261232,-1.1390874,-0.004961015,-0.31290478,6.677858189,1.181293445,crawl
23/10/2020, 15:18:11,-6.1887307,-4.0044727,-0.50534916,-1.1390874,-0.004961015,-0.31290478,7.388610663,1.181293445,crawl
23/10/2020, 15:18:11,-6.4282327,-4.7780643,-0.8861573,-1.1390874,-0.004961015,-0.31290478,8.058371297,1.181293445,crawl
23/10/2020, 15:18:11,-6.662945,-6.023474,-0.62031007,-1.1390874,-0.004961015,-0.31290478,9.003435985,1.181293445,crawl
23/10/2020, 15:18:11,-6.574329,-6.8042507,-0.73048097,-1.1390874,-0.004961015,-0.31290478,9.489638072,1.181293445,crawl
23/10/2020, 15:18:11,-6.70366,-7.3934255,0.023950197,-1.1390874,-0.004961015,-0.31290478,9.98009876,1.181293445,crawl
23/10/2020, 15:18:11,-6.622229,-8.418494,-0.11496094,-1.1390874,-0.004961015,-0.31290478,10.71159088,1.181293445,crawl
23/10/2020, 15:18:11,-6.212681,-8.792117,-0.09340577,-1.1390874,-0.004961015,-0.31290478,10.76603228,1.181293445,crawl
23/10/2020, 15:18:11,-6.0378447,-8.008945,-0.7209009,-1.1390874,-0.004961015,-0.31290478,10.05576818,1.181293445,crawl
23/10/2020, 15:18:44,-5.9061184,-6.8928666,-1.719624,-1.1390874,-0.004961015,-0.31290478,9.238557866,1.181293445,crawl
23/10/2020, 15:18:44,-5.877378,-6.361172,-1.9974464,-1.1390874,-0.004961015,-0.31290478,8.888074929,1.181293445,crawl
23/10/2020, 15:18:44,-6.5719337,-5.961204,-2.0525317,-1.1390874,-0.004961015,-0.31290478,9.107093574,1.181293445,crawl
23/10/2020, 15:18:44,-6.5719337,-5.961204,-2.0525317,-1.2844733,0.014586667,-0.26037037,9.107093574,1.31067813,crawl
23/10/2020, 15:18:44,-6.5719337,-5.961204,-2.0525317,-1.3308991,0.059790675,-0.23837923,9.107093574,1.353400179,crawl
23/10/2020, 15:18:44,-6.5719337,-5.961204,-2.0525317,-1.1989523,0.053682026,-0.14674948,9.107093574,1.209092151,crawl
23/10/2020, 15:18:44,-6.5719337,-5.961204,-2.0525317,-0.9362803,0.06589933,-0.018467829,9.107093574,0.938778249,crawl
23/10/2020, 15:18:44,-6.5719337,-5.961204,-2.0525317,-0.62473917,0.0891122,0.012075421,9.107093574,0.631178129,crawl
23/10/2020, 15:18:44,-6.5719337,-5.961204,-2.0525317,-0.36939758,0.07322971,0.049949054,9.107093574,0.379884286,crawl
23/10/2020, 15:18:44,-6.5719337,-5.961204,-2.0525317,-0.29365033,0.06956452,0.06583154,9.107093574,0.308874619,crawl
23/10/2020, 15:18:44,-6.5719337,-5.961204,-2.0525317,-0.36573237,0.1135468,0.059722893,9.107093574,0.387582079,crawl
23/10/2020, 15:18:44,-6.5719337,-5.961204,-2.0525317,-0.5062313,0.12209891,0.019405803,9.107093574,0.521109265,crawl
23/10/2020, 15:18:44,-6.5719337,-5.961204,-2.0525317,-0.6284043,0.07078625,0.002301582,9.107093574,0.632382779,crawl
23/10/2020, 15:18:44,-6.5719337,-5.961204,-2.0525317,-0.64917374,0.010921476,0.019405803,9.107093574,0.649555543,crawl
23/10/2020, 15:18:44,-6.5719337,-5.961204,-2.0525317,-0.5612092,-0.017178316,0.057279434,9.107093574,0.564386212,crawl
23/10/2020, 15:18:44,-6.5719337,-5.961204,-2.0525317,-0.3938322,-0.012291394,0.117144205,9.107093574,0.411068912,crawl
23/10/2020, 15:18:44,-6.5719337,-5.961204,-2.0525317,-0.15315138,-0.030617345,0.19166975,9.107093574,0.247244936,crawl
23/10/2020, 15:18:44,-6.5719337,-5.961204,-2.0525317,0.088751175,-0.057495408,0.2466476,9.107093574,0.26836082,crawl
23/10/2020, 15:18:44,-6.5719337,-5.961204,-2.0525317,0.3416493,-0.06238233,0.27841255,9.107093574,0.445117224,crawl
23/10/2020, 15:18:44,-6.5719337,-5.961204,-2.0525317,0.5652259,-0.052608486,0.2723039,9.107093574,0.629600976,crawl
23/10/2020, 15:18:44,-6.5719337,-5.961204,-2.0525317,0.62386894,-0.028173884,0.2429824,9.107093574,0.670109448,crawl
23/10/2020, 15:18:44,-6.5719337,-5.961204,-2.0525317,0.48947865,0.021917047,0.20388705,9.107093574,0.530697306,crawl
23/10/2020, 15:18:44,-6.5719337,-5.961204,-2.0525317,0.21581109,0.042686455,0.20022185,9.107093574,0.297464871,crawl
23/10/2020, 15:18:44,-6.5719337,-5.961204,-2.0525317,-0.07496065,0.051238567,0.21366088,9.107093574,0.232153961,crawl
23/10/2020, 15:18:44,-6.5719337,-5.961204,-2.0525317,-0.23134209,0.085447006,0.16356994,9.107093574,0.295931547,crawl
23/10/2020, 15:18:44,-6.5719337,-5.961204,-2.0525317,-0.23256382,0.08300355,0.12813978,9.107093574,0.278200152,crawl
23/10/2020, 15:18:44,-6.5719337,-5.961204,-2.0525317,-0.23867248,0.058568943,0.11103555,9.107093574,0.269673445,crawl
23/10/2020, 15:18:44,-6.5719337,-5.961204,-2.0525317,-0.3730628,-0.022065235,0.11592247,9.107093574,0.391280896,crawl
23/10/2020, 15:18:44,-6.5719337,-5.961204,-2.0525317,-0.63451296,-0.10025595,0.18556109,9.107093574,0.668648541,crawl
23/10/2020, 15:18:44,-7.407796,-5.860613,-1.465752,-0.63451296,-0.10025595,0.18556109,9.558799733,0.668648541,crawl
23/10/2020, 15:18:45,-6.5072684,-5.7791824,-2.9913795,-1.6326665,0.5093873,-0.6158938,9.20281714,1.817800975,crawl
23/10/2020, 15:18:45,-5.470225,-6.375542,-3.5494192,-1.6326665,0.5093873,-0.6158938,9.11971898,1.817800975,crawl
23/10/2020, 15:18:45,-4.414021,-5.9300685,-3.5781593,-1.6326665,0.5093873,-0.6158938,8.212948195,1.817800975,crawl
23/10/2020, 15:18:45,-4.1984696,-5.1756372,-2.8740237,-1.6326665,0.5093873,-0.6158938,7.257711781,1.817800975,crawl
23/10/2020, 15:18:45,-4.3541455,-4.6654983,-2.2489235,-1.6326665,0.5093873,-0.6158938,6.766322069,1.817800975,crawl
23/10/2020, 15:18:45,-4.26553,-3.9853127,-1.8872755,-1.6326665,0.5093873,-0.6158938,6.135085418,1.817800975,crawl
23/10/2020, 15:18:45,-4.0930886,-3.283572,-2.0309765,-1.6326665,0.5093873,-0.6158938,5.626729511,1.817800975,crawl
23/10/2020, 15:18:45,-3.8416114,-2.8788135,-2.4069948,-1.6326665,0.5093873,-0.6158938,5.37021129,1.817800975,crawl
23/10/2020, 15:18:45,-3.5973196,-2.6584718,-2.567461,-1.6326665,0.5093873,-0.6158938,5.157522352,1.817800975,crawl
23/10/2020, 15:18:45,-3.5134938,-2.7015822,-2.327959,-1.6326665,0.5093873,-0.6158938,5.006253914,1.817800975,crawl
23/10/2020, 15:18:45,-3.3530276,-2.7901978,-2.1148024,-1.6326665,0.5093873,-0.6158938,4.847719776,1.817800975,crawl
23/10/2020, 15:18:45,-3.1398706,-2.9171338,-1.6525636,-1.6326665,0.5093873,-0.6158938,4.593410897,1.817800975,crawl
23/10/2020, 15:18:45,-2.811753,-3.0081446,-1.3124708,-1.6326665,0.5093873,-0.6158938,4.321743716,1.817800975,crawl
23/10/2020, 15:18:45,-2.4620802,-3.0225148,-1.1543995,-1.6326665,0.5093873,-0.6158938,4.06571927,1.817800975,crawl
23/10/2020, 15:18:45,-2.1004322,-2.8644435,-0.9987232,-1.6326665,0.5093873,-0.6158938,3.689756102,1.817800975,crawl
23/10/2020, 15:18:45,-2.1004322,-2.8644435,-0.9987232,-1.6534358,0.5949084,-0.6733151,3.689756102,1.881786197,crawl
23/10/2020, 15:18:45,-2.1004322,-2.8644435,-0.9987232,-1.648549,0.696312,-0.7600579,3.689756102,1.944287053,crawl
23/10/2020, 15:18:45,-2.1004322,-2.8644435,-0.9987232,-1.580132,0.8160415,-0.8651267,3.689756102,1.97767166,crawl
23/10/2020, 15:18:45,-2.1004322,-2.8644435,-0.9987232,-1.4432982,0.94065803,-0.97263896,3.689756102,1.978376568,crawl
23/10/2020, 15:18:45,-2.1004322,-2.8644435,-0.9987232,-1.2441562,1.0774919,-1.0703773,3.689756102,1.963318918,crawl
23/10/2020, 15:18:45,-2.1004322,-2.8644435,-0.9987232,-0.9888147,1.2289864,-1.1607854,3.689756102,1.958464933,crawl
23/10/2020, 15:18:45,-2.1004322,-2.8644435,-0.9987232,-0.6809387,1.3878113,-1.24875,3.689756102,1.987227779,crawl
23/10/2020, 15:18:45,-2.1004322,-2.8644435,-0.9987232,-0.3217501,1.5674056,-1.3342711,3.689756102,2.08340171,crawl
23/10/2020, 15:18:45,-2.1004322,-2.8644435,-0.9987232,0.08386426,1.7677693,-1.4527788,3.689756102,2.289674197,crawl
23/10/2020, 15:18:45,-2.1004322,-2.8644435,-0.9987232,0.4772613,1.986459,-1.592056,3.689756102,2.590065675,crawl
23/10/2020, 15:18:45,-2.1004322,-2.8644435,-0.9987232,0.8059067,2.197818,-1.750881,3.689756102,2.923264253,crawl
23/10/2020, 15:18:45,-2.1004322,-2.8644435,-0.9987232,1.0710222,2.4006252,-1.9255884,3.689756102,3.258524284,crawl
23/10/2020, 15:18:45,-2.1004322,-2.8644435,-0.9987232,1.2811596,2.555785,-2.1283956,3.689756102,3.564193364,crawl
23/10/2020, 15:18:45,-2.1004322,-2.8644435,-0.9987232,1.4497584,2.6681843,-2.353194,3.689756102,3.841683068,crawl
23/10/2020, 15:18:45,-2.1004322,-2.8644435,-0.9987232,1.5548272,2.7781398,-2.5792139,3.689756102,4.097303101,crawl
23/10/2020, 15:18:46,10.971585,-2.6896071,4.82357,1.4363194,-1.896199,-1.8070805,12.28317937,2.987327207,crawl
23/10/2020, 15:18:46,10.971585,-2.6896071,4.82357,1.4424281,-1.697057,-1.6775771,12.28317937,2.788344743,crawl
23/10/2020, 15:18:46,10.971585,-2.6896071,4.82357,1.3630157,-1.4331634,-1.5236392,12.28317937,2.496646837,crawl
23/10/2020, 15:18:46,10.971585,-2.6896071,4.82357,1.1785344,-1.1741565,-1.3501536,12.28317937,2.142545577,crawl
23/10/2020, 15:18:46,10.971585,-2.6896071,4.82357,0.9073103,-0.9591322,-1.1778896,12.28317937,1.769341809,crawl
23/10/2020, 15:18:46,10.971585,-2.6896071,4.82357,0.5688911,-0.80763763,-1.0276169,12.28317937,1.425451523,crawl
23/10/2020, 15:18:46,10.971585,-2.6896071,4.82357,0.18038093,-0.74288595,-0.9139959,12.28317937,1.191555854,crawl
23/10/2020, 15:18:46,10.971585,-2.6896071,4.82357,-0.24233766,-0.7685423,-0.83091825,12.28317937,1.157501592,crawl
23/10/2020, 15:18:46,10.971585,-2.6896071,4.82357,-0.66872144,-0.8210767,-0.76127964,12.28317937,1.304186332,crawl
23/10/2020, 15:18:46,10.971585,-2.6896071,4.82357,-1.0584533,-0.8406244,-0.70019317,12.28317937,1.522249412,crawl
23/10/2020, 15:18:46,10.971585,-2.6896071,4.82357,-1.3699944,-0.8222984,-0.68064547,12.28317937,1.736760658,crawl
23/10/2020, 15:18:46,10.971585,-2.6896071,4.82357,-1.5422584,-0.7929769,-0.71241045,12.28317937,1.874807178,crawl
23/10/2020, 15:18:46,10.971585,-2.6896071,4.82357,-1.5605843,-0.7709858,-0.75272757,12.28317937,1.89642855,crawl
23/10/2020, 15:18:46,10.971585,-2.6896071,4.82357,-1.4335244,-0.7514381,-0.8101489,12.28317937,1.809970315,crawl
23/10/2020, 15:18:46,10.971585,-2.6896071,4.82357,-1.1561917,-0.74410766,-0.88589615,12.28317937,1.6356306,crawl
23/10/2020, 15:18:46,10.971585,-2.6896071,4.82357,-0.75790775,-0.74288595,-0.9469826,12.28317937,1.422350088,crawl
23/10/2020, 15:18:46,10.971585,-2.6896071,4.82357,-0.30220246,-0.7196731,-1.0068474,12.28317937,1.27396913,crawl
23/10/2020, 15:18:46,10.971585,-2.6896071,4.82357,0.11562923,-0.64026064,-1.0349472,12.28317937,1.222464486,crawl
23/10/2020, 15:18:46,10.971585,-2.6896071,4.82357,0.5114698,-0.5376353,-1.0239516,12.28317937,1.264567144,crawl
23/10/2020, 15:18:46,11.417059,-2.318379,4.4762917,0.5114698,-0.5376353,-1.0239516,12.4804368,1.264567144,crawl
23/10/2020, 15:18:46,11.452984,-1.6693287,3.9493873,0.5114698,-0.5376353,-1.0239516,12.22927462,1.264567144,crawl
23/10/2020, 15:18:46,10.94524,-1.0226734,3.3458424,0.5114698,-0.5376353,-1.0239516,11.49081377,1.264567144,crawl
23/10/2020, 15:18:46,9.975257,-0.3903882,2.818938,0.5114698,-0.5376353,-1.0239516,10.37326203,1.264567144,crawl
23/10/2020, 15:18:46,8.957374,0.23471193,2.4980054,0.5114698,-0.5376353,-1.0239516,9.302132163,1.264567144,crawl
23/10/2020, 15:18:46,8.080796,0.732876,2.411785,0.5114698,-0.5376353,-1.0239516,8.46481432,1.264567144,crawl
23/10/2020, 15:18:46,7.556287,0.98435307,2.548301,0.5114698,-0.5376353,-1.0239516,8.034939902,1.264567144,crawl
23/10/2020, 15:18:46,7.4676714,0.9244776,2.675237,0.5114698,-0.5376353,-1.0239516,7.986092131,1.264567144,crawl
23/10/2020, 15:18:46,7.800579,0.56522465,2.7734327,0.5114698,-0.5376353,-1.0239516,8.298219198,1.264567144,crawl
23/10/2020, 15:18:46,8.365804,0.098195806,2.6273365,0.5114698,-0.5376353,-1.0239516,8.769219542,1.264567144,crawl
23/10/2020, 15:18:46,9.065149,-0.42870852,2.579436,0.5114698,-0.5376353,-1.0239516,9.434734409,1.264567144,crawl
23/10/2020, 15:18:47,6.8042507,-4.016448,1.3483961,0.14861594,0.3420103,1.1079673,8.015475935,1.169037715,crawl
23/10/2020, 15:18:47,6.847361,-3.9493873,1.3220508,0.14861594,0.3420103,1.1079673,8.014476424,1.169037715,crawl
23/10/2020, 15:18:47,6.847361,-3.9493873,1.3220508,0.14617248,0.29680628,1.0590981,8.014476424,1.109571627,crawl
23/10/2020, 15:18:47,6.847361,-3.9493873,1.3220508,0.15350287,0.252824,0.9906812,8.014476424,1.033891819,crawl
23/10/2020, 15:18:47,6.847361,-3.9493873,1.3220508,0.1791592,0.19173752,0.9173774,8.014476424,0.954171163,crawl
23/10/2020, 15:18:47,6.847361,-3.9493873,1.3220508,0.20603725,0.13187274,0.85506916,8.014476424,0.889373397,crawl
